"success","timeout","failed_images","failed_audio","failed_video","trial_type","trial_index","time_elapsed","internal_node_id","resolution","timeStamp","rt","response","stimulus","button_pressed","value","descriptor"
"true","false","[]","[]","[]","preload","0","17834","0.0-0.0","1920x1080","","","","","","",""
"true","false","[]","[]","[]","preload","1","35252","0.0-1.0","1920x1080","","","","","","",""
"true","false","[]","[]","[]","preload","2","52848","0.0-2.0","1920x1080","","","","","","",""
"true","","","","","fullscreen","3","1436807","0.0-3.0","1920x1080","13:41 26/5/2022","","","","","",""
"","","","","","survey-html-form","4","1445582","0.0-4.0","1920x1080","","8770.899999976158","{""age"":""19"",""gender"":""Female""}","","","",""
"","","","","","html-button-response","5","1471262","0.0-5.0","1920x1080","","25679","","<div class=""complex"">You are going to see a series of animations.<br><br></div><div class=""complex"">Move the slider to indicate how <strong style=""text-transform:capitalize"">COMPLEX</strong> you find each animation.<br><br></div><div class=""complex"">0 = Least Complex<br></div><div class=""complex"">1 = Most Complex<br><br></div><div class=""complex"">Remember to use the <strong><em>entire range</em></strong> of the slider to make your ratings.<br></div><div class=""complex"">Please <strong><em>take your time</em></strong> and carefully consider each rating you make.<br><br></div><div class=""complex"">The study has five sections and will take about 45 minutes to complete.<br><br></div>","0","",""
"","","","","","call-function","6","1471263","0.0-6.0","1920x1080","","","","","","",""
"","","","","","animation","7","1503598","0.0-7.0","1920x1080","","32332","89.68","img/314/2.5/0.66667/bw/001.png","","","complex"
"","","","","","animation","8","1517789","0.0-8.0","1920x1080","","14190.800000011921","19.71","img/314/5.5/1/bw/001.png","","","complex"
"","","","","","animation","9","1530373","0.0-9.0","1920x1080","","12583","80.29","img/314/2.5/2/bw/001.png","","","complex"
"","","","","","animation","10","1551126","0.0-10.0","1920x1080","","20751.200000047684","26","img/238/4.5/1/bw/001.png","","","complex"
"","","","","","animation","11","1563798","0.0-11.0","1920x1080","","12670.300000011921","49.87","img/314/4/1.5/bw/001.png","","","complex"
"","","","","","animation","12","1578062","0.0-12.0","1920x1080","","14262.700000047684","66.14","img/238/2.5/1.5/bw/001.png","","","complex"
"","","","","","animation","13","1594302","0.0-13.0","1920x1080","","16238.799999952316","10","img/117/5.5/2/bw/001.png","","","complex"
"","","","","","animation","14","1614118","0.0-14.0","1920x1080","","19815.19999998808","78","img/238/2.5/0.66667/bw/001.png","","","complex"
"","","","","","animation","15","1623006","0.0-15.0","1920x1080","","8887.100000023842","67.59","img/238/3.5/2/bw/001.png","","","complex"
"","","","","","animation","16","1633534","0.0-16.0","1920x1080","","10526.899999976158","13","img/238/5.5/1.5/bw/001.png","","","complex"
"","","","","","animation","17","1644422","0.0-17.0","1920x1080","","10887","44.71","img/238/3.5/0.5/bw/001.png","","","complex"
"","","","","","animation","18","1650414","0.0-18.0","1920x1080","","5990.899999976158","80.82","img/117/2.5/0.66667/bw/001.png","","","complex"
"","","","","","animation","19","1664174","0.0-19.0","1920x1080","","13759.399999976158","13","img/238/5.5/2/bw/001.png","","","complex"
"","","","","","animation","20","1687126","0.0-20.0","1920x1080","","22951.200000047684","34.92","img/117/4/2/bw/001.png","","","complex"
"","","","","","animation","21","1693182","0.0-21.0","1920x1080","","6054.799999952316","44.58","img/117/3.5/1.5/bw/001.png","","","complex"
"","","","","","animation","22","1699334","0.0-22.0","1920x1080","","6151.399999976158","47.35","img/117/3.5/2/bw/001.png","","","complex"
"","","","","","animation","23","1709094","0.0-23.0","1920x1080","","9759.300000011921","54","img/314/4/0.66667/bw/001.png","","","complex"
"","","","","","animation","24","1716278","0.0-24.0","1920x1080","","7182.799999952316","27.38","img/314/5.5/0.5/bw/001.png","","","complex"
"","","","","","animation","25","1724070","0.0-25.0","1920x1080","","7791.100000023842","74.87","img/238/3.5/0.66667/bw/001.png","","","complex"
"","","","","","animation","26","1733254","0.0-26.0","1920x1080","","9183.399999976158","65.34","img/117/4.5/0.5/bw/001.png","","","complex"
"","","","","","animation","27","1738718","0.0-27.0","1920x1080","","5463.100000023842","8.47","img/117/5.5/1.5/bw/001.png","","","complex"
"","","","","","animation","28","1748350","0.0-28.0","1920x1080","","9631","65.34","img/117/3.5/0.66667/bw/001.png","","","complex"
"","","","","","animation","29","1756486","0.0-29.0","1920x1080","","8134.800000011921","42.72","img/117/4.5/2/bw/001.png","","","complex"
"","","","","","animation","30","1766758","0.0-30.0","1920x1080","","10272","89","img/238/2.5/1/bw/001.png","","","complex"
"","","","","","animation","31","1771879","0.0-31.0","1920x1080","","5119.399999976158","72.35","img/117/4.5/0.66667/bw/001.png","","","complex"
"","","","","","animation","32","1777919","0.0-32.0","1920x1080","","6038.899999976158","68.92","img/314/4.5/0.66667/bw/001.png","","","complex"
"","","","","","animation","33","1787144","0.0-33.0","1920x1080","","9224.199999988079","38.62","img/238/4/1.5/bw/001.png","","","complex"
"","","","","","animation","34","1799470","0.0-34.0","1920x1080","","12325.800000011921","91.67","img/238/2.5/2/bw/001.png","","","complex"
"","","","","","animation","35","1804830","0.0-35.0","1920x1080","","5358.299999952316","82.54","img/238/3.5/1/bw/001.png","","","complex"
"","","","","","animation","36","1808262","0.0-36.0","1920x1080","","3431.099999964237","95","img/117/2.5/0.5/bw/001.png","","","complex"
"","","","","","animation","37","1813719","0.0-37.0","1920x1080","","5455.899999976158","31.08","img/117/4.5/1/bw/001.png","","","complex"
"","","","","","animation","38","1819023","0.0-38.0","1920x1080","","5303.300000011921","56.48","img/314/3.5/1.5/bw/001.png","","","complex"
"","","","","","animation","39","1823439","0.0-39.0","1920x1080","","4414.900000035763","39.95","img/238/4/1/bw/001.png","","","complex"
"","","","","","animation","40","1831150","0.0-40.0","1920x1080","","7710.699999988079","45.50","img/117/4/1/bw/001.png","","","complex"
"","","","","","animation","41","1854519","0.0-41.0","1920x1080","","23366.80000001192","32.41","img/238/4/2/bw/001.png","","","complex"
"","","","","","animation","42","1872055","0.0-42.0","1920x1080","","17532.5","44.71","img/117/4/0.66667/bw/001.png","","","complex"
"","","","","","animation","43","1885935","0.0-43.0","1920x1080","","13879.300000011921","56","img/314/3.5/1/bw/001.png","","","complex"
"","","","","","animation","44","1891647","0.0-44.0","1920x1080","","5710.900000035763","27.25","img/238/4.5/1.5/bw/001.png","","","complex"
"","","","","","animation","45","1896161","0.0-45.0","1920x1080","","4513.699999988079","19.18","img/238/5.5/0.66667/bw/001.png","","","complex"
"","","","","","animation","46","1901439","0.0-46.0","1920x1080","","5277.199999988079","76.72","img/314/3.5/0.66667/bw/001.png","","","complex"
"","","","","","animation","47","1907223","0.0-47.0","1920x1080","","5783.400000035763","79.76","img/238/4/0.66667/bw/001.png","","","complex"
"","","","","","animation","48","1913271","0.0-48.0","1920x1080","","6047.099999964237","66.27","img/314/4/1/bw/001.png","","","complex"
"","","","","","animation","49","1919024","0.0-49.0","1920x1080","","5750.799999952316","41.53","img/314/4.5/1/bw/001.png","","","complex"
"","","","","","animation","50","1925200","0.0-50.0","1920x1080","","6174.399999976158","75.79","img/117/4/0.5/bw/001.png","","","complex"
"","","","","","animation","51","1931416","0.0-51.0","1920x1080","","6214.899999976158","15.21","img/314/5.5/1.5/bw/001.png","","","complex"
"","","","","","animation","52","1937913","0.0-52.0","1920x1080","","6496.099999964237","37","img/238/4.5/0.5/bw/001.png","","","complex"
"","","","","","animation","53","1944688","0.0-53.0","1920x1080","","6774.199999988079","49.87","img/238/3.5/1.5/bw/001.png","","","complex"
"","","","","","animation","54","1959656","0.0-54.0","1920x1080","","14966.800000011921","42.06","img/238/4.5/0.66667/bw/001.png","","","complex"
"","","","","","animation","55","1965129","0.0-55.0","1920x1080","","5472.300000011921","65.21","img/117/3.5/0.5/bw/001.png","","","complex"
"","","","","","animation","56","1981608","0.0-56.0","1920x1080","","16477.69999998808","33.86","img/117/5.5/0.66667/bw/001.png","","","complex"
"","","","","","animation","57","1985568","0.0-57.0","1920x1080","","3958.5","35.05","img/314/5.5/0.66667/bw/001.png","","","complex"
"","","","","","animation","58","1989040","0.0-58.0","1920x1080","","3471.199999988079","90.34","img/314/2.5/1.5/bw/001.png","","","complex"
"","","","","","animation","59","1994896","0.0-59.0","1920x1080","","5854.400000035763","47.62","img/117/4/1.5/bw/001.png","","","complex"
"","","","","","animation","60","2001456","0.0-60.0","1920x1080","","6559.600000023842","62.83","img/314/4/0.5/bw/001.png","","","complex"
"","","","","","animation","61","2007864","0.0-61.0","1920x1080","","6406.5","36.90","img/117/5.5/0.5/bw/001.png","","","complex"
"","","","","","animation","62","2016192","0.0-62.0","1920x1080","","8327","19.58","img/314/4.5/2/bw/001.png","","","complex"
"","","","","","animation","63","2020720","0.0-63.0","1920x1080","","4526.5","88.76","img/117/2.5/1.5/bw/001.png","","","complex"
"","","","","","animation","64","2031216","0.0-64.0","1920x1080","","10494.400000035763","23.54","img/314/4/2/bw/001.png","","","complex"
"","","","","","animation","65","2039656","0.0-65.0","1920x1080","","8439.300000011921","67.33","img/238/4/0.5/bw/001.png","","","complex"
"","","","","","animation","66","2049946","0.0-66.0","1920x1080","","10288.899999976158","94.58","img/314/2.5/1/bw/001.png","","","complex"
"","","","","","animation","67","2057113","0.0-67.0","1920x1080","","7165.199999988079","10","img/314/5.5/2/bw/001.png","","","complex"
"","","","","","animation","68","2061363","0.0-68.0","1920x1080","","4248.399999976158","95","img/117/2.5/1/bw/001.png","","","complex"
"","","","","","animation","69","2068856","0.0-69.0","1920x1080","","7492.399999976158","30.03","img/117/4.5/1.5/bw/001.png","","","complex"
"","","","","","animation","70","2073395","0.0-70.0","1920x1080","","4538.199999988079","7.80","img/238/5.5/1/bw/001.png","","","complex"
"","","","","","animation","71","2081996","0.0-71.0","1920x1080","","8598.5","17.06","img/238/4.5/2/bw/001.png","","","complex"
"","","","","","animation","72","2087568","0.0-72.0","1920x1080","","5570.100000023842","69.97","img/314/3.5/0.5/bw/001.png","","","complex"
"","","","","","animation","73","2095163","0.0-73.0","1920x1080","","7593.100000023842","29","img/238/5.5/0.5/bw/001.png","","","complex"
"","","","","","animation","74","2101249","0.0-74.0","1920x1080","","6084.899999976158","89.68","img/238/2.5/0.5/bw/001.png","","","complex"
"","","","","","animation","75","2107441","0.0-75.0","1920x1080","","6191.300000011921","86.24","img/117/2.5/2/bw/001.png","","","complex"
"","","","","","animation","76","2118049","0.0-76.0","1920x1080","","10606.699999988079","49.34","img/314/3.5/2/bw/001.png","","","complex"
"","","","","","animation","77","2127521","0.0-77.0","1920x1080","","9470.400000035763","57","img/117/3.5/1/bw/001.png","","","complex"
"","","","","","animation","78","2136001","0.0-78.0","1920x1080","","8478.900000035763","84","img/314/2.5/0.5/bw/001.png","","","complex"
"","","","","","animation","79","2147513","0.0-79.0","1920x1080","","11511.099999964237","42.46","img/314/4.5/0.5/bw/001.png","","","complex"
"","","","","","animation","80","2154473","0.0-80.0","1920x1080","","6959","21.69","img/117/5.5/1/bw/001.png","","","complex"
"","","","","","animation","81","2161705","0.0-81.0","1920x1080","","7231.100000023842","16.14","img/314/4.5/1.5/bw/001.png","","","complex"
"","","","","","html-button-response","82","2195298","0.0-82.0","1920x1080","","33591.200000047684","","<div class=""intro"">You are about to view a new series of animations.<br><br></div><div class=""intro"">You will evaluate them based on a different descriptor.<br><br></div><div class=""intro"">Move the slider to indicate how <strong style=""text-transform:capitalize"">RELAXING</strong> you find each animation.<br><br></div><div class=""intro"">0 = Least Relaxing<br></div><div class=""intro"">1 = Most Relaxing<br><br></div><div class=""intro"">Remember to use the <strong><em>entire range</em></strong> of the slider to make your ratings.<br></div><div class=""intro"">Please <strong><em>take your time</em></strong> and carefully consider each rating you make.<br><br></div>","0","",""
"","","","","","call-function","83","2195302","0.0-83.0","1920x1080","","","","","","",""
"","","","","","animation","84","2200841","0.0-84.0","1920x1080","","5538.800000011921","7.41","img/238/2.5/1/bw/001.png","","","relaxing"
"","","","","","animation","85","2214673","0.0-85.0","1920x1080","","13830.699999988079","80","img/238/4.5/2/bw/001.png","","","relaxing"
"","","","","","animation","86","2220996","0.0-86.0","1920x1080","","6321.899999976158","76.85","img/314/4.5/2/bw/001.png","","","relaxing"
"","","","","","animation","87","2228721","0.0-87.0","1920x1080","","7723.299999952316","23.94","img/238/3.5/1.5/bw/001.png","","","relaxing"
"","","","","","animation","88","2238563","0.0-88.0","1920x1080","","9841.199999988079","30.82","img/117/4.5/0.66667/bw/001.png","","","relaxing"
"","","","","","animation","89","2253113","0.0-89.0","1920x1080","","14547.199999988079","68.25","img/238/4/2/bw/001.png","","","relaxing"
"","","","","","animation","90","2262105","0.0-90.0","1920x1080","","8988.099999964237","4","img/314/2.5/0.5/bw/001.png","","","relaxing"
"","","","","","animation","91","2267329","0.0-91.0","1920x1080","","5223","6","img/117/2.5/1.5/bw/001.png","","","relaxing"
"","","","","","animation","92","2273665","0.0-92.0","1920x1080","","6334.799999952316","51.46","img/314/5.5/0.5/bw/001.png","","","relaxing"
"","","","","","animation","93","2279321","0.0-93.0","1920x1080","","5655.399999976158","26.59","img/117/4/0.66667/bw/001.png","","","relaxing"
"","","","","","animation","94","2295012","0.0-94.0","1920x1080","","15689.300000011921","91.67","img/117/5.5/2/bw/001.png","","","relaxing"
"","","","","","animation","95","2302265","0.0-95.0","1920x1080","","7249.899999976158","7","img/314/2.5/0.66667/bw/001.png","","","relaxing"
"","","","","","animation","96","2305362","0.0-96.0","1920x1080","","3096.699999988079","5.95","img/117/2.5/0.66667/bw/001.png","","","relaxing"
"","","","","","animation","97","2316521","0.0-97.0","1920x1080","","11157.699999988079","74","img/314/5.5/0.66667/bw/001.png","","","relaxing"
"","","","","","animation","98","2325369","0.0-98.0","1920x1080","","8846.600000023842","54.63","img/314/4/2/bw/001.png","","","relaxing"
"","","","","","animation","99","2341138","0.0-99.0","1920x1080","","15766.600000023842","39.68","img/238/4/0.66667/bw/001.png","","","relaxing"
"","","","","","animation","100","2346546","0.0-100.0","1920x1080","","5403.600000023842","33.33","img/117/3.5/1/bw/001.png","","","relaxing"
"","","","","","animation","101","2351274","0.0-101.0","1920x1080","","4727.400000035763","35.45","img/314/3.5/1.5/bw/001.png","","","relaxing"
"","","","","","animation","102","2359579","0.0-102.0","1920x1080","","8303.699999988079","11.38","img/238/2.5/1.5/bw/001.png","","","relaxing"
"","","","","","animation","103","2378850","0.0-103.0","1920x1080","","19270.099999964237","84.79","img/117/5.5/1/bw/001.png","","","relaxing"
"","","","","","animation","104","2385970","0.0-104.0","1920x1080","","7118.599999964237","80.29","img/117/5.5/0.66667/bw/001.png","","","relaxing"
"","","","","","animation","105","2393290","0.0-105.0","1920x1080","","7318.900000035763","65.34","img/117/4/2/bw/001.png","","","relaxing"
"","","","","","animation","106","2398738","0.0-106.0","1920x1080","","5446.899999976158","16.27","img/314/2.5/1.5/bw/001.png","","","relaxing"
"","","","","","animation","107","2404946","0.0-107.0","1920x1080","","6206.899999976158","9.66","img/117/3.5/0.66667/bw/001.png","","","relaxing"
"","","","","","animation","108","2409986","0.0-108.0","1920x1080","","5038.899999976158","18.92","img/314/4.5/0.5/bw/001.png","","","relaxing"
"","","","","","animation","109","2420738","0.0-109.0","1920x1080","","10750.799999952316","29","img/314/3.5/2/bw/001.png","","","relaxing"
"","","","","","animation","110","2425002","0.0-110.0","1920x1080","","4262.699999988079","20.11","img/238/3.5/0.66667/bw/001.png","","","relaxing"
"","","","","","animation","111","2439002","0.0-111.0","1920x1080","","13998.599999964237","37.83","img/314/4.5/0.66667/bw/001.png","","","relaxing"
"","","","","","animation","112","2444845","0.0-112.0","1920x1080","","5842.399999976158","53.44","img/117/5.5/0.5/bw/001.png","","","relaxing"
"","","","","","animation","113","2447738","0.0-113.0","1920x1080","","2891.099999964237","1.59","img/238/2.5/0.66667/bw/001.png","","","relaxing"
"","","","","","animation","114","2456029","0.0-114.0","1920x1080","","8289.899999976158","77","img/117/4.5/1.5/bw/001.png","","","relaxing"
"","","","","","animation","115","2461179","0.0-115.0","1920x1080","","5148.600000023842","6.22","img/314/2.5/2/bw/001.png","","","relaxing"
"","","","","","animation","116","2467446","0.0-116.0","1920x1080","","6265.799999952316","13","img/314/4/0.5/bw/001.png","","","relaxing"
"","","","","","animation","117","2474796","0.0-117.0","1920x1080","","7348.899999976158","0","img/117/2.5/0.5/bw/001.png","","","relaxing"
"","","","","","animation","118","2482274","0.0-118.0","1920x1080","","7477.300000011921","100","img/314/5.5/2/bw/001.png","","","relaxing"
"","","","","","animation","119","2508954","0.0-119.0","1920x1080","","26678.899999976158","50.13","img/117/4/1/bw/001.png","","","relaxing"
"","","","","","animation","120","2515197","0.0-120.0","1920x1080","","6240.400000035763","41.67","img/117/3.5/2/bw/001.png","","","relaxing"
"","","","","","animation","121","2526996","0.0-121.0","1920x1080","","11798.399999976158","100","img/238/5.5/2/bw/001.png","","","relaxing"
"","","","","","animation","122","2532547","0.0-122.0","1920x1080","","5549.5","1","img/117/2.5/1/bw/001.png","","","relaxing"
"","","","","","animation","123","2535263","0.0-123.0","1920x1080","","2715.2999999523163","5.42","img/238/2.5/2/bw/001.png","","","relaxing"
"","","","","","animation","124","2540067","0.0-124.0","1920x1080","","4803","19.84","img/238/3.5/1/bw/001.png","","","relaxing"
"","","","","","animation","125","2548323","0.0-125.0","1920x1080","","8255.199999988079","73.28","img/117/4.5/2/bw/001.png","","","relaxing"
"","","","","","animation","126","2553715","0.0-126.0","1920x1080","","5389.599999964237","80.29","img/314/5.5/1/bw/001.png","","","relaxing"
"","","","","","animation","127","2560198","0.0-127.0","1920x1080","","6482.299999952316","89.42","img/314/5.5/1.5/bw/001.png","","","relaxing"
"","","","","","animation","128","2572635","0.0-128.0","1920x1080","","12436.100000023842","19","img/314/3.5/0.66667/bw/001.png","","","relaxing"
"","","","","","animation","129","2578491","0.0-129.0","1920x1080","","5855","14","img/238/4.5/0.5/bw/001.png","","","relaxing"
"","","","","","animation","130","2583003","0.0-130.0","1920x1080","","4511.100000023842","1.98","img/238/2.5/0.5/bw/001.png","","","relaxing"
"","","","","","animation","131","2594539","0.0-131.0","1920x1080","","11534.199999988079","34.92","img/238/4/1/bw/001.png","","","relaxing"
"","","","","","animation","132","2598683","0.0-132.0","1920x1080","","4142.300000011921","40.87","img/314/4.5/1/bw/001.png","","","relaxing"
"","","","","","animation","133","2605299","0.0-133.0","1920x1080","","6614.900000035763","25.93","img/314/3.5/1/bw/001.png","","","relaxing"
"","","","","","animation","134","2608315","0.0-134.0","1920x1080","","3013.7999999523163","16.27","img/238/3.5/0.5/bw/001.png","","","relaxing"
"","","","","","animation","135","2612546","0.0-135.0","1920x1080","","4230.800000011921","33.33","img/314/4/1.5/bw/001.png","","","relaxing"
"","","","","","animation","136","2621530","0.0-136.0","1920x1080","","8983.100000023842","89.68","img/238/5.5/1.5/bw/001.png","","","relaxing"
"","","","","","animation","137","2634295","0.0-137.0","1920x1080","","12762.800000011921","38.49","img/238/5.5/0.5/bw/001.png","","","relaxing"
"","","","","","animation","138","2640683","0.0-138.0","1920x1080","","6386.300000011921","24.60","img/117/4.5/0.5/bw/001.png","","","relaxing"
"","","","","","animation","139","2645339","0.0-139.0","1920x1080","","4655.400000035763","64.81","img/117/4.5/1/bw/001.png","","","relaxing"
"","","","","","animation","140","2651123","0.0-140.0","1920x1080","","5782.399999976158","55.42","img/238/4.5/1/bw/001.png","","","relaxing"
"","","","","","animation","141","2660331","0.0-141.0","1920x1080","","9205.900000035763","87.30","img/238/5.5/0.66667/bw/001.png","","","relaxing"
"","","","","","animation","142","2672079","0.0-142.0","1920x1080","","11747.099999964237","76.85","img/238/4.5/1.5/bw/001.png","","","relaxing"
"","","","","","animation","143","2685829","0.0-143.0","1920x1080","","13749","30.42","img/314/4/1/bw/001.png","","","relaxing"
"","","","","","animation","144","2692531","0.0-144.0","1920x1080","","6700.799999952316","32.14","img/238/3.5/2/bw/001.png","","","relaxing"
"","","","","","animation","145","2701613","0.0-145.0","1920x1080","","9080.899999976158","71","img/314/4.5/1.5/bw/001.png","","","relaxing"
"","","","","","animation","146","2706067","0.0-146.0","1920x1080","","4453.300000011921","69.18","img/238/4/1.5/bw/001.png","","","relaxing"
"","","","","","animation","147","2711264","0.0-147.0","1920x1080","","5195.699999988079","94.97","img/117/5.5/1.5/bw/001.png","","","relaxing"
"","","","","","animation","148","2715863","0.0-148.0","1920x1080","","4596.100000023842","96","img/238/5.5/1/bw/001.png","","","relaxing"
"","","","","","animation","149","2719820","0.0-149.0","1920x1080","","3955.600000023842","15.74","img/238/4.5/0.66667/bw/001.png","","","relaxing"
"","","","","","animation","150","2726124","0.0-150.0","1920x1080","","6302.699999988079","2.91","img/314/3.5/0.5/bw/001.png","","","relaxing"
"","","","","","animation","151","2731220","0.0-151.0","1920x1080","","5094.600000023842","20.63","img/117/4/1.5/bw/001.png","","","relaxing"
"","","","","","animation","152","2738915","0.0-152.0","1920x1080","","7693.799999952316","27","img/117/3.5/1.5/bw/001.png","","","relaxing"
"","","","","","animation","153","2744331","0.0-153.0","1920x1080","","5414.899999976158","3","img/117/2.5/2/bw/001.png","","","relaxing"
"","","","","","animation","154","2746883","0.0-154.0","1920x1080","","2551","-2.12","img/314/2.5/1/bw/001.png","","","relaxing"
"","","","","","animation","155","2752036","0.0-155.0","1920x1080","","5151.399999976158","3.70","img/117/4/0.5/bw/001.png","","","relaxing"
"","","","","","animation","156","2757316","0.0-156.0","1920x1080","","5278.399999976158","3","img/117/3.5/0.5/bw/001.png","","","relaxing"
"","","","","","animation","157","2761220","0.0-157.0","1920x1080","","3903.5","6.08","img/314/4/0.66667/bw/001.png","","","relaxing"
"","","","","","animation","158","2764364","0.0-158.0","1920x1080","","3142.699999988079","4.63","img/238/4/0.5/bw/001.png","","","relaxing"
"","","","","","html-button-response","159","2812509","0.0-159.0","1920x1080","","48143.30000001192","","<div class=""intro"">You are about to view a new series of animations.<br><br></div><div class=""intro"">You will evaluate them based on a different descriptor.<br><br></div><div class=""intro"">Move the slider to indicate how <strong style=""text-transform:capitalize"">APPEALING</strong> you find each animation.<br><br></div><div class=""intro"">0 = Least Appealing<br></div><div class=""intro"">1 = Most Appealing<br><br></div><div class=""intro"">Remember to use the <strong><em>entire range</em></strong> of the slider to make your ratings.<br></div><div class=""intro"">Please <strong><em>take your time</em></strong> and carefully consider each rating you make.<br><br></div>","0","",""
"","","","","","call-function","160","2812513","0.0-160.0","1920x1080","","","","","","",""
"","","","","","animation","161","2820741","0.0-161.0","1920x1080","","8226.699999988079","31.75","img/117/3.5/1.5/bw/001.png","","","appealing"
"","","","","","animation","162","2832301","0.0-162.0","1920x1080","","11558.400000035763","84","img/117/5.5/2/bw/001.png","","","appealing"
"","","","","","animation","163","2840141","0.0-163.0","1920x1080","","7837.800000011921","55","img/238/4.5/0.5/bw/001.png","","","appealing"
"","","","","","animation","164","2847063","0.0-164.0","1920x1080","","6920.300000011921","11.64","img/238/2.5/0.5/bw/001.png","","","appealing"
"","","","","","animation","165","2849964","0.0-165.0","1920x1080","","2899.800000011921","14.15","img/117/2.5/0.66667/bw/001.png","","","appealing"
"","","","","","animation","166","2876113","0.0-166.0","1920x1080","","26148.30000001192","25.53","img/314/4/0.5/bw/001.png","","","appealing"
"","","","","","animation","167","2881541","0.0-167.0","1920x1080","","5423.200000047684","90.21","img/238/5.5/1.5/bw/001.png","","","appealing"
"","","","","","animation","168","2891372","0.0-168.0","1920x1080","","9829.699999988079","81.22","img/117/5.5/0.5/bw/001.png","","","appealing"
"","","","","","animation","169","2896730","0.0-169.0","1920x1080","","5354.400000035763","77.25","img/238/4.5/0.66667/bw/001.png","","","appealing"
"","","","","","animation","170","2902053","0.0-170.0","1920x1080","","5321.800000011921","60.71","img/314/3.5/1.5/bw/001.png","","","appealing"
"","","","","","animation","171","2913748","0.0-171.0","1920x1080","","11694.300000011921","42.06","img/314/3.5/0.5/bw/001.png","","","appealing"
"","","","","","animation","172","2917405","0.0-172.0","1920x1080","","3652.300000011921","35.85","img/117/3.5/0.66667/bw/001.png","","","appealing"
"","","","","","animation","173","2926722","0.0-173.0","1920x1080","","9316.600000023842","23","img/314/2.5/0.66667/bw/001.png","","","appealing"
"","","","","","animation","174","2933997","0.0-174.0","1920x1080","","7270.199999988079","97","img/117/4.5/2/bw/001.png","","","appealing"
"","","","","","animation","175","2945204","0.0-175.0","1920x1080","","11206.400000035763","88.62","img/314/5.5/1.5/bw/001.png","","","appealing"
"","","","","","animation","176","2952513","0.0-176.0","1920x1080","","7303.300000011921","87.04","img/117/5.5/0.66667/bw/001.png","","","appealing"
"","","","","","animation","177","2957513","0.0-177.0","1920x1080","","4998","89.68","img/314/5.5/1/bw/001.png","","","appealing"
"","","","","","animation","178","2962469","0.0-178.0","1920x1080","","4954","84.52","img/238/4.5/1.5/bw/001.png","","","appealing"
"","","","","","animation","179","2967130","0.0-179.0","1920x1080","","4660.100000023842","10.05","img/117/2.5/1/bw/001.png","","","appealing"
"","","","","","animation","180","2971773","0.0-180.0","1920x1080","","4641","94","img/238/5.5/0.5/bw/001.png","","","appealing"
"","","","","","animation","181","2978757","0.0-181.0","1920x1080","","6982.800000011921","29","img/314/4/0.66667/bw/001.png","","","appealing"
"","","","","","animation","182","2983853","0.0-182.0","1920x1080","","5094.800000011921","52.38","img/314/4.5/1.5/bw/001.png","","","appealing"
"","","","","","animation","183","2991699","0.0-183.0","1920x1080","","7845.399999976158","66.14","img/238/4/2/bw/001.png","","","appealing"
"","","","","","animation","184","3021197","0.0-184.0","1920x1080","","29494.299999952316","61.77","img/238/4/1/bw/001.png","","","appealing"
"","","","","","animation","185","3025880","0.0-185.0","1920x1080","","4681.900000035763","14.95","img/238/2.5/0.66667/bw/001.png","","","appealing"
"","","","","","animation","186","3030949","0.0-186.0","1920x1080","","5067.300000011921","33.73","img/117/4/2/bw/001.png","","","appealing"
"","","","","","animation","187","3047747","0.0-187.0","1920x1080","","16796.69999998808","25.00","img/238/3.5/1/bw/001.png","","","appealing"
"","","","","","animation","188","3051747","0.0-188.0","1920x1080","","3995","75.26","img/314/5.5/0.5/bw/001.png","","","appealing"
"","","","","","animation","189","3057431","0.0-189.0","1920x1080","","5682.399999976158","79.10","img/314/5.5/0.66667/bw/001.png","","","appealing"
"","","","","","animation","190","3073197","0.0-190.0","1920x1080","","15765.299999952316","85","img/238/4.5/2/bw/001.png","","","appealing"
"","","","","","animation","191","3076949","0.0-191.0","1920x1080","","3749.2999999523163","4.63","img/238/3.5/0.5/bw/001.png","","","appealing"
"","","","","","animation","192","3081947","0.0-192.0","1920x1080","","4996.300000011921","4","img/314/2.5/1.5/bw/001.png","","","appealing"
"","","","","","animation","193","3085831","0.0-193.0","1920x1080","","3881.599999964237","2.38","img/314/2.5/2/bw/001.png","","","appealing"
"","","","","","animation","194","3093381","0.0-194.0","1920x1080","","7548.899999976158","23","img/238/4/1.5/bw/001.png","","","appealing"
"","","","","","animation","195","3109280","0.0-195.0","1920x1080","","15897.900000035763","17.59","img/314/3.5/1/bw/001.png","","","appealing"
"","","","","","animation","196","3116698","0.0-196.0","1920x1080","","7415.600000023842","12.30","img/314/3.5/0.66667/bw/001.png","","","appealing"
"","","","","","animation","197","3121022","0.0-197.0","1920x1080","","4323.299999952316","6.88","img/238/2.5/2/bw/001.png","","","appealing"
"","","","","","animation","198","3131581","0.0-198.0","1920x1080","","10557","85.05","img/238/5.5/2/bw/001.png","","","appealing"
"","","","","","animation","199","3138518","0.0-199.0","1920x1080","","6936.100000023842","85.85","img/117/4.5/1.5/bw/001.png","","","appealing"
"","","","","","animation","200","3145214","0.0-200.0","1920x1080","","6694.800000011921","81.08","img/238/4.5/1/bw/001.png","","","appealing"
"","","","","","animation","201","3151298","0.0-201.0","1920x1080","","6080.599999964237","59.79","img/117/4/1/bw/001.png","","","appealing"
"","","","","","animation","202","3158038","0.0-202.0","1920x1080","","6739.299999952316","54.63","img/314/3.5/2/bw/001.png","","","appealing"
"","","","","","animation","203","3162854","0.0-203.0","1920x1080","","4814.899999976158","0","img/314/2.5/0.5/bw/001.png","","","appealing"
"","","","","","animation","204","3168264","0.0-204.0","1920x1080","","5408.099999964237","13.23","img/314/4/1/bw/001.png","","","appealing"
"","","","","","animation","205","3196231","0.0-205.0","1920x1080","","27965.099999964237","51.06","img/117/4/1.5/bw/001.png","","","appealing"
"","","","","","animation","206","3200238","0.0-206.0","1920x1080","","4006.2999999523163","44.84","img/314/4.5/0.5/bw/001.png","","","appealing"
"","","","","","animation","207","3226839","0.0-207.0","1920x1080","","26598.899999976158","13","img/117/4/0.5/bw/001.png","","","appealing"
"","","","","","animation","208","3234902","0.0-208.0","1920x1080","","8062.600000023842","80","img/314/5.5/2/bw/001.png","","","appealing"
"","","","","","animation","209","3238647","0.0-209.0","1920x1080","","3743.599999964237","7.01","img/238/2.5/1.5/bw/001.png","","","appealing"
"","","","","","animation","210","3243454","0.0-210.0","1920x1080","","4805.5","10.58","img/238/4/0.66667/bw/001.png","","","appealing"
"","","","","","animation","211","3246747","0.0-211.0","1920x1080","","3288.800000011921","2.65","img/117/2.5/1.5/bw/001.png","","","appealing"
"","","","","","animation","212","3251281","0.0-212.0","1920x1080","","4532","8.33","img/117/4.5/0.5/bw/001.png","","","appealing"
"","","","","","animation","213","3254431","0.0-213.0","1920x1080","","3148.900000035763","8.99","img/314/4.5/0.66667/bw/001.png","","","appealing"
"","","","","","animation","214","3259947","0.0-214.0","1920x1080","","5515.600000023842","87.96","img/238/5.5/1/bw/001.png","","","appealing"
"","","","","","animation","215","3266638","0.0-215.0","1920x1080","","6688.699999988079","2","img/238/2.5/1/bw/001.png","","","appealing"
"","","","","","animation","216","3270270","0.0-216.0","1920x1080","","3630.699999988079","6.08","img/238/3.5/0.66667/bw/001.png","","","appealing"
"","","","","","animation","217","3276686","0.0-217.0","1920x1080","","6414.200000047684","70.77","img/117/4.5/1/bw/001.png","","","appealing"
"","","","","","animation","218","3283550","0.0-218.0","1920x1080","","6862.400000035763","81.08","img/314/4/2/bw/001.png","","","appealing"
"","","","","","animation","219","3291038","0.0-219.0","1920x1080","","7485.5","89.81","img/314/4.5/2/bw/001.png","","","appealing"
"","","","","","animation","220","3323664","0.0-220.0","1920x1080","","32623.700000047684","41.93","img/117/3.5/1/bw/001.png","","","appealing"
"","","","","","animation","221","3331214","0.0-221.0","1920x1080","","7549.099999964237","85.85","img/117/5.5/1/bw/001.png","","","appealing"
"","","","","","animation","222","3337414","0.0-222.0","1920x1080","","6198.699999988079","79.23","img/314/4/1.5/bw/001.png","","","appealing"
"","","","","","animation","223","3343886","0.0-223.0","1920x1080","","6470.300000011921","73.02","img/238/3.5/1.5/bw/001.png","","","appealing"
"","","","","","animation","224","3347782","0.0-224.0","1920x1080","","3894.099999964237","24.87","img/117/4/0.66667/bw/001.png","","","appealing"
"","","","","","animation","225","3352902","0.0-225.0","1920x1080","","5119.100000023842","6.61","img/314/2.5/1/bw/001.png","","","appealing"
"","","","","","animation","226","3359566","0.0-226.0","1920x1080","","6661.800000011921","9","img/238/4/0.5/bw/001.png","","","appealing"
"","","","","","animation","227","3371550","0.0-227.0","1920x1080","","11982.199999988079","8.20","img/117/3.5/0.5/bw/001.png","","","appealing"
"","","","","","animation","228","3382831","0.0-228.0","1920x1080","","11276.800000011921","43","img/117/4.5/0.66667/bw/001.png","","","appealing"
"","","","","","animation","229","3388670","0.0-229.0","1920x1080","","5838.100000023842","65.21","img/238/3.5/2/bw/001.png","","","appealing"
"","","","","","animation","230","3392623","0.0-230.0","1920x1080","","3950.599999964237","68.12","img/117/3.5/2/bw/001.png","","","appealing"
"","","","","","animation","231","3398380","0.0-231.0","1920x1080","","5756.399999976158","3.57","img/117/2.5/0.5/bw/001.png","","","appealing"
"","","","","","animation","232","3405271","0.0-232.0","1920x1080","","6887.900000035763","70","img/314/4.5/1/bw/001.png","","","appealing"
"","","","","","animation","233","3435480","0.0-233.0","1920x1080","","30208","96","img/117/5.5/1.5/bw/001.png","","","appealing"
"","","","","","animation","234","3440303","0.0-234.0","1920x1080","","4821.199999988079","5","img/117/2.5/2/bw/001.png","","","appealing"
"","","","","","animation","235","3444655","0.0-235.0","1920x1080","","4350.599999964237","85.05","img/238/5.5/0.66667/bw/001.png","","","appealing"
"","","","","","html-button-response","236","3528447","0.0-236.0","1920x1080","","83790.10000002384","","<div class=""intro"">You are about to view a new series of animations.<br><br></div><div class=""intro"">You will evaluate them based on a different descriptor.<br><br></div><div class=""intro"">Move the slider to indicate how <strong style=""text-transform:capitalize"">INTERESTING</strong> you find each animation.<br><br></div><div class=""intro"">0 = Least Interesting<br></div><div class=""intro"">1 = Most Interesting<br><br></div><div class=""intro"">Remember to use the <strong><em>entire range</em></strong> of the slider to make your ratings.<br></div><div class=""intro"">Please <strong><em>take your time</em></strong> and carefully consider each rating you make.<br><br></div>","0","",""
"","","","","","call-function","237","3528451","0.0-237.0","1920x1080","","","","","","",""
"","","","","","animation","238","3534431","0.0-238.0","1920x1080","","5979.699999988079","91.01","img/117/2.5/1.5/bw/001.png","","","interesting"
"","","","","","animation","239","3540119","0.0-239.0","1920x1080","","5686.300000011921","40.21","img/314/4.5/0.5/bw/001.png","","","interesting"
"","","","","","animation","240","3545130","0.0-240.0","1920x1080","","5009.400000035763","17.20","img/238/5.5/0.5/bw/001.png","","","interesting"
"","","","","","animation","241","3550447","0.0-241.0","1920x1080","","5315.5","73.02","img/314/4/1.5/bw/001.png","","","interesting"
"","","","","","animation","242","3572688","0.0-242.0","1920x1080","","22238.80000001192","84.79","img/117/3.5/0.5/bw/001.png","","","interesting"
"","","","","","animation","243","3579383","0.0-243.0","1920x1080","","6690.400000035763","74.07","img/117/4.5/2/bw/001.png","","","interesting"
"","","","","","animation","244","3583831","0.0-244.0","1920x1080","","4446.700000047684","80.42","img/117/3.5/2/bw/001.png","","","interesting"
"","","","","","animation","245","3588964","0.0-245.0","1920x1080","","5131.199999988079","82.67","img/117/4/1/bw/001.png","","","interesting"
"","","","","","animation","246","3595519","0.0-246.0","1920x1080","","6553.900000035763","93","img/238/2.5/1/bw/001.png","","","interesting"
"","","","","","animation","247","3600584","0.0-247.0","1920x1080","","5063.600000023842","38.36","img/117/5.5/1.5/bw/001.png","","","interesting"
"","","","","","animation","248","3635000","0.0-248.0","1920x1080","","34412.60000002384","88","img/117/4.5/0.5/bw/001.png","","","interesting"
"","","","","","animation","249","3647197","0.0-249.0","1920x1080","","12196.299999952316","58","img/117/5.5/0.5/bw/001.png","","","interesting"
"","","","","","animation","250","3659605","0.0-250.0","1920x1080","","12406.199999988079","92","img/314/3.5/2/bw/001.png","","","interesting"
"","","","","","animation","251","3664464","0.0-251.0","1920x1080","","4856.5","95","img/314/2.5/1/bw/001.png","","","interesting"
"","","","","","animation","252","3668414","0.0-252.0","1920x1080","","3948.899999976158","98","img/117/2.5/0.66667/bw/001.png","","","interesting"
"","","","","","animation","253","3674168","0.0-253.0","1920x1080","","5752.100000023842","10.45","img/238/5.5/1/bw/001.png","","","interesting"
"","","","","","animation","254","3680831","0.0-254.0","1920x1080","","6661.199999988079","89","img/238/3.5/0.5/bw/001.png","","","interesting"
"","","","","","animation","255","3688397","0.0-255.0","1920x1080","","7564.800000011921","78.57","img/117/4.5/1.5/bw/001.png","","","interesting"
"","","","","","animation","256","3706551","0.0-256.0","1920x1080","","18153.099999964237","92","img/117/3.5/1.5/bw/001.png","","","interesting"
"","","","","","animation","257","3711648","0.0-257.0","1920x1080","","5094.300000011921","88.36","img/314/4/2/bw/001.png","","","interesting"
"","","","","","animation","258","3717023","0.0-258.0","1920x1080","","5373","90.87","img/117/3.5/0.66667/bw/001.png","","","interesting"
"","","","","","animation","259","3721153","0.0-259.0","1920x1080","","4127.5","97","img/238/2.5/0.66667/bw/001.png","","","interesting"
"","","","","","animation","260","3728253","0.0-260.0","1920x1080","","7098.300000011921","93.39","img/238/3.5/0.66667/bw/001.png","","","interesting"
"","","","","","animation","261","3732231","0.0-261.0","1920x1080","","3976.800000011921","98","img/314/2.5/2/bw/001.png","","","interesting"
"","","","","","animation","262","3740752","0.0-262.0","1920x1080","","8518.699999988079","96","img/238/2.5/2/bw/001.png","","","interesting"
"","","","","","animation","263","3746473","0.0-263.0","1920x1080","","5718.399999976158","89.15","img/117/4/1.5/bw/001.png","","","interesting"
"","","","","","animation","264","3752103","0.0-264.0","1920x1080","","5627.699999988079","44.31","img/314/5.5/1/bw/001.png","","","interesting"
"","","","","","animation","265","3767169","0.0-265.0","1920x1080","","15063.100000023842","35","img/238/4.5/1/bw/001.png","","","interesting"
"","","","","","animation","266","3776175","0.0-266.0","1920x1080","","9004.5","74","img/238/2.5/0.5/bw/001.png","","","interesting"
"","","","","","animation","267","3781631","0.0-267.0","1920x1080","","5452.300000011921","79.76","img/314/4/1/bw/001.png","","","interesting"
"","","","","","animation","268","3787281","0.0-268.0","1920x1080","","5647.600000023842","82.80","img/117/4/2/bw/001.png","","","interesting"
"","","","","","animation","269","3810698","0.0-269.0","1920x1080","","23415.5","57.67","img/314/4.5/1/bw/001.png","","","interesting"
"","","","","","animation","270","3819086","0.0-270.0","1920x1080","","8386.700000047684","60.45","img/314/4.5/0.66667/bw/001.png","","","interesting"
"","","","","","animation","271","3824481","0.0-271.0","1920x1080","","5393.400000035763","31","img/238/4.5/1.5/bw/001.png","","","interesting"
"","","","","","animation","272","3836220","0.0-272.0","1920x1080","","11736.699999988079","73","img/314/4/0.5/bw/001.png","","","interesting"
"","","","","","animation","273","3841423","0.0-273.0","1920x1080","","5201.900000035763","84","img/117/2.5/0.5/bw/001.png","","","interesting"
"","","","","","animation","274","3849398","0.0-274.0","1920x1080","","7974","32","img/238/5.5/0.66667/bw/001.png","","","interesting"
"","","","","","animation","275","3854698","0.0-275.0","1920x1080","","5298.599999964237","88.76","img/314/3.5/1/bw/001.png","","","interesting"
"","","","","","animation","276","3858635","0.0-276.0","1920x1080","","3935","80.42","img/238/4/2/bw/001.png","","","interesting"
"","","","","","animation","277","3871285","0.0-277.0","1920x1080","","12648.700000047684","91","img/117/4/0.66667/bw/001.png","","","interesting"
"","","","","","animation","278","3875657","0.0-278.0","1920x1080","","4369.799999952316","91.53","img/314/3.5/0.5/bw/001.png","","","interesting"
"","","","","","animation","279","3885340","0.0-279.0","1920x1080","","9681.599999964237","77.78","img/238/4.5/2/bw/001.png","","","interesting"
"","","","","","animation","280","3891931","0.0-280.0","1920x1080","","6588.199999988079","25.00","img/314/5.5/1.5/bw/001.png","","","interesting"
"","","","","","animation","281","3896672","0.0-281.0","1920x1080","","4738.699999988079","30.29","img/314/5.5/0.66667/bw/001.png","","","interesting"
"","","","","","animation","282","3904790","0.0-282.0","1920x1080","","8115.699999988079","79.76","img/117/4/0.5/bw/001.png","","","interesting"
"","","","","","animation","283","3912337","0.0-283.0","1920x1080","","7544.899999976158","96","img/117/2.5/2/bw/001.png","","","interesting"
"","","","","","animation","284","3929553","0.0-284.0","1920x1080","","17212.799999952316","22.75","img/314/4.5/2/bw/001.png","","","interesting"
"","","","","","animation","285","3938417","0.0-285.0","1920x1080","","8863.399999976158","86.77","img/238/3.5/1/bw/001.png","","","interesting"
"","","","","","animation","286","3944171","0.0-286.0","1920x1080","","5751.699999988079","90.34","img/238/3.5/1.5/bw/001.png","","","interesting"
"","","","","","animation","287","3948680","0.0-287.0","1920x1080","","4508.300000011921","89.29","img/238/4/1.5/bw/001.png","","","interesting"
"","","","","","animation","288","3954537","0.0-288.0","1920x1080","","5855.700000047684","95","img/314/3.5/0.66667/bw/001.png","","","interesting"
"","","","","","animation","289","3970648","0.0-289.0","1920x1080","","16108.300000011921","87","img/314/3.5/1.5/bw/001.png","","","interesting"
"","","","","","animation","290","3974834","0.0-290.0","1920x1080","","4184.600000023842","91.01","img/117/2.5/1/bw/001.png","","","interesting"
"","","","","","animation","291","3979424","0.0-291.0","1920x1080","","4588.199999988079","89.29","img/238/3.5/2/bw/001.png","","","interesting"
"","","","","","animation","292","3986420","0.0-292.0","1920x1080","","6995","79.10","img/314/4.5/1.5/bw/001.png","","","interesting"
"","","","","","animation","293","3995221","0.0-293.0","1920x1080","","8797.900000035763","27.51","img/314/5.5/2/bw/001.png","","","interesting"
"","","","","","animation","294","4004738","0.0-294.0","1920x1080","","9515","87.43","img/314/2.5/0.66667/bw/001.png","","","interesting"
"","","","","","animation","295","4014859","0.0-295.0","1920x1080","","10118.800000011921","74.87","img/117/4.5/1/bw/001.png","","","interesting"
"","","","","","animation","296","4018741","0.0-296.0","1920x1080","","3879.900000035763","87.96","img/314/2.5/0.5/bw/001.png","","","interesting"
"","","","","","animation","297","4021838","0.0-297.0","1920x1080","","3095.699999988079","90.48","img/314/2.5/1.5/bw/001.png","","","interesting"
"","","","","","animation","298","4031866","0.0-298.0","1920x1080","","10026.5","65.87","img/117/4.5/0.66667/bw/001.png","","","interesting"
"","","","","","animation","299","4041002","0.0-299.0","1920x1080","","9134.699999988079","28.70","img/238/5.5/2/bw/001.png","","","interesting"
"","","","","","animation","300","4044554","0.0-300.0","1920x1080","","3550.7999999523163","30.16","img/117/5.5/2/bw/001.png","","","interesting"
"","","","","","animation","301","4050448","0.0-301.0","1920x1080","","5892.400000035763","38.23","img/238/5.5/1.5/bw/001.png","","","interesting"
"","","","","","animation","302","4058482","0.0-302.0","1920x1080","","8032.200000047684","79.50","img/238/2.5/1.5/bw/001.png","","","interesting"
"","","","","","animation","303","4063132","0.0-303.0","1920x1080","","4649.100000023842","76.46","img/238/4.5/0.66667/bw/001.png","","","interesting"
"","","","","","animation","304","4069088","0.0-304.0","1920x1080","","5954.300000011921","82.94","img/238/4/1/bw/001.png","","","interesting"
"","","","","","animation","305","4074664","0.0-305.0","1920x1080","","5574.699999988079","44.84","img/314/5.5/0.5/bw/001.png","","","interesting"
"","","","","","animation","306","4081584","0.0-306.0","1920x1080","","6918.900000035763","76.19","img/238/4.5/0.5/bw/001.png","","","interesting"
"","","","","","animation","307","4086023","0.0-307.0","1920x1080","","4436","90.21","img/314/4/0.66667/bw/001.png","","","interesting"
"","","","","","animation","308","4091405","0.0-308.0","1920x1080","","5380.5","55.95","img/117/5.5/0.66667/bw/001.png","","","interesting"
"","","","","","animation","309","4097509","0.0-309.0","1920x1080","","6102.199999988079","88.36","img/238/4/0.66667/bw/001.png","","","interesting"
"","","","","","animation","310","4102450","0.0-310.0","1920x1080","","4940","48.81","img/117/5.5/1/bw/001.png","","","interesting"
"","","","","","animation","311","4110323","0.0-311.0","1920x1080","","7871.300000011921","90.08","img/238/4/0.5/bw/001.png","","","interesting"
"","","","","","animation","312","4118069","0.0-312.0","1920x1080","","7744.299999952316","89","img/117/3.5/1/bw/001.png","","","interesting"
"","","","","","html-button-response","313","4140430","0.0-313.0","1920x1080","","22359.69999998808","","<div class=""intro"">You are about to view a new series of animations.<br><br></div><div class=""intro"">You will evaluate them based on a different descriptor.<br><br></div><div class=""intro"">Move the slider to indicate how <strong style=""text-transform:capitalize"">NATURAL</strong> you find each animation.<br><br></div><div class=""intro"">0 = Least Natural<br></div><div class=""intro"">1 = Most Natural<br><br></div><div class=""intro"">Remember to use the <strong><em>entire range</em></strong> of the slider to make your ratings.<br></div><div class=""intro"">Please <strong><em>take your time</em></strong> and carefully consider each rating you make.<br><br></div>","0","",""
"","","","","","call-function","314","4140433","0.0-314.0","1920x1080","","","","","","",""
"","","","","","animation","315","4153453","0.0-315.0","1920x1080","","13019.699999988079","16.80","img/238/2.5/1.5/bw/001.png","","","natural"
"","","","","","animation","316","4168575","0.0-316.0","1920x1080","","15118.899999976158","40.08","img/314/4.5/0.5/bw/001.png","","","natural"
"","","","","","animation","317","4172548","0.0-317.0","1920x1080","","3971.900000035763","32.41","img/314/3.5/0.5/bw/001.png","","","natural"
"","","","","","animation","318","4178419","0.0-318.0","1920x1080","","5868.600000023842","34.66","img/117/3.5/0.5/bw/001.png","","","natural"
"","","","","","animation","319","4184440","0.0-319.0","1920x1080","","6018.800000011921","50.13","img/314/4.5/1/bw/001.png","","","natural"
"","","","","","animation","320","4188318","0.0-320.0","1920x1080","","3875.199999988079","48.54","img/117/4/1/bw/001.png","","","natural"
"","","","","","animation","321","4194468","0.0-321.0","1920x1080","","6149.199999988079","8","img/238/2.5/0.66667/bw/001.png","","","natural"
"","","","","","animation","322","4198041","0.0-322.0","1920x1080","","3570.7999999523163","19.44","img/238/3.5/0.66667/bw/001.png","","","natural"
"","","","","","animation","323","4202206","0.0-323.0","1920x1080","","4162.800000011921","9.39","img/238/2.5/1/bw/001.png","","","natural"
"","","","","","animation","324","4208184","0.0-324.0","1920x1080","","5975.800000011921","63.62","img/314/4/2/bw/001.png","","","natural"
"","","","","","animation","325","4212467","0.0-325.0","1920x1080","","4281.700000047684","64.02","img/117/4/1.5/bw/001.png","","","natural"
"","","","","","animation","326","4218465","0.0-326.0","1920x1080","","5996.5","18.52","img/314/2.5/1.5/bw/001.png","","","natural"
"","","","","","animation","327","4223952","0.0-327.0","1920x1080","","5485.700000047684","32.94","img/314/4.5/0.66667/bw/001.png","","","natural"
"","","","","","animation","328","4232589","0.0-328.0","1920x1080","","8636.399999976158","10.45","img/314/2.5/0.5/bw/001.png","","","natural"
"","","","","","animation","329","4237882","0.0-329.0","1920x1080","","5290.300000011921","66.53","img/314/3.5/2/bw/001.png","","","natural"
"","","","","","animation","330","4244517","0.0-330.0","1920x1080","","6633.399999976158","69.97","img/117/4/2/bw/001.png","","","natural"
"","","","","","animation","331","4250751","0.0-331.0","1920x1080","","6232.699999988079","19.71","img/314/2.5/2/bw/001.png","","","natural"
"","","","","","animation","332","4257004","0.0-332.0","1920x1080","","6251.399999976158","16.53","img/314/3.5/1/bw/001.png","","","natural"
"","","","","","animation","333","4262283","0.0-333.0","1920x1080","","5276.699999988079","19.18","img/238/4.5/0.66667/bw/001.png","","","natural"
"","","","","","animation","334","4303433","0.0-334.0","1920x1080","","41148.59999996424","56.22","img/117/4.5/1.5/bw/001.png","","","natural"
"","","","","","animation","335","4306481","0.0-335.0","1920x1080","","3046.400000035763","17.86","img/117/4/0.66667/bw/001.png","","","natural"
"","","","","","animation","336","4312739","0.0-336.0","1920x1080","","6257.399999976158","73.02","img/314/5.5/0.5/bw/001.png","","","natural"
"","","","","","animation","337","4317248","0.0-337.0","1920x1080","","4504.899999976158","47.49","img/238/3.5/1.5/bw/001.png","","","natural"
"","","","","","animation","338","4322985","0.0-338.0","1920x1080","","5735.199999988079","69.84","img/117/5.5/0.5/bw/001.png","","","natural"
"","","","","","animation","339","4327848","0.0-339.0","1920x1080","","4861.299999952316","3.17","img/238/2.5/0.5/bw/001.png","","","natural"
"","","","","","animation","340","4331973","0.0-340.0","1920x1080","","4123.699999988079","59.66","img/117/3.5/2/bw/001.png","","","natural"
"","","","","","animation","341","4342604","0.0-341.0","1920x1080","","10628.800000011921","67.06","img/314/4/1.5/bw/001.png","","","natural"
"","","","","","animation","342","4348731","0.0-342.0","1920x1080","","6125.900000035763","78.84","img/117/5.5/2/bw/001.png","","","natural"
"","","","","","animation","343","4353098","0.0-343.0","1920x1080","","4364.300000011921","80.03","img/117/4.5/2/bw/001.png","","","natural"
"","","","","","animation","344","4357935","0.0-344.0","1920x1080","","4835.800000011921","2.12","img/117/2.5/0.66667/bw/001.png","","","natural"
"","","","","","animation","345","4364976","0.0-345.0","1920x1080","","7039.600000023842","9.26","img/314/4/0.66667/bw/001.png","","","natural"
"","","","","","animation","346","4369848","0.0-346.0","1920x1080","","4868.100000023842","51.98","img/238/3.5/2/bw/001.png","","","natural"
"","","","","","animation","347","4375588","0.0-347.0","1920x1080","","5737.200000047684","57.67","img/117/5.5/0.66667/bw/001.png","","","natural"
"","","","","","animation","348","4378525","0.0-348.0","1920x1080","","2935.5","58.20","img/117/5.5/1/bw/001.png","","","natural"
"","","","","","animation","349","4384540","0.0-349.0","1920x1080","","6013.799999952316","50.53","img/117/3.5/1/bw/001.png","","","natural"
"","","","","","animation","350","4389161","0.0-350.0","1920x1080","","4618.099999964237","63.23","img/238/4.5/1.5/bw/001.png","","","natural"
"","","","","","animation","351","4392508","0.0-351.0","1920x1080","","3346","50.93","img/238/5.5/0.5/bw/001.png","","","natural"
"","","","","","animation","352","4401219","0.0-352.0","1920x1080","","8709.199999988079","74.60","img/314/5.5/2/bw/001.png","","","natural"
"","","","","","animation","353","4420757","0.0-353.0","1920x1080","","19535.80000001192","42","img/238/4/1/bw/001.png","","","natural"
"","","","","","animation","354","4423827","0.0-354.0","1920x1080","","3068.600000023842","50.93","img/238/4/2/bw/001.png","","","natural"
"","","","","","animation","355","4428830","0.0-355.0","1920x1080","","5001.699999988079","59.79","img/314/4.5/1.5/bw/001.png","","","natural"
"","","","","","animation","356","4434931","0.0-356.0","1920x1080","","6100.5","17.59","img/238/2.5/2/bw/001.png","","","natural"
"","","","","","animation","357","4439888","0.0-357.0","1920x1080","","4953.399999976158","74.21","img/238/5.5/2/bw/001.png","","","natural"
"","","","","","animation","358","4452531","0.0-358.0","1920x1080","","12641.899999976158","16.93","img/314/4/0.5/bw/001.png","","","natural"
"","","","","","animation","359","4459907","0.0-359.0","1920x1080","","7374.5","8.86","img/238/4/0.5/bw/001.png","","","natural"
"","","","","","animation","360","4468848","0.0-360.0","1920x1080","","8939.300000011921","73.02","img/314/5.5/1/bw/001.png","","","natural"
"","","","","","animation","361","4472724","0.0-361.0","1920x1080","","3873.899999976158","14.02","img/238/4.5/0.5/bw/001.png","","","natural"
"","","","","","animation","362","4475824","0.0-362.0","1920x1080","","3098.699999988079","11.64","img/238/3.5/0.5/bw/001.png","","","natural"
"","","","","","animation","363","4480619","0.0-363.0","1920x1080","","4794.199999988079","22.22","img/117/3.5/1.5/bw/001.png","","","natural"
"","","","","","animation","364","4486699","0.0-364.0","1920x1080","","6078.599999964237","19.58","img/238/4/0.66667/bw/001.png","","","natural"
"","","","","","animation","365","4490581","0.0-365.0","1920x1080","","3880.2999999523163","2.51","img/117/2.5/0.5/bw/001.png","","","natural"
"","","","","","animation","366","4501824","0.0-366.0","1920x1080","","11240.899999976158","8.33","img/117/3.5/0.66667/bw/001.png","","","natural"
"","","","","","animation","367","4505016","0.0-367.0","1920x1080","","3188.399999976158","2.51","img/314/2.5/0.66667/bw/001.png","","","natural"
"","","","","","animation","368","4510068","0.0-368.0","1920x1080","","5050.299999952316","24.47","img/117/4.5/1/bw/001.png","","","natural"
"","","","","","animation","369","4521558","0.0-369.0","1920x1080","","11488.5","50.26","img/314/4.5/2/bw/001.png","","","natural"
"","","","","","animation","370","4534191","0.0-370.0","1920x1080","","12631.5","56.35","img/238/4/1.5/bw/001.png","","","natural"
"","","","","","animation","371","4537352","0.0-371.0","1920x1080","","3155.699999988079","9.66","img/117/2.5/2/bw/001.png","","","natural"
"","","","","","animation","372","4541682","0.0-372.0","1920x1080","","4325.799999952316","59.92","img/238/4.5/2/bw/001.png","","","natural"
"","","","","","animation","373","4544841","0.0-373.0","1920x1080","","3158.2000000476837","10.32","img/117/2.5/1.5/bw/001.png","","","natural"
"","","","","","animation","374","4554191","0.0-374.0","1920x1080","","9348.099999964237","14.68","img/314/4/1/bw/001.png","","","natural"
"","","","","","animation","375","4561392","0.0-375.0","1920x1080","","7198.300000011921","78.57","img/238/5.5/1.5/bw/001.png","","","natural"
"","","","","","animation","376","4567125","0.0-376.0","1920x1080","","5731.900000035763","46.96","img/117/4.5/0.66667/bw/001.png","","","natural"
"","","","","","animation","377","4571361","0.0-377.0","1920x1080","","4234.300000011921","20.24","img/117/4/0.5/bw/001.png","","","natural"
"","","","","","animation","378","4579209","0.0-378.0","1920x1080","","7847.099999964237","17","img/117/4.5/0.5/bw/001.png","","","natural"
"","","","","","animation","379","4584415","0.0-379.0","1920x1080","","5204.699999988079","75.66","img/117/5.5/1.5/bw/001.png","","","natural"
"","","","","","animation","380","4587642","0.0-380.0","1920x1080","","3224.900000035763","7.54","img/314/2.5/1/bw/001.png","","","natural"
"","","","","","animation","381","4591708","0.0-381.0","1920x1080","","4063.599999964237","75.26","img/238/5.5/0.66667/bw/001.png","","","natural"
"","","","","","animation","382","4599032","0.0-382.0","1920x1080","","7322.399999976158","76.98","img/314/5.5/1.5/bw/001.png","","","natural"
"","","","","","animation","383","4611332","0.0-383.0","1920x1080","","12299","35.71","img/314/5.5/0.66667/bw/001.png","","","natural"
"","","","","","animation","384","4613798","0.0-384.0","1920x1080","","2464.800000011921","8.73","img/117/2.5/1/bw/001.png","","","natural"
"","","","","","animation","385","4616805","0.0-385.0","1920x1080","","3005.100000023842","22.49","img/238/4.5/1/bw/001.png","","","natural"
"","","","","","animation","386","4622300","0.0-386.0","1920x1080","","5493.100000023842","84.13","img/238/5.5/1/bw/001.png","","","natural"
"","","","","","animation","387","4639758","0.0-387.0","1920x1080","","17457.30000001192","12","img/314/3.5/0.66667/bw/001.png","","","natural"
"","","","","","animation","388","4644321","0.0-388.0","1920x1080","","4560.599999964237","25","img/238/3.5/1/bw/001.png","","","natural"
"","","","","","animation","389","4647361","0.0-389.0","1920x1080","","3038.900000035763","21","img/314/3.5/1.5/bw/001.png","","","natural"
"","","","","","html-button-response","390","4694122","0.0-390.0","1920x1080","","46758.299999952316","","<strong>Study Debriefing</strong><br><p class=""debrief""><strong>Background:</strong> The patterns you rated are called <em>fractals</em>. The term fractal describes a class of irregular curves or shapes for which any suitably chosen part is similar in shape to a given larger or smaller part when magnified or reduced to the same size. Fractal properties are found throughout the natural and manmade world. The series of animations you saw today displayed animated fractal patterns of a varying complexity.</p><p class=""debrief""><strong>Purpose of this study:</strong> We hope to better understand how the perception of static fractals differs from the perception of animated fractals, and how the speed of the animated patterns influences people&apos;s perception of them. Fractals allow us to study the perception of aesthetic properties (e.g. the perceived level of beauty in an image) without using recognizable content, which makes them an excellent tool for studying abstract aesthetic judgement.</p><p class=""debrief""><strong>Your part:</strong> Your participation has helped us to further understand how humans perceive these patterns across different levels of speed and complexity. This research with allow us to better understand how the visual system and brain process our ever-changing visual environments.<p class=""debrief""><strong>Feedback and Further information:</strong> If you have additional questions about this study, please feel free to ask the researcher, Nathan Gonzales-Hess at nhess @ uoregon.edu. If you have any questions concerning your rights as a research participant, please contact Research Compliance Services, 5237 University of Oregon, Eugene, OR 97403, 541-346-2510, or email researchCompliance @ uoregon.edu. You can also email the Human Subjects Coordinator for psychology and linguistics research at hscoord @ uoregon.edu. ","0","",""
"","","","","","html-button-response","391","4697853","0.0-391.0","1920x1080","","3726.699999988079","","Thank you for participating in this study. <br>Please click below to finish the experiment and submit your responses.<br><br>","0","",""
"true","","","","","fullscreen","392","4698865","0.0-392.0","1920x1080","14:58 26/5/2022","","","","","",""
