"success","timeout","failed_images","failed_audio","failed_video","trial_type","trial_index","time_elapsed","internal_node_id","resolution","timeStamp","rt","response","stimulus","button_pressed","value","descriptor"
"true","false","[]","[]","[]","preload","0","3886","0.0-0.0","1920x1080","","","","","","",""
"true","false","[]","[]","[]","preload","1","7740","0.0-1.0","1920x1080","","","","","","",""
"true","false","[]","[]","[]","preload","2","11307","0.0-2.0","1920x1080","","","","","","",""
"true","","","","","fullscreen","3","22081","0.0-3.0","1920x1080","10:52 23/5/2022","","","","","",""
"","","","","","survey-html-form","4","47434","0.0-4.0","1920x1080","","25350.59999999404","{""age"":""21"",""gender"":""Female""}","","","",""
"","","","","","html-button-response","5","111851","0.0-5.0","1920x1080","","64414.79999998212","","<div class=""complex"">You are going to see a series of animations.<br><br></div><div class=""complex"">Move the slider to indicate how <strong style=""text-transform:capitalize"">COMPLEX</strong> you find each animation.<br><br></div><div class=""complex"">0 = Least Complex<br></div><div class=""complex"">1 = Most Complex<br><br></div><div class=""complex"">Remember to use the <strong><em>entire range</em></strong> of the slider to make your ratings.<br></div><div class=""complex"">Please <strong><em>take your time</em></strong> and carefully consider each rating you make.<br><br></div><div class=""complex"">The study has five sections and will take about 45 minutes to complete.<br><br></div>","0","",""
"","","","","","call-function","6","111852","0.0-6.0","1920x1080","","","","","","",""
"","","","","","animation","7","137506","0.0-7.0","1920x1080","","25651.19999998808","35","img/238/4.5/1.5/bw/001.png","","","complex"
"","","","","","animation","8","145058","0.0-8.0","1920x1080","","7551","25.00","img/314/5.5/1/bw/001.png","","","complex"
"","","","","","animation","9","158626","0.0-9.0","1920x1080","","13566.699999988079","95","img/117/2.5/2/bw/001.png","","","complex"
"","","","","","animation","10","166298","0.0-10.0","1920x1080","","7671.199999988079","74.60","img/117/3.5/2/bw/001.png","","","complex"
"","","","","","animation","11","175242","0.0-11.0","1920x1080","","8942.800000011921","15.34","img/238/5.5/0.66667/bw/001.png","","","complex"
"","","","","","animation","12","195555","0.0-12.0","1920x1080","","20310.899999976158","16.93","img/238/5.5/1.5/bw/001.png","","","complex"
"","","","","","animation","13","203011","0.0-13.0","1920x1080","","7454.699999988079","65.34","img/314/4/0.66667/bw/001.png","","","complex"
"","","","","","animation","14","208059","0.0-14.0","1920x1080","","5047.199999988079","100","img/238/2.5/0.5/bw/001.png","","","complex"
"","","","","","animation","15","219475","0.0-15.0","1920x1080","","11415","69.84","img/314/4.5/0.66667/bw/001.png","","","complex"
"","","","","","animation","16","226074","0.0-16.0","1920x1080","","6599.0999999940395","80.16","img/117/4/0.5/bw/001.png","","","complex"
"","","","","","animation","17","238963","0.0-17.0","1920x1080","","12887.40000000596","45.37","img/238/4.5/1/bw/001.png","","","complex"
"","","","","","animation","18","244962","0.0-18.0","1920x1080","","5998.699999988079","60.32","img/117/4/1/bw/001.png","","","complex"
"","","","","","animation","19","256387","0.0-19.0","1920x1080","","11424.09999999404","30.42","img/117/5.5/0.5/bw/001.png","","","complex"
"","","","","","animation","20","264411","0.0-20.0","1920x1080","","8022.700000017881","50.26","img/314/4/1.5/bw/001.png","","","complex"
"","","","","","animation","21","279867","0.0-21.0","1920x1080","","15455.09999999404","55.42","img/117/4/1.5/bw/001.png","","","complex"
"","","","","","animation","22","294138","0.0-22.0","1920x1080","","14270.90000000596","70","img/238/3.5/1/bw/001.png","","","complex"
"","","","","","animation","23","311539","0.0-23.0","1920x1080","","17399.20000001788","80.16","img/238/4/0.5/bw/001.png","","","complex"
"","","","","","animation","24","321347","0.0-24.0","1920x1080","","9807.40000000596","49.60","img/314/4.5/0.5/bw/001.png","","","complex"
"","","","","","animation","25","327611","0.0-25.0","1920x1080","","6263.0999999940395","40.48","img/314/4.5/2/bw/001.png","","","complex"
"","","","","","animation","26","332595","0.0-26.0","1920x1080","","4983.0999999940395","70.11","img/238/4/1/bw/001.png","","","complex"
"","","","","","animation","27","337747","0.0-27.0","1920x1080","","5151.0999999940395","90.34","img/238/3.5/0.66667/bw/001.png","","","complex"
"","","","","","animation","28","347372","0.0-28.0","1920x1080","","9624.40000000596","100","img/117/2.5/0.66667/bw/001.png","","","complex"
"","","","","","animation","29","358757","0.0-29.0","1920x1080","","11383.199999988079","90.34","img/314/3.5/0.5/bw/001.png","","","complex"
"","","","","","animation","30","369406","0.0-30.0","1920x1080","","10647.300000011921","40.48","img/117/4.5/2/bw/001.png","","","complex"
"","","","","","animation","31","377244","0.0-31.0","1920x1080","","7837.199999988079","50.13","img/238/3.5/1.5/bw/001.png","","","complex"
"","","","","","animation","32","390732","0.0-32.0","1920x1080","","13487.09999999404","14.68","img/117/5.5/0.66667/bw/001.png","","","complex"
"","","","","","animation","33","397228","0.0-33.0","1920x1080","","6495.199999988079","9.79","img/238/5.5/1/bw/001.png","","","complex"
"","","","","","animation","34","412484","0.0-34.0","1920x1080","","15255.5","20","img/238/5.5/0.5/bw/001.png","","","complex"
"","","","","","animation","35","418691","0.0-35.0","1920x1080","","6206.700000017881","34.66","img/314/4/1/bw/001.png","","","complex"
"","","","","","animation","36","433147","0.0-36.0","1920x1080","","14455.399999976158","44.84","img/238/4/1.5/bw/001.png","","","complex"
"","","","","","animation","37","449971","0.0-37.0","1920x1080","","16823.5","45","img/238/4.5/0.66667/bw/001.png","","","complex"
"","","","","","animation","38","459147","0.0-38.0","1920x1080","","9174.899999976158","70.37","img/238/3.5/0.5/bw/001.png","","","complex"
"","","","","","animation","39","468299","0.0-39.0","1920x1080","","9150.800000011921","50","img/117/3.5/1.5/bw/001.png","","","complex"
"","","","","","animation","40","478730","0.0-40.0","1920x1080","","10431.5","20.24","img/314/5.5/0.5/bw/001.png","","","complex"
"","","","","","animation","41","485634","0.0-41.0","1920x1080","","6903","29.89","img/238/4.5/2/bw/001.png","","","complex"
"","","","","","animation","42","490971","0.0-42.0","1920x1080","","5336","100","img/314/2.5/1.5/bw/001.png","","","complex"
"","","","","","animation","43","499898","0.0-43.0","1920x1080","","8926","75.13","img/238/4/0.66667/bw/001.png","","","complex"
"","","","","","animation","44","515722","0.0-44.0","1920x1080","","15823","55.16","img/238/4/2/bw/001.png","","","complex"
"","","","","","animation","45","525626","0.0-45.0","1920x1080","","9902.699999988079","95","img/314/2.5/0.66667/bw/001.png","","","complex"
"","","","","","animation","46","541624","0.0-46.0","1920x1080","","15999.200000017881","9.79","img/314/5.5/2/bw/001.png","","","complex"
"","","","","","animation","47","557728","0.0-47.0","1920x1080","","16103.300000011921","45","img/117/4.5/0.5/bw/001.png","","","complex"
"","","","","","animation","48","565928","0.0-48.0","1920x1080","","8198.90000000596","100","img/314/2.5/1/bw/001.png","","","complex"
"","","","","","animation","49","579039","0.0-49.0","1920x1080","","13110.699999988079","10.19","img/117/5.5/1.5/bw/001.png","","","complex"
"","","","","","animation","50","584839","0.0-50.0","1920x1080","","5798.299999982119","40.48","img/117/3.5/0.66667/bw/001.png","","","complex"
"","","","","","animation","51","599431","0.0-51.0","1920x1080","","14591.40000000596","95","img/238/2.5/1/bw/001.png","","","complex"
"","","","","","animation","52","607631","0.0-52.0","1920x1080","","8198.700000017881","100","img/314/2.5/0.5/bw/001.png","","","complex"
"","","","","","animation","53","619390","0.0-53.0","1920x1080","","11758.799999982119","85.05","img/117/3.5/0.5/bw/001.png","","","complex"
"","","","","","animation","54","628047","0.0-54.0","1920x1080","","8655.200000017881","5.16","img/238/5.5/2/bw/001.png","","","complex"
"","","","","","animation","55","650086","0.0-55.0","1920x1080","","22038.5","45","img/117/4/2/bw/001.png","","","complex"
"","","","","","animation","56","660501","0.0-56.0","1920x1080","","10415.09999999404","25.40","img/117/5.5/2/bw/001.png","","","complex"
"","","","","","animation","57","672661","0.0-57.0","1920x1080","","12159.09999999404","40","img/117/4.5/0.66667/bw/001.png","","","complex"
"","","","","","animation","58","677869","0.0-58.0","1920x1080","","5206.800000011921","45.37","img/117/4.5/1/bw/001.png","","","complex"
"","","","","","animation","59","689053","0.0-59.0","1920x1080","","11183.100000023842","95","img/238/2.5/1.5/bw/001.png","","","complex"
"","","","","","animation","60","704149","0.0-60.0","1920x1080","","15095.100000023842","60.32","img/314/3.5/1.5/bw/001.png","","","complex"
"","","","","","animation","61","712301","0.0-61.0","1920x1080","","8151.300000011921","100","img/314/2.5/2/bw/001.png","","","complex"
"","","","","","animation","62","720198","0.0-62.0","1920x1080","","7897.5","75.00","img/314/4/0.5/bw/001.png","","","complex"
"","","","","","animation","63","730332","0.0-63.0","1920x1080","","10133.09999999404","95","img/238/2.5/2/bw/001.png","","","complex"
"","","","","","animation","64","741414","0.0-64.0","1920x1080","","11080.90000000596","60","img/117/4/0.66667/bw/001.png","","","complex"
"","","","","","animation","65","749716","0.0-65.0","1920x1080","","8301","90.21","img/117/2.5/1.5/bw/001.png","","","complex"
"","","","","","animation","66","761636","0.0-66.0","1920x1080","","11918.800000011921","50.40","img/117/3.5/1/bw/001.png","","","complex"
"","","","","","animation","67","771582","0.0-67.0","1920x1080","","9945.199999988079","44.58","img/314/4/2/bw/001.png","","","complex"
"","","","","","animation","68","780035","0.0-68.0","1920x1080","","8453.09999999404","29.89","img/117/5.5/1/bw/001.png","","","complex"
"","","","","","animation","69","785539","0.0-69.0","1920x1080","","5503.199999988079","60.19","img/314/3.5/1/bw/001.png","","","complex"
"","","","","","animation","70","792771","0.0-70.0","1920x1080","","7231.0999999940395","34.79","img/314/5.5/0.66667/bw/001.png","","","complex"
"","","","","","animation","71","798355","0.0-71.0","1920x1080","","5583","45.37","img/314/3.5/2/bw/001.png","","","complex"
"","","","","","animation","72","808643","0.0-72.0","1920x1080","","10287.09999999404","39.68","img/314/4.5/1/bw/001.png","","","complex"
"","","","","","animation","73","812875","0.0-73.0","1920x1080","","4230.0999999940395","54.63","img/238/3.5/2/bw/001.png","","","complex"
"","","","","","animation","74","819323","0.0-74.0","1920x1080","","6447.199999988079","30.16","img/314/5.5/1.5/bw/001.png","","","complex"
"","","","","","animation","75","825115","0.0-75.0","1920x1080","","5790.699999988079","34.79","img/314/4.5/1.5/bw/001.png","","","complex"
"","","","","","animation","76","832875","0.0-76.0","1920x1080","","7759.5","100","img/117/2.5/0.5/bw/001.png","","","complex"
"","","","","","animation","77","838631","0.0-77.0","1920x1080","","5754.100000023842","100","img/238/2.5/0.66667/bw/001.png","","","complex"
"","","","","","animation","78","844981","0.0-78.0","1920x1080","","6349.199999988079","84.92","img/314/3.5/0.66667/bw/001.png","","","complex"
"","","","","","animation","79","854467","0.0-79.0","1920x1080","","9484.699999988079","65.34","img/238/4.5/0.5/bw/001.png","","","complex"
"","","","","","animation","80","861797","0.0-80.0","1920x1080","","7329.299999982119","95","img/117/2.5/1/bw/001.png","","","complex"
"","","","","","animation","81","866659","0.0-81.0","1920x1080","","4861.4000000059605","49.60","img/117/4.5/1.5/bw/001.png","","","complex"
"","","","","","html-button-response","82","885966","0.0-82.0","1920x1080","","19305.40000000596","","<div class=""intro"">You are about to view a new series of animations.<br><br></div><div class=""intro"">You will evaluate them based on a different descriptor.<br><br></div><div class=""intro"">Move the slider to indicate how <strong style=""text-transform:capitalize"">APPEALING</strong> you find each animation.<br><br></div><div class=""intro"">0 = Least Appealing<br></div><div class=""intro"">1 = Most Appealing<br><br></div><div class=""intro"">Remember to use the <strong><em>entire range</em></strong> of the slider to make your ratings.<br></div><div class=""intro"">Please <strong><em>take your time</em></strong> and carefully consider each rating you make.<br><br></div>","0","",""
"","","","","","call-function","83","885967","0.0-83.0","1920x1080","","","","","","",""
"","","","","","animation","84","897467","0.0-84.0","1920x1080","","11499.799999982119","5.03","img/314/4.5/1/bw/001.png","","","appealing"
"","","","","","animation","85","908939","0.0-85.0","1920x1080","","11470.800000011921","85.05","img/117/2.5/1/bw/001.png","","","appealing"
"","","","","","animation","86","913971","0.0-86.0","1920x1080","","5030.700000017881","80.03","img/117/2.5/0.5/bw/001.png","","","appealing"
"","","","","","animation","87","920430","0.0-87.0","1920x1080","","6458.300000011921","79.63","img/238/2.5/0.66667/bw/001.png","","","appealing"
"","","","","","animation","88","933630","0.0-88.0","1920x1080","","13199.5","10.45","img/314/4.5/2/bw/001.png","","","appealing"
"","","","","","animation","89","947251","0.0-89.0","1920x1080","","13619.199999988079","10.32","img/117/4.5/2/bw/001.png","","","appealing"
"","","","","","animation","90","966818","0.0-90.0","1920x1080","","19567.30000001192","65","img/238/2.5/1/bw/001.png","","","appealing"
"","","","","","animation","91","975218","0.0-91.0","1920x1080","","8399.100000023842","95","img/238/3.5/1.5/bw/001.png","","","appealing"
"","","","","","animation","92","981580","0.0-92.0","1920x1080","","6360.9000000059605","70.11","img/117/2.5/2/bw/001.png","","","appealing"
"","","","","","animation","93","991218","0.0-93.0","1920x1080","","9637.200000017881","80.16","img/314/5.5/0.66667/bw/001.png","","","appealing"
"","","","","","animation","94","1000338","0.0-94.0","1920x1080","","9119.40000000596","15.48","img/314/3.5/0.5/bw/001.png","","","appealing"
"","","","","","animation","95","1012979","0.0-95.0","1920x1080","","12639.800000011921","80.42","img/238/4.5/2/bw/001.png","","","appealing"
"","","","","","animation","96","1021769","0.0-96.0","1920x1080","","8789.800000011921","60.19","img/314/5.5/0.5/bw/001.png","","","appealing"
"","","","","","animation","97","1030337","0.0-97.0","1920x1080","","8567","14.55","img/314/4/1/bw/001.png","","","appealing"
"","","","","","animation","98","1037953","0.0-98.0","1920x1080","","7615","30.29","img/238/3.5/0.5/bw/001.png","","","appealing"
"","","","","","animation","99","1049017","0.0-99.0","1920x1080","","11062.799999982119","20.11","img/314/3.5/1.5/bw/001.png","","","appealing"
"","","","","","animation","100","1072633","0.0-100.0","1920x1080","","23615","60.19","img/117/4/2/bw/001.png","","","appealing"
"","","","","","animation","101","1079672","0.0-101.0","1920x1080","","7039.199999988079","30.29","img/238/4/0.66667/bw/001.png","","","appealing"
"","","","","","animation","102","1092272","0.0-102.0","1920x1080","","12598.59999999404","55","img/238/2.5/1.5/bw/001.png","","","appealing"
"","","","","","animation","103","1099512","0.0-103.0","1920x1080","","7238.5","90.21","img/117/5.5/1/bw/001.png","","","appealing"
"","","","","","animation","104","1118760","0.0-104.0","1920x1080","","19247.09999999404","40","img/238/4.5/0.66667/bw/001.png","","","appealing"
"","","","","","animation","105","1137089","0.0-105.0","1920x1080","","18327.59999999404","60","img/117/4.5/1.5/bw/001.png","","","appealing"
"","","","","","animation","106","1151461","0.0-106.0","1920x1080","","14370.5","40.08","img/238/4.5/0.5/bw/001.png","","","appealing"
"","","","","","animation","107","1159449","0.0-107.0","1920x1080","","7987","54.89","img/314/2.5/1.5/bw/001.png","","","appealing"
"","","","","","animation","108","1164665","0.0-108.0","1920x1080","","5214.800000011921","69.71","img/238/4.5/1/bw/001.png","","","appealing"
"","","","","","animation","109","1178233","0.0-109.0","1920x1080","","13566.90000000596","60","img/238/4/2/bw/001.png","","","appealing"
"","","","","","animation","110","1186505","0.0-110.0","1920x1080","","8271","55.16","img/314/2.5/1/bw/001.png","","","appealing"
"","","","","","animation","111","1206561","0.0-111.0","1920x1080","","20055.69999998808","45","img/314/4.5/0.66667/bw/001.png","","","appealing"
"","","","","","animation","112","1221921","0.0-112.0","1920x1080","","15358.40000000596","79.50","img/117/3.5/2/bw/001.png","","","appealing"
"","","","","","animation","113","1229245","0.0-113.0","1920x1080","","7323.5","60.19","img/238/3.5/0.66667/bw/001.png","","","appealing"
"","","","","","animation","114","1234864","0.0-114.0","1920x1080","","5617.799999982119","55.42","img/314/2.5/0.66667/bw/001.png","","","appealing"
"","","","","","animation","115","1241123","0.0-115.0","1920x1080","","6257.5","79.76","img/117/4.5/0.5/bw/001.png","","","appealing"
"","","","","","animation","116","1251353","0.0-116.0","1920x1080","","10228.200000017881","20","img/238/4/1/bw/001.png","","","appealing"
"","","","","","animation","117","1263976","0.0-117.0","1920x1080","","12622.90000000596","100","img/238/5.5/1.5/bw/001.png","","","appealing"
"","","","","","animation","118","1270811","0.0-118.0","1920x1080","","6833.5","14.95","img/238/3.5/1/bw/001.png","","","appealing"
"","","","","","animation","119","1277643","0.0-119.0","1920x1080","","6831","10.05","img/314/3.5/1/bw/001.png","","","appealing"
"","","","","","animation","120","1284352","0.0-120.0","1920x1080","","6708.200000017881","9.66","img/314/3.5/0.66667/bw/001.png","","","appealing"
"","","","","","animation","121","1301680","0.0-121.0","1920x1080","","17327","95","img/117/5.5/2/bw/001.png","","","appealing"
"","","","","","animation","122","1317027","0.0-122.0","1920x1080","","15346.09999999404","45.11","img/117/4/1/bw/001.png","","","appealing"
"","","","","","animation","123","1323276","0.0-123.0","1920x1080","","6248","40.48","img/314/4/0.5/bw/001.png","","","appealing"
"","","","","","animation","124","1327080","0.0-124.0","1920x1080","","3802.899999976158","39.81","img/314/4/0.66667/bw/001.png","","","appealing"
"","","","","","animation","125","1335592","0.0-125.0","1920x1080","","8511.700000017881","96","img/314/5.5/2/bw/001.png","","","appealing"
"","","","","","animation","126","1342527","0.0-126.0","1920x1080","","6933.700000017881","49.87","img/117/2.5/1.5/bw/001.png","","","appealing"
"","","","","","animation","127","1352888","0.0-127.0","1920x1080","","10359.700000017881","55.16","img/117/4/0.66667/bw/001.png","","","appealing"
"","","","","","animation","128","1361136","0.0-128.0","1920x1080","","8246.800000011921","44.84","img/238/2.5/2/bw/001.png","","","appealing"
"","","","","","animation","129","1377992","0.0-129.0","1920x1080","","16855.90000000596","79.76","img/117/5.5/1.5/bw/001.png","","","appealing"
"","","","","","animation","130","1383551","0.0-130.0","1920x1080","","5557.699999988079","30.16","img/314/4.5/0.5/bw/001.png","","","appealing"
"","","","","","animation","131","1395111","0.0-131.0","1920x1080","","11559","40.34","img/238/2.5/0.5/bw/001.png","","","appealing"
"","","","","","animation","132","1405876","0.0-132.0","1920x1080","","10763.59999999404","20.37","img/238/4/1.5/bw/001.png","","","appealing"
"","","","","","animation","133","1415695","0.0-133.0","1920x1080","","9818.5","49.74","img/117/3.5/0.66667/bw/001.png","","","appealing"
"","","","","","animation","134","1419692","0.0-134.0","1920x1080","","3995.7999999821186","85.19","img/238/5.5/2/bw/001.png","","","appealing"
"","","","","","animation","135","1429859","0.0-135.0","1920x1080","","10166.5","60.45","img/117/4.5/0.66667/bw/001.png","","","appealing"
"","","","","","animation","136","1438465","0.0-136.0","1920x1080","","8603.399999976158","95","img/314/5.5/1.5/bw/001.png","","","appealing"
"","","","","","animation","137","1446593","0.0-137.0","1920x1080","","8127.5","84.92","img/314/5.5/1/bw/001.png","","","appealing"
"","","","","","animation","138","1454712","0.0-138.0","1920x1080","","8117.5","50.00","img/238/4.5/1.5/bw/001.png","","","appealing"
"","","","","","animation","139","1474784","0.0-139.0","1920x1080","","20071.20000001788","44.71","img/117/3.5/1/bw/001.png","","","appealing"
"","","","","","animation","140","1486754","0.0-140.0","1920x1080","","11968.5","90.08","img/238/5.5/1/bw/001.png","","","appealing"
"","","","","","animation","141","1494277","0.0-141.0","1920x1080","","7521.5999999940395","95","img/117/5.5/0.5/bw/001.png","","","appealing"
"","","","","","animation","142","1500262","0.0-142.0","1920x1080","","5982","29.89","img/117/3.5/1.5/bw/001.png","","","appealing"
"","","","","","animation","143","1512079","0.0-143.0","1920x1080","","11816.09999999404","75.13","img/238/5.5/0.5/bw/001.png","","","appealing"
"","","","","","animation","144","1516930","0.0-144.0","1920x1080","","4850.199999988079","49.87","img/117/4/1.5/bw/001.png","","","appealing"
"","","","","","animation","145","1521730","0.0-145.0","1920x1080","","4799.0999999940395","44.84","img/117/4/0.5/bw/001.png","","","appealing"
"","","","","","animation","146","1535786","0.0-146.0","1920x1080","","14055.59999999404","50.00","img/238/4/0.5/bw/001.png","","","appealing"
"","","","","","animation","147","1545314","0.0-147.0","1920x1080","","9526.5","55.42","img/314/4/2/bw/001.png","","","appealing"
"","","","","","animation","148","1557523","0.0-148.0","1920x1080","","12207.200000017881","95","img/238/5.5/0.66667/bw/001.png","","","appealing"
"","","","","","animation","149","1572523","0.0-149.0","1920x1080","","14998.90000000596","55.29","img/117/4.5/1/bw/001.png","","","appealing"
"","","","","","animation","150","1578587","0.0-150.0","1920x1080","","6063","70.37","img/117/5.5/0.66667/bw/001.png","","","appealing"
"","","","","","animation","151","1584663","0.0-151.0","1920x1080","","6074.4000000059605","40.34","img/314/2.5/2/bw/001.png","","","appealing"
"","","","","","animation","152","1595467","0.0-152.0","1920x1080","","10803.399999976158","50","img/314/4/1.5/bw/001.png","","","appealing"
"","","","","","animation","153","1600971","0.0-153.0","1920x1080","","5503.300000011921","19.58","img/314/2.5/0.5/bw/001.png","","","appealing"
"","","","","","animation","154","1609667","0.0-154.0","1920x1080","","8694.800000011921","39.95","img/314/4.5/1.5/bw/001.png","","","appealing"
"","","","","","animation","155","1615912","0.0-155.0","1920x1080","","6244.0999999940395","20.37","img/117/2.5/0.66667/bw/001.png","","","appealing"
"","","","","","animation","156","1626941","0.0-156.0","1920x1080","","11025.899999976158","30.29","img/117/3.5/0.5/bw/001.png","","","appealing"
"","","","","","animation","157","1631681","0.0-157.0","1920x1080","","4739.200000017881","55.03","img/314/3.5/2/bw/001.png","","","appealing"
"","","","","","animation","158","1637298","0.0-158.0","1920x1080","","5616.4000000059605","50.00","img/238/3.5/2/bw/001.png","","","appealing"
"","","","","","html-button-response","159","1656174","0.0-159.0","1920x1080","","18874","","<div class=""intro"">You are about to view a new series of animations.<br><br></div><div class=""intro"">You will evaluate them based on a different descriptor.<br><br></div><div class=""intro"">Move the slider to indicate how <strong style=""text-transform:capitalize"">RELAXING</strong> you find each animation.<br><br></div><div class=""intro"">0 = Least Relaxing<br></div><div class=""intro"">1 = Most Relaxing<br><br></div><div class=""intro"">Remember to use the <strong><em>entire range</em></strong> of the slider to make your ratings.<br></div><div class=""intro"">Please <strong><em>take your time</em></strong> and carefully consider each rating you make.<br><br></div>","0","",""
"","","","","","call-function","160","1656174","0.0-160.0","1920x1080","","","","","","",""
"","","","","","animation","161","1664749","0.0-161.0","1920x1080","","8574","50.40","img/117/3.5/1.5/bw/001.png","","","relaxing"
"","","","","","animation","162","1671365","0.0-162.0","1920x1080","","6615","60.05","img/117/5.5/1.5/bw/001.png","","","relaxing"
"","","","","","animation","163","1675349","0.0-163.0","1920x1080","","3983.0999999940395","-0.26","img/238/2.5/2/bw/001.png","","","relaxing"
"","","","","","animation","164","1683750","0.0-164.0","1920x1080","","8398.800000011921","20.24","img/117/4/1.5/bw/001.png","","","relaxing"
"","","","","","animation","165","1688500","0.0-165.0","1920x1080","","4748.0999999940395","9.79","img/117/3.5/0.5/bw/001.png","","","relaxing"
"","","","","","animation","166","1696236","0.0-166.0","1920x1080","","7734.699999988079","5.42","img/314/3.5/0.5/bw/001.png","","","relaxing"
"","","","","","animation","167","1704623","0.0-167.0","1920x1080","","8385.5","30.42","img/117/4.5/0.66667/bw/001.png","","","relaxing"
"","","","","","animation","168","1711455","0.0-168.0","1920x1080","","6831.0999999940395","39.68","img/238/4.5/1/bw/001.png","","","relaxing"
"","","","","","animation","169","1718055","0.0-169.0","1920x1080","","6599.100000023842","100","img/117/5.5/2/bw/001.png","","","relaxing"
"","","","","","animation","170","1729950","0.0-170.0","1920x1080","","11894.300000011921","40.48","img/314/5.5/0.66667/bw/001.png","","","relaxing"
"","","","","","animation","171","1733934","0.0-171.0","1920x1080","","3983","0.13","img/238/2.5/0.66667/bw/001.png","","","relaxing"
"","","","","","animation","172","1736849","0.0-172.0","1920x1080","","2913.9000000059605","0","img/314/2.5/0.5/bw/001.png","","","relaxing"
"","","","","","animation","173","1744417","0.0-173.0","1920x1080","","7566.0999999940395","39.68","img/238/5.5/0.5/bw/001.png","","","relaxing"
"","","","","","animation","174","1749023","0.0-174.0","1920x1080","","4605.699999988079","59.92","img/314/4/1/bw/001.png","","","relaxing"
"","","","","","animation","175","1753850","0.0-175.0","1920x1080","","4825.4000000059605","30.42","img/117/4/0.5/bw/001.png","","","relaxing"
"","","","","","animation","176","1765135","0.0-176.0","1920x1080","","11284.300000011921","89.95","img/117/4/2/bw/001.png","","","relaxing"
"","","","","","animation","177","1792855","0.0-177.0","1920x1080","","27719","95","img/117/4.5/2/bw/001.png","","","relaxing"
"","","","","","animation","178","1805024","0.0-178.0","1920x1080","","12167","59.66","img/314/3.5/1/bw/001.png","","","relaxing"
"","","","","","animation","179","1808484","0.0-179.0","1920x1080","","3459.0999999940395","0","img/238/2.5/1/bw/001.png","","","relaxing"
"","","","","","animation","180","1815672","0.0-180.0","1920x1080","","7187","50.00","img/314/5.5/0.5/bw/001.png","","","relaxing"
"","","","","","animation","181","1821817","0.0-181.0","1920x1080","","6144.700000017881","60","img/117/4.5/1.5/bw/001.png","","","relaxing"
"","","","","","animation","182","1826919","0.0-182.0","1920x1080","","5100.899999976158","75.00","img/314/4.5/2/bw/001.png","","","relaxing"
"","","","","","animation","183","1841488","0.0-183.0","1920x1080","","14567.09999999404","80.03","img/238/4/1.5/bw/001.png","","","relaxing"
"","","","","","animation","184","1852960","0.0-184.0","1920x1080","","11470.90000000596","55","img/314/2.5/1.5/bw/001.png","","","relaxing"
"","","","","","animation","185","1857945","0.0-185.0","1920x1080","","4982.5","100","img/238/5.5/2/bw/001.png","","","relaxing"
"","","","","","animation","186","1865121","0.0-186.0","1920x1080","","7174.299999982119","0.40","img/314/2.5/1/bw/001.png","","","relaxing"
"","","","","","animation","187","1868735","0.0-187.0","1920x1080","","3613.300000011921","74.60","img/238/4/2/bw/001.png","","","relaxing"
"","","","","","animation","188","1874409","0.0-188.0","1920x1080","","5673.0999999940395","10.45","img/314/4.5/0.5/bw/001.png","","","relaxing"
"","","","","","animation","189","1878060","0.0-189.0","1920x1080","","3650.0999999940395","100","img/238/5.5/1.5/bw/001.png","","","relaxing"
"","","","","","animation","190","1881457","0.0-190.0","1920x1080","","3395.9000000059605","0","img/314/2.5/0.66667/bw/001.png","","","relaxing"
"","","","","","animation","191","1892187","0.0-191.0","1920x1080","","10729.300000011921","79.63","img/238/5.5/0.66667/bw/001.png","","","relaxing"
"","","","","","animation","192","1898502","0.0-192.0","1920x1080","","6312.199999988079","69.97","img/117/3.5/2/bw/001.png","","","relaxing"
"","","","","","animation","193","1905818","0.0-193.0","1920x1080","","7314.9000000059605","90.08","img/238/4.5/2/bw/001.png","","","relaxing"
"","","","","","animation","194","1912009","0.0-194.0","1920x1080","","6189.4000000059605","54.63","img/314/4/2/bw/001.png","","","relaxing"
"","","","","","animation","195","1922986","0.0-195.0","1920x1080","","10975.09999999404","30.29","img/238/3.5/0.5/bw/001.png","","","relaxing"
"","","","","","animation","196","1931652","0.0-196.0","1920x1080","","8665.699999988079","74.74","img/314/3.5/2/bw/001.png","","","relaxing"
"","","","","","animation","197","1945337","0.0-197.0","1920x1080","","13684","89.81","img/238/3.5/2/bw/001.png","","","relaxing"
"","","","","","animation","198","1954458","0.0-198.0","1920x1080","","9118.5","50.13","img/314/4.5/1/bw/001.png","","","relaxing"
"","","","","","animation","199","1960302","0.0-199.0","1920x1080","","5843.100000023842","39.68","img/238/3.5/1.5/bw/001.png","","","relaxing"
"","","","","","animation","200","1967669","0.0-200.0","1920x1080","","7366","19.84","img/238/3.5/1/bw/001.png","","","relaxing"
"","","","","","animation","201","1975702","0.0-201.0","1920x1080","","8032.300000011921","30.42","img/117/2.5/1/bw/001.png","","","relaxing"
"","","","","","animation","202","1981490","0.0-202.0","1920x1080","","5786","5.16","img/314/3.5/0.66667/bw/001.png","","","relaxing"
"","","","","","animation","203","1988603","0.0-203.0","1920x1080","","7111.799999982119","50.26","img/238/4/1/bw/001.png","","","relaxing"
"","","","","","animation","204","2000853","0.0-204.0","1920x1080","","12248.799999982119","20","img/238/4/0.66667/bw/001.png","","","relaxing"
"","","","","","animation","205","2009336","0.0-205.0","1920x1080","","8482.199999988079","59.66","img/314/5.5/1/bw/001.png","","","relaxing"
"","","","","","animation","206","2013352","0.0-206.0","1920x1080","","4015.9000000059605","0.00","img/238/2.5/1.5/bw/001.png","","","relaxing"
"","","","","","animation","207","2016954","0.0-207.0","1920x1080","","3599.800000011921","0.40","img/117/3.5/0.66667/bw/001.png","","","relaxing"
"","","","","","animation","208","2024578","0.0-208.0","1920x1080","","7623.0999999940395","14.81","img/238/4.5/0.66667/bw/001.png","","","relaxing"
"","","","","","animation","209","2033474","0.0-209.0","1920x1080","","8894.800000011921","70.37","img/314/4.5/1.5/bw/001.png","","","relaxing"
"","","","","","animation","210","2040138","0.0-210.0","1920x1080","","6662.300000011921","50.26","img/314/2.5/2/bw/001.png","","","relaxing"
"","","","","","animation","211","2049753","0.0-211.0","1920x1080","","9613.700000017881","55.03","img/117/2.5/2/bw/001.png","","","relaxing"
"","","","","","animation","212","2053106","0.0-212.0","1920x1080","","3352.300000011921","0.00","img/117/2.5/0.5/bw/001.png","","","relaxing"
"","","","","","animation","213","2060070","0.0-213.0","1920x1080","","6962.699999988079","40.21","img/117/5.5/0.5/bw/001.png","","","relaxing"
"","","","","","animation","214","2067603","0.0-214.0","1920x1080","","7532.4000000059605","55.03","img/314/3.5/1.5/bw/001.png","","","relaxing"
"","","","","","animation","215","2085954","0.0-215.0","1920x1080","","18349.90000000596","59.92","img/314/4/1.5/bw/001.png","","","relaxing"
"","","","","","animation","216","2091138","0.0-216.0","1920x1080","","5182.800000011921","20.37","img/314/4/0.5/bw/001.png","","","relaxing"
"","","","","","animation","217","2099053","0.0-217.0","1920x1080","","7913.699999988079","80.42","img/117/5.5/1/bw/001.png","","","relaxing"
"","","","","","animation","218","2112643","0.0-218.0","1920x1080","","13587.90000000596","50.26","img/117/4.5/1/bw/001.png","","","relaxing"
"","","","","","animation","219","2125337","0.0-219.0","1920x1080","","12693.09999999404","74.74","img/238/5.5/1/bw/001.png","","","relaxing"
"","","","","","animation","220","2132291","0.0-220.0","1920x1080","","6952.699999988079","20.24","img/117/3.5/1/bw/001.png","","","relaxing"
"","","","","","animation","221","2143053","0.0-221.0","1920x1080","","10761.5","10","img/238/4/0.5/bw/001.png","","","relaxing"
"","","","","","animation","222","2148870","0.0-222.0","1920x1080","","5815.300000011921","10.32","img/314/4/0.66667/bw/001.png","","","relaxing"
"","","","","","animation","223","2154537","0.0-223.0","1920x1080","","5665.5999999940395","10.32","img/117/4/0.66667/bw/001.png","","","relaxing"
"","","","","","animation","224","2166686","0.0-224.0","1920x1080","","12148.300000011921","74.60","img/238/4.5/1.5/bw/001.png","","","relaxing"
"","","","","","animation","225","2171042","0.0-225.0","1920x1080","","4355.199999988079","50","img/117/4/1/bw/001.png","","","relaxing"
"","","","","","animation","226","2179602","0.0-226.0","1920x1080","","8559.5","44.84","img/314/4.5/0.66667/bw/001.png","","","relaxing"
"","","","","","animation","227","2185653","0.0-227.0","1920x1080","","6049.199999988079","10.05","img/238/3.5/0.66667/bw/001.png","","","relaxing"
"","","","","","animation","228","2194169","0.0-228.0","1920x1080","","8515.399999976158","15","img/117/4.5/0.5/bw/001.png","","","relaxing"
"","","","","","animation","229","2199706","0.0-229.0","1920x1080","","5535.699999988079","60","img/117/5.5/0.66667/bw/001.png","","","relaxing"
"","","","","","animation","230","2211052","0.0-230.0","1920x1080","","11344.300000011921","95","img/314/5.5/2/bw/001.png","","","relaxing"
"","","","","","animation","231","2214719","0.0-231.0","1920x1080","","3665.0999999940395","0.40","img/238/2.5/0.5/bw/001.png","","","relaxing"
"","","","","","animation","232","2222403","0.0-232.0","1920x1080","","7681.5999999940395","89.95","img/314/5.5/1.5/bw/001.png","","","relaxing"
"","","","","","animation","233","2225895","0.0-233.0","1920x1080","","3490.7000000178814","0.13","img/117/2.5/0.66667/bw/001.png","","","relaxing"
"","","","","","animation","234","2232337","0.0-234.0","1920x1080","","6440.5999999940395","60.32","img/117/2.5/1.5/bw/001.png","","","relaxing"
"","","","","","animation","235","2244507","0.0-235.0","1920x1080","","12168.299999982119","19.58","img/238/4.5/0.5/bw/001.png","","","relaxing"
"","","","","","html-button-response","236","2266003","0.0-236.0","1920x1080","","21495.09999999404","","<div class=""intro"">You are about to view a new series of animations.<br><br></div><div class=""intro"">You will evaluate them based on a different descriptor.<br><br></div><div class=""intro"">Move the slider to indicate how <strong style=""text-transform:capitalize"">INTERESTING</strong> you find each animation.<br><br></div><div class=""intro"">0 = Least Interesting<br></div><div class=""intro"">1 = Most Interesting<br><br></div><div class=""intro"">Remember to use the <strong><em>entire range</em></strong> of the slider to make your ratings.<br></div><div class=""intro"">Please <strong><em>take your time</em></strong> and carefully consider each rating you make.<br><br></div>","0","",""
"","","","","","call-function","237","2266006","0.0-237.0","1920x1080","","","","","","",""
"","","","","","animation","238","2271995","0.0-238.0","1920x1080","","5988.300000011921","64.55","img/314/2.5/0.66667/bw/001.png","","","interesting"
"","","","","","animation","239","2281420","0.0-239.0","1920x1080","","9424.200000017881","95","img/238/4.5/1.5/bw/001.png","","","interesting"
"","","","","","animation","240","2291670","0.0-240.0","1920x1080","","10248.700000017881","40.21","img/238/4/0.5/bw/001.png","","","interesting"
"","","","","","animation","241","2303811","0.0-241.0","1920x1080","","12139.5","70.11","img/238/4.5/0.66667/bw/001.png","","","interesting"
"","","","","","animation","242","2313703","0.0-242.0","1920x1080","","9891.300000011921","30.29","img/117/5.5/1/bw/001.png","","","interesting"
"","","","","","animation","243","2325670","0.0-243.0","1920x1080","","11965.199999988079","65.08","img/314/3.5/0.66667/bw/001.png","","","interesting"
"","","","","","animation","244","2353254","0.0-244.0","1920x1080","","27582.40000000596","50.00","img/314/3.5/2/bw/001.png","","","interesting"
"","","","","","animation","245","2364755","0.0-245.0","1920x1080","","11499.59999999404","89.95","img/117/4.5/0.66667/bw/001.png","","","interesting"
"","","","","","animation","246","2382070","0.0-246.0","1920x1080","","17314.30000001192","94.97","img/117/3.5/0.66667/bw/001.png","","","interesting"
"","","","","","animation","247","2394339","0.0-247.0","1920x1080","","12267.09999999404","40","img/117/2.5/0.66667/bw/001.png","","","interesting"
"","","","","","animation","248","2406270","0.0-248.0","1920x1080","","11930.200000017881","80","img/238/4/0.66667/bw/001.png","","","interesting"
"","","","","","animation","249","2416938","0.0-249.0","1920x1080","","10667.300000011921","84.66","img/238/4.5/2/bw/001.png","","","interesting"
"","","","","","animation","250","2455186","0.0-250.0","1920x1080","","38246.5","80.42","img/117/4/1.5/bw/001.png","","","interesting"
"","","","","","animation","251","2463820","0.0-251.0","1920x1080","","8631.600000023842","50.00","img/238/4.5/0.5/bw/001.png","","","interesting"
"","","","","","animation","252","2469875","0.0-252.0","1920x1080","","6053.9000000059605","84.92","img/117/3.5/1.5/bw/001.png","","","interesting"
"","","","","","animation","253","2493322","0.0-253.0","1920x1080","","23445.79999998212","45","img/238/4/1/bw/001.png","","","interesting"
"","","","","","animation","254","2498703","0.0-254.0","1920x1080","","5379.800000011921","34.66","img/238/2.5/1.5/bw/001.png","","","interesting"
"","","","","","animation","255","2504136","0.0-255.0","1920x1080","","5432","84.79","img/314/4/2/bw/001.png","","","interesting"
"","","","","","animation","256","2519903","0.0-256.0","1920x1080","","15765","90.48","img/314/4.5/1/bw/001.png","","","interesting"
"","","","","","animation","257","2526227","0.0-257.0","1920x1080","","6322.299999982119","10.32","img/314/5.5/2/bw/001.png","","","interesting"
"","","","","","animation","258","2533069","0.0-258.0","1920x1080","","6841.4000000059605","79.63","img/238/2.5/2/bw/001.png","","","interesting"
"","","","","","animation","259","2541906","0.0-259.0","1920x1080","","8835.699999988079","60.19","img/314/2.5/1/bw/001.png","","","interesting"
"","","","","","animation","260","2550057","0.0-260.0","1920x1080","","8149.5","69.58","img/117/5.5/0.5/bw/001.png","","","interesting"
"","","","","","animation","261","2558803","0.0-261.0","1920x1080","","8744.40000000596","75.26","img/117/4.5/0.5/bw/001.png","","","interesting"
"","","","","","animation","262","2565803","0.0-262.0","1920x1080","","6998.700000017881","30.42","img/314/2.5/0.5/bw/001.png","","","interesting"
"","","","","","animation","263","2575470","0.0-263.0","1920x1080","","9665.799999982119","78.44","img/314/4/0.66667/bw/001.png","","","interesting"
"","","","","","animation","264","2586010","0.0-264.0","1920x1080","","10539.5","25.13","img/314/5.5/1/bw/001.png","","","interesting"
"","","","","","animation","265","2590486","0.0-265.0","1920x1080","","4474.4000000059605","40.48","img/314/4.5/0.5/bw/001.png","","","interesting"
"","","","","","animation","266","2628819","0.0-266.0","1920x1080","","38332.09999999404","74.60","img/117/5.5/1.5/bw/001.png","","","interesting"
"","","","","","animation","267","2635738","0.0-267.0","1920x1080","","6917.299999982119","30.16","img/238/3.5/0.5/bw/001.png","","","interesting"
"","","","","","animation","268","2642602","0.0-268.0","1920x1080","","6863.100000023842","60.32","img/238/3.5/1/bw/001.png","","","interesting"
"","","","","","animation","269","2652810","0.0-269.0","1920x1080","","10206.59999999404","45","img/117/4/0.66667/bw/001.png","","","interesting"
"","","","","","animation","270","2659069","0.0-270.0","1920x1080","","6257.799999982119","65.48","img/314/4.5/1.5/bw/001.png","","","interesting"
"","","","","","animation","271","2676626","0.0-271.0","1920x1080","","17556.19999998808","85.19","img/314/5.5/0.5/bw/001.png","","","interesting"
"","","","","","animation","272","2683535","0.0-272.0","1920x1080","","6907.800000011921","65.08","img/117/4.5/1.5/bw/001.png","","","interesting"
"","","","","","animation","273","2693710","0.0-273.0","1920x1080","","10173.699999988079","70","img/238/3.5/0.66667/bw/001.png","","","interesting"
"","","","","","animation","274","2702302","0.0-274.0","1920x1080","","8591","30.29","img/238/2.5/1/bw/001.png","","","interesting"
"","","","","","animation","275","2718066","0.0-275.0","1920x1080","","15762.699999988079","39.81","img/238/4/1.5/bw/001.png","","","interesting"
"","","","","","animation","276","2728929","0.0-276.0","1920x1080","","10861.5","30.29","img/314/4/1.5/bw/001.png","","","interesting"
"","","","","","animation","277","2741218","0.0-277.0","1920x1080","","12288.300000011921","95","img/238/5.5/0.5/bw/001.png","","","interesting"
"","","","","","animation","278","2750168","0.0-278.0","1920x1080","","8948.90000000596","40.21","img/238/2.5/0.66667/bw/001.png","","","interesting"
"","","","","","animation","279","2757818","0.0-279.0","1920x1080","","7648.699999988079","59.79","img/314/3.5/1/bw/001.png","","","interesting"
"","","","","","animation","280","2762985","0.0-280.0","1920x1080","","5165.5","100","img/238/5.5/0.66667/bw/001.png","","","interesting"
"","","","","","animation","281","2775635","0.0-281.0","1920x1080","","12648.40000000596","40.34","img/314/2.5/2/bw/001.png","","","interesting"
"","","","","","animation","282","2790739","0.0-282.0","1920x1080","","15103.5","80.29","img/117/3.5/1/bw/001.png","","","interesting"
"","","","","","animation","283","2806985","0.0-283.0","1920x1080","","16243.699999988079","59.52","img/314/4/0.5/bw/001.png","","","interesting"
"","","","","","animation","284","2813335","0.0-284.0","1920x1080","","6349.5","94.97","img/314/5.5/1.5/bw/001.png","","","interesting"
"","","","","","animation","285","2829224","0.0-285.0","1920x1080","","15886.300000011921","75.40","img/117/4.5/1/bw/001.png","","","interesting"
"","","","","","animation","286","2863352","0.0-286.0","1920x1080","","34126.90000000596","50.13","img/314/4.5/0.66667/bw/001.png","","","interesting"
"","","","","","animation","287","2870600","0.0-287.0","1920x1080","","7246.700000017881","69.84","img/117/3.5/2/bw/001.png","","","interesting"
"","","","","","animation","288","2876985","0.0-288.0","1920x1080","","6382.5999999940395","49.87","img/117/5.5/0.66667/bw/001.png","","","interesting"
"","","","","","animation","289","2883073","0.0-289.0","1920x1080","","6086.699999988079","20.37","img/117/2.5/2/bw/001.png","","","interesting"
"","","","","","animation","290","2887539","0.0-290.0","1920x1080","","4465","20.11","img/117/2.5/1.5/bw/001.png","","","interesting"
"","","","","","animation","291","2891388","0.0-291.0","1920x1080","","3846.4000000059605","19.84","img/314/2.5/1.5/bw/001.png","","","interesting"
"","","","","","animation","292","2902600","0.0-292.0","1920x1080","","11211.200000017881","40.48","img/238/3.5/2/bw/001.png","","","interesting"
"","","","","","animation","293","2908369","0.0-293.0","1920x1080","","5767.0999999940395","65.48","img/238/4.5/1/bw/001.png","","","interesting"
"","","","","","animation","294","2914301","0.0-294.0","1920x1080","","5931.200000017881","75.00","img/117/2.5/0.5/bw/001.png","","","interesting"
"","","","","","animation","295","2921474","0.0-295.0","1920x1080","","7171.199999988079","94.97","img/117/4.5/2/bw/001.png","","","interesting"
"","","","","","animation","296","2928889","0.0-296.0","1920x1080","","7413.700000017881","69.84","img/314/5.5/0.66667/bw/001.png","","","interesting"
"","","","","","animation","297","2946124","0.0-297.0","1920x1080","","17234.09999999404","50","img/314/3.5/0.5/bw/001.png","","","interesting"
"","","","","","animation","298","2963976","0.0-298.0","1920x1080","","17849.90000000596","100","img/238/5.5/2/bw/001.png","","","interesting"
"","","","","","animation","299","2972197","0.0-299.0","1920x1080","","8218.59999999404","14.95","img/117/2.5/1/bw/001.png","","","interesting"
"","","","","","animation","300","2984174","0.0-300.0","1920x1080","","11975.09999999404","95","img/238/5.5/1/bw/001.png","","","interesting"
"","","","","","animation","301","2989473","0.0-301.0","1920x1080","","5297.5","19.84","img/238/2.5/0.5/bw/001.png","","","interesting"
"","","","","","animation","302","3003700","0.0-302.0","1920x1080","","14226.09999999404","34.92","img/314/4.5/2/bw/001.png","","","interesting"
"","","","","","animation","303","3010044","0.0-303.0","1920x1080","","6342.700000017881","40.34","img/314/4/1/bw/001.png","","","interesting"
"","","","","","animation","304","3016177","0.0-304.0","1920x1080","","6131.4000000059605","54.76","img/117/4/2/bw/001.png","","","interesting"
"","","","","","animation","305","3034568","0.0-305.0","1920x1080","","18390.09999999404","65","img/117/4/1/bw/001.png","","","interesting"
"","","","","","animation","306","3037450","0.0-306.0","1920x1080","","2880.5999999940395","74.87","img/314/3.5/1.5/bw/001.png","","","interesting"
"","","","","","animation","307","3043442","0.0-307.0","1920x1080","","5990.9000000059605","65.34","img/117/3.5/0.5/bw/001.png","","","interesting"
"","","","","","animation","308","3048704","0.0-308.0","1920x1080","","5260.0999999940395","100","img/117/5.5/2/bw/001.png","","","interesting"
"","","","","","animation","309","3056600","0.0-309.0","1920x1080","","7894.899999976158","40.08","img/117/4/0.5/bw/001.png","","","interesting"
"","","","","","animation","310","3059767","0.0-310.0","1920x1080","","3166.800000011921","65.34","img/238/3.5/1.5/bw/001.png","","","interesting"
"","","","","","animation","311","3071249","0.0-311.0","1920x1080","","11480.700000017881","90.08","img/238/5.5/1.5/bw/001.png","","","interesting"
"","","","","","animation","312","3079250","0.0-312.0","1920x1080","","7999.200000017881","64.95","img/238/4/2/bw/001.png","","","interesting"
"","","","","","html-button-response","313","3098611","0.0-313.0","1920x1080","","19359.80000001192","","<div class=""intro"">You are about to view a new series of animations.<br><br></div><div class=""intro"">You will evaluate them based on a different descriptor.<br><br></div><div class=""intro"">Move the slider to indicate how <strong style=""text-transform:capitalize"">NATURAL</strong> you find each animation.<br><br></div><div class=""intro"">0 = Least Natural<br></div><div class=""intro"">1 = Most Natural<br><br></div><div class=""intro"">Remember to use the <strong><em>entire range</em></strong> of the slider to make your ratings.<br></div><div class=""intro"">Please <strong><em>take your time</em></strong> and carefully consider each rating you make.<br><br></div>","0","",""
"","","","","","call-function","314","3098612","0.0-314.0","1920x1080","","","","","","",""
"","","","","","animation","315","3112234","0.0-315.0","1920x1080","","13620.699999988079","25","img/117/4.5/0.5/bw/001.png","","","natural"
"","","","","","animation","316","3119142","0.0-316.0","1920x1080","","6906","30.29","img/314/4.5/2/bw/001.png","","","natural"
"","","","","","animation","317","3124171","0.0-317.0","1920x1080","","5027.0999999940395","35.19","img/314/4/2/bw/001.png","","","natural"
"","","","","","animation","318","3130480","0.0-318.0","1920x1080","","6308","75.26","img/117/2.5/1.5/bw/001.png","","","natural"
"","","","","","animation","319","3135599","0.0-319.0","1920x1080","","5117.5999999940395","75","img/238/2.5/1/bw/001.png","","","natural"
"","","","","","animation","320","3143743","0.0-320.0","1920x1080","","8143","19.97","img/314/4.5/1.5/bw/001.png","","","natural"
"","","","","","animation","321","3148742","0.0-321.0","1920x1080","","4997.800000011921","15.34","img/238/4.5/1/bw/001.png","","","natural"
"","","","","","animation","322","3157074","0.0-322.0","1920x1080","","8329.199999988079","30","img/117/4.5/1.5/bw/001.png","","","natural"
"","","","","","animation","323","3161522","0.0-323.0","1920x1080","","4447","65.08","img/314/2.5/1.5/bw/001.png","","","natural"
"","","","","","animation","324","3167534","0.0-324.0","1920x1080","","6010.800000011921","35.45","img/117/4.5/1/bw/001.png","","","natural"
"","","","","","animation","325","3185844","0.0-325.0","1920x1080","","18307.80000001192","84.52","img/238/5.5/1.5/bw/001.png","","","natural"
"","","","","","animation","326","3191816","0.0-326.0","1920x1080","","5968.0999999940395","100","img/117/3.5/1.5/bw/001.png","","","natural"
"","","","","","animation","327","3196156","0.0-327.0","1920x1080","","4336.4000000059605","70.11","img/117/2.5/1/bw/001.png","","","natural"
"","","","","","animation","328","3200435","0.0-328.0","1920x1080","","4277.4000000059605","50.40","img/117/3.5/0.5/bw/001.png","","","natural"
"","","","","","animation","329","3208400","0.0-329.0","1920x1080","","7963.699999988079","40","img/117/2.5/0.5/bw/001.png","","","natural"
"","","","","","animation","330","3219242","0.0-330.0","1920x1080","","10841.200000017881","10","img/238/5.5/2/bw/001.png","","","natural"
"","","","","","animation","331","3224406","0.0-331.0","1920x1080","","5161.700000017881","90.34","img/238/3.5/0.5/bw/001.png","","","natural"
"","","","","","animation","332","3231466","0.0-332.0","1920x1080","","7058.4000000059605","95","img/238/3.5/1.5/bw/001.png","","","natural"
"","","","","","animation","333","3240506","0.0-333.0","1920x1080","","9039.40000000596","95","img/117/2.5/2/bw/001.png","","","natural"
"","","","","","animation","334","3249391","0.0-334.0","1920x1080","","8882.90000000596","29.89","img/238/5.5/0.66667/bw/001.png","","","natural"
"","","","","","animation","335","3257285","0.0-335.0","1920x1080","","7892.300000011921","40.08","img/238/2.5/0.66667/bw/001.png","","","natural"
"","","","","","animation","336","3263322","0.0-336.0","1920x1080","","6036.299999982119","64.81","img/117/3.5/0.66667/bw/001.png","","","natural"
"","","","","","animation","337","3269327","0.0-337.0","1920x1080","","6003.800000011921","0.00","img/314/5.5/0.66667/bw/001.png","","","natural"
"","","","","","animation","338","3277457","0.0-338.0","1920x1080","","8128.200000017881","34.52","img/117/5.5/1.5/bw/001.png","","","natural"
"","","","","","animation","339","3286003","0.0-339.0","1920x1080","","8544.5","4.50","img/314/5.5/1.5/bw/001.png","","","natural"
"","","","","","animation","340","3291369","0.0-340.0","1920x1080","","5364.4000000059605","69.58","img/314/3.5/2/bw/001.png","","","natural"
"","","","","","animation","341","3297488","0.0-341.0","1920x1080","","6117","74.87","img/117/4/1.5/bw/001.png","","","natural"
"","","","","","animation","342","3302999","0.0-342.0","1920x1080","","5510.200000017881","30.03","img/238/4/0.5/bw/001.png","","","natural"
"","","","","","animation","343","3306899","0.0-343.0","1920x1080","","3898","30.03","img/238/4/0.66667/bw/001.png","","","natural"
"","","","","","animation","344","3312948","0.0-344.0","1920x1080","","6048.0999999940395","35.05","img/238/4/1/bw/001.png","","","natural"
"","","","","","animation","345","3318128","0.0-345.0","1920x1080","","5178","80","img/314/4/1.5/bw/001.png","","","natural"
"","","","","","animation","346","3323145","0.0-346.0","1920x1080","","5015.9000000059605","59.66","img/117/3.5/1/bw/001.png","","","natural"
"","","","","","animation","347","3329833","0.0-347.0","1920x1080","","6685.9000000059605","90.08","img/238/2.5/2/bw/001.png","","","natural"
"","","","","","animation","348","3335409","0.0-348.0","1920x1080","","5573.699999988079","40.34","img/314/2.5/1/bw/001.png","","","natural"
"","","","","","animation","349","3340178","0.0-349.0","1920x1080","","4767.199999988079","50.26","img/314/3.5/1/bw/001.png","","","natural"
"","","","","","animation","350","3350290","0.0-350.0","1920x1080","","10110.299999982119","69.97","img/314/5.5/2/bw/001.png","","","natural"
"","","","","","animation","351","3361971","0.0-351.0","1920x1080","","11679.40000000596","10.19","img/117/5.5/1/bw/001.png","","","natural"
"","","","","","animation","352","3369216","0.0-352.0","1920x1080","","7243.5","19.97","img/117/4/0.5/bw/001.png","","","natural"
"","","","","","animation","353","3378036","0.0-353.0","1920x1080","","8819.199999988079","44.97","img/117/2.5/0.66667/bw/001.png","","","natural"
"","","","","","animation","354","3382526","0.0-354.0","1920x1080","","4488.800000011921","79.50","img/117/3.5/2/bw/001.png","","","natural"
"","","","","","animation","355","3390638","0.0-355.0","1920x1080","","8110.700000017881","0.13","img/238/5.5/1/bw/001.png","","","natural"
"","","","","","animation","356","3394649","0.0-356.0","1920x1080","","4009.5999999940395","100","img/238/3.5/0.66667/bw/001.png","","","natural"
"","","","","","animation","357","3401169","0.0-357.0","1920x1080","","6518.700000017881","89.95","img/117/4.5/2/bw/001.png","","","natural"
"","","","","","animation","358","3406634","0.0-358.0","1920x1080","","5463.799999982119","89.55","img/117/4/2/bw/001.png","","","natural"
"","","","","","animation","359","3419473","0.0-359.0","1920x1080","","12835.800000011921","29.89","img/314/4.5/0.5/bw/001.png","","","natural"
"","","","","","animation","360","3427506","0.0-360.0","1920x1080","","8031.300000011921","20.24","img/314/2.5/0.66667/bw/001.png","","","natural"
"","","","","","animation","361","3431183","0.0-361.0","1920x1080","","3675.4000000059605","15.08","img/238/2.5/0.5/bw/001.png","","","natural"
"","","","","","animation","362","3436519","0.0-362.0","1920x1080","","5334.699999988079","90.21","img/238/3.5/2/bw/001.png","","","natural"
"","","","","","animation","363","3465086","0.0-363.0","1920x1080","","28566","5.29","img/117/4.5/0.66667/bw/001.png","","","natural"
"","","","","","animation","364","3469859","0.0-364.0","1920x1080","","4771","49.60","img/314/4/0.66667/bw/001.png","","","natural"
"","","","","","animation","365","3479337","0.0-365.0","1920x1080","","9475.700000017881","84.52","img/117/5.5/2/bw/001.png","","","natural"
"","","","","","animation","366","3484136","0.0-366.0","1920x1080","","4797.5999999940395","5.16","img/314/5.5/0.5/bw/001.png","","","natural"
"","","","","","animation","367","3488527","0.0-367.0","1920x1080","","4388.5999999940395","80.16","img/117/4/0.66667/bw/001.png","","","natural"
"","","","","","animation","368","3494083","0.0-368.0","1920x1080","","5554.5","19.84","img/314/5.5/1/bw/001.png","","","natural"
"","","","","","animation","369","3499117","0.0-369.0","1920x1080","","5032.699999988079","89.68","img/314/2.5/2/bw/001.png","","","natural"
"","","","","","animation","370","3502968","0.0-370.0","1920x1080","","3849.5","64.68","img/314/4.5/1/bw/001.png","","","natural"
"","","","","","animation","371","3512066","0.0-371.0","1920x1080","","9097.200000017881","14.95","img/117/5.5/0.66667/bw/001.png","","","natural"
"","","","","","animation","372","3522009","0.0-372.0","1920x1080","","9941.700000017881","10.32","img/238/4.5/0.66667/bw/001.png","","","natural"
"","","","","","animation","373","3537151","0.0-373.0","1920x1080","","15138.90000000596","39.81","img/314/4/0.5/bw/001.png","","","natural"
"","","","","","animation","374","3554979","0.0-374.0","1920x1080","","17826.09999999404","24.74","img/238/5.5/0.5/bw/001.png","","","natural"
"","","","","","animation","375","3559959","0.0-375.0","1920x1080","","4978.699999988079","85.05","img/238/2.5/1.5/bw/001.png","","","natural"
"","","","","","animation","376","3563627","0.0-376.0","1920x1080","","3666.9000000059605","50.00","img/314/4/1/bw/001.png","","","natural"
"","","","","","animation","377","3567540","0.0-377.0","1920x1080","","3911.0999999940395","49.74","img/117/4/1/bw/001.png","","","natural"
"","","","","","animation","378","3579991","0.0-378.0","1920x1080","","12449.5","39.55","img/238/4.5/2/bw/001.png","","","natural"
"","","","","","animation","379","3595930","0.0-379.0","1920x1080","","15937.40000000596","5.03","img/238/4/1.5/bw/001.png","","","natural"
"","","","","","animation","380","3609978","0.0-380.0","1920x1080","","14046.200000017881","29","img/314/4.5/0.66667/bw/001.png","","","natural"
"","","","","","animation","381","3619903","0.0-381.0","1920x1080","","9923.40000000596","24.74","img/238/4.5/0.5/bw/001.png","","","natural"
"","","","","","animation","382","3634386","0.0-382.0","1920x1080","","14482.5","55.29","img/238/4.5/1.5/bw/001.png","","","natural"
"","","","","","animation","383","3641138","0.0-383.0","1920x1080","","6750.4000000059605","45","img/314/3.5/0.66667/bw/001.png","","","natural"
"","","","","","animation","384","3648653","0.0-384.0","1920x1080","","7513.5","35","img/117/5.5/0.5/bw/001.png","","","natural"
"","","","","","animation","385","3657422","0.0-385.0","1920x1080","","8765.40000000596","29.89","img/314/2.5/0.5/bw/001.png","","","natural"
"","","","","","animation","386","3665525","0.0-386.0","1920x1080","","8101.5","84.79","img/238/4/2/bw/001.png","","","natural"
"","","","","","animation","387","3672849","0.0-387.0","1920x1080","","7322.199999988079","9.92","img/238/3.5/1/bw/001.png","","","natural"
"","","","","","animation","388","3683816","0.0-388.0","1920x1080","","10965.199999988079","69.71","img/314/3.5/1.5/bw/001.png","","","natural"
"","","","","","animation","389","3692925","0.0-389.0","1920x1080","","9107.899999976158","30.03","img/314/3.5/0.5/bw/001.png","","","natural"
"","","","","","html-button-response","390","3730755","0.0-390.0","1920x1080","","37827","","<strong>Study Debriefing</strong><br><p class=""debrief""><strong>Background:</strong> The patterns you rated are called <em>fractals</em>. The term fractal describes a class of irregular curves or shapes for which any suitably chosen part is similar in shape to a given larger or smaller part when magnified or reduced to the same size. Fractal properties are found throughout the natural and manmade world. The series of animations you saw today displayed animated fractal patterns of a varying complexity.</p><p class=""debrief""><strong>Purpose of this study:</strong> We hope to better understand how the perception of static fractals differs from the perception of animated fractals, and how the speed of the animated patterns influences people&apos;s perception of them. Fractals allow us to study the perception of aesthetic properties (e.g. the perceived level of beauty in an image) without using recognizable content, which makes them an excellent tool for studying abstract aesthetic judgement.</p><p class=""debrief""><strong>Your part:</strong> Your participation has helped us to further understand how humans perceive these patterns across different levels of speed and complexity. This research with allow us to better understand how the visual system and brain process our ever-changing visual environments.<p class=""debrief""><strong>Feedback and Further information:</strong> If you have additional questions about this study, please feel free to ask the researcher, Nathan Gonzales-Hess at nhess @ uoregon.edu. If you have any questions concerning your rights as a research participant, please contact Research Compliance Services, 5237 University of Oregon, Eugene, OR 97403, 541-346-2510, or email researchCompliance @ uoregon.edu. You can also email the Human Subjects Coordinator for psychology and linguistics research at hscoord @ uoregon.edu. ","0","",""
"","","","","","html-button-response","391","3735388","0.0-391.0","1920x1080","","4628.800000011921","","Thank you for participating in this study. <br>Please click below to finish the experiment and submit your responses.<br><br>","0","",""
"true","","","","","fullscreen","392","3736402","0.0-392.0","1920x1080","11:55 23/5/2022","","","","","",""
