"success","timeout","failed_images","failed_audio","failed_video","trial_type","trial_index","time_elapsed","internal_node_id","resolution","timeStamp","rt","response","stimulus","button_pressed","value","descriptor"
"true","false","[]","[]","[]","preload","0","41965","0.0-0.0","1920x1080","","","","","","",""
"true","false","[]","[]","[]","preload","1","79704","0.0-1.0","1920x1080","","","","","","",""
"true","false","[]","[]","[]","preload","2","119859","0.0-2.0","1920x1080","","","","","","",""
"true","","","","","fullscreen","3","1122673","0.0-3.0","1920x1080","11:40 10/10/2022","","","","","",""
"","","","","","survey-html-form","4","1137279","0.0-4.0","1920x1080","","14602.600000023842","{""age"":""19"",""gender"":""Female""}","","","",""
"","","","","","html-button-response","5","1193107","0.0-5.0","1920x1080","","55814.69999998808","","<div class=""complex"">You are going to see a series of animations.<br><br></div><div class=""complex"">Move the slider to indicate how <strong style=""text-transform:capitalize"">COMPLEX</strong> you find each animation.<br><br></div><div class=""complex"">0 = Least Complex<br></div><div class=""complex"">1 = Most Complex<br><br></div><div class=""complex"">Remember to use the <strong><em>entire range</em></strong> of the slider to make your ratings.<br></div><div class=""complex"">Please <strong><em>take your time</em></strong> and carefully consider each rating you make.<br><br></div><div class=""complex"">The study has five sections and will take about 45 minutes to complete.<br><br></div>","0","",""
"","","","","","call-function","6","1193108","0.0-6.0","1920x1080","","","","","","",""
"","","","","","animation","7","1206859","0.0-7.0","1920x1080","","13748.400000035763","55.42","img/238/4/2/bw/001.png","","","complex"
"","","","","","animation","8","1242371","0.0-8.0","1920x1080","","35510.40000003576","29.10","img/314/3.5/2/bw/001.png","","","complex"
"","","","","","animation","9","1245929","0.0-9.0","1920x1080","","3557.7999999523163","99","img/314/2.5/1/bw/001.png","","","complex"
"","","","","","animation","10","1248761","0.0-10.0","1920x1080","","2831.2999999523163","28.04","img/238/4/1/bw/001.png","","","complex"
"","","","","","animation","11","1253401","0.0-11.0","1920x1080","","4639.099999964237","94","img/117/3.5/0.5/bw/001.png","","","complex"
"","","","","","animation","12","1257962","0.0-12.0","1920x1080","","4559","2.78","img/117/4/2/bw/001.png","","","complex"
"","","","","","animation","13","1262457","0.0-13.0","1920x1080","","4494.5","25.93","img/117/2.5/1/bw/001.png","","","complex"
"","","","","","animation","14","1266129","0.0-14.0","1920x1080","","3671.5","35.19","img/314/4.5/0.66667/bw/001.png","","","complex"
"","","","","","animation","15","1269873","0.0-15.0","1920x1080","","3742.699999988079","23.41","img/314/3.5/1/bw/001.png","","","complex"
"","","","","","animation","16","1274169","0.0-16.0","1920x1080","","4295.199999988079","17.46","img/117/3.5/1/bw/001.png","","","complex"
"","","","","","animation","17","1278617","0.0-17.0","1920x1080","","4447.299999952316","80.29","img/117/2.5/0.5/bw/001.png","","","complex"
"","","","","","animation","18","1284313","0.0-18.0","1920x1080","","5695","4.50","img/238/3.5/1/bw/001.png","","","complex"
"","","","","","animation","19","1288473","0.0-19.0","1920x1080","","4158.599999964237","15.21","img/238/2.5/0.66667/bw/001.png","","","complex"
"","","","","","animation","20","1297225","0.0-20.0","1920x1080","","8751.5","-0.13","img/117/4.5/0.66667/bw/001.png","","","complex"
"","","","","","animation","21","1304177","0.0-21.0","1920x1080","","6951.599999964237","0.00","img/238/5.5/0.5/bw/001.png","","","complex"
"","","","","","animation","22","1308350","0.0-22.0","1920x1080","","4175.199999988079","2.25","img/238/4.5/1.5/bw/001.png","","","complex"
"","","","","","animation","23","1312534","0.0-23.0","1920x1080","","4182.800000011921","7.94","img/238/4.5/0.5/bw/001.png","","","complex"
"","","","","","animation","24","1316599","0.0-24.0","1920x1080","","4064.199999988079","11.64","img/314/3.5/0.66667/bw/001.png","","","complex"
"","","","","","animation","25","1320270","0.0-25.0","1920x1080","","3670.2000000476837","3.97","img/238/2.5/1/bw/001.png","","","complex"
"","","","","","animation","26","1323286","0.0-26.0","1920x1080","","3015.100000023842","0.13","img/117/4.5/1.5/bw/001.png","","","complex"
"","","","","","animation","27","1326654","0.0-27.0","1920x1080","","3367.300000011921","0.53","img/238/4/1.5/bw/001.png","","","complex"
"","","","","","animation","28","1330614","0.0-28.0","1920x1080","","3959.5","0.13","img/117/5.5/2/bw/001.png","","","complex"
"","","","","","animation","29","1334830","0.0-29.0","1920x1080","","4215.100000023842","1.72","img/238/3.5/2/bw/001.png","","","complex"
"","","","","","animation","30","1339222","0.0-30.0","1920x1080","","4390.700000047684","3.57","img/238/4/0.66667/bw/001.png","","","complex"
"","","","","","animation","31","1343286","0.0-31.0","1920x1080","","4063.100000023842","2","img/238/4.5/1/bw/001.png","","","complex"
"","","","","","animation","32","1346974","0.0-32.0","1920x1080","","3687.599999964237","3.57","img/238/4.5/0.66667/bw/001.png","","","complex"
"","","","","","animation","33","1351654","0.0-33.0","1920x1080","","4679","14.68","img/117/4/1.5/bw/001.png","","","complex"
"","","","","","animation","34","1356830","0.0-34.0","1920x1080","","5175.299999952316","39.15","img/314/2.5/2/bw/001.png","","","complex"
"","","","","","animation","35","1360216","0.0-35.0","1920x1080","","3384.899999976158","4.76","img/117/4.5/2/bw/001.png","","","complex"
"","","","","","animation","36","1363126","0.0-36.0","1920x1080","","2909.2000000476837","35.19","img/117/4/0.66667/bw/001.png","","","complex"
"","","","","","animation","37","1367735","0.0-37.0","1920x1080","","4615.299999952316","76.72","img/117/2.5/1.5/bw/001.png","","","complex"
"","","","","","animation","38","1375192","0.0-38.0","1920x1080","","7455.800000011921","88.62","img/238/5.5/2/bw/001.png","","","complex"
"","","","","","animation","39","1378640","0.0-39.0","1920x1080","","3446.699999988079","73.15","img/314/4.5/0.5/bw/001.png","","","complex"
"","","","","","animation","40","1381967","0.0-40.0","1920x1080","","3327","19.58","img/314/4.5/1.5/bw/001.png","","","complex"
"","","","","","animation","41","1386872","0.0-41.0","1920x1080","","4902.699999988079","83.07","img/314/5.5/0.5/bw/001.png","","","complex"
"","","","","","animation","42","1389799","0.0-42.0","1920x1080","","2926.699999988079","84.92","img/117/2.5/0.66667/bw/001.png","","","complex"
"","","","","","animation","43","1392544","0.0-43.0","1920x1080","","2741.699999988079","85.19","img/238/3.5/0.5/bw/001.png","","","complex"
"","","","","","animation","44","1395072","0.0-44.0","1920x1080","","2526.899999976158","5.16","img/314/5.5/2/bw/001.png","","","complex"
"","","","","","animation","45","1401440","0.0-45.0","1920x1080","","6367.199999988079","62","img/238/3.5/0.66667/bw/001.png","","","complex"
"","","","","","animation","46","1409287","0.0-46.0","1920x1080","","7846.800000011921","21","img/238/2.5/2/bw/001.png","","","complex"
"","","","","","animation","47","1411704","0.0-47.0","1920x1080","","2415.300000011921","43.52","img/314/2.5/0.66667/bw/001.png","","","complex"
"","","","","","animation","48","1419023","0.0-48.0","1920x1080","","7318.899999976158","56","img/117/4.5/1/bw/001.png","","","complex"
"","","","","","animation","49","1422176","0.0-49.0","1920x1080","","3152.199999988079","26.98","img/314/2.5/1.5/bw/001.png","","","complex"
"","","","","","animation","50","1426788","0.0-50.0","1920x1080","","4605.100000023842","47.35","img/117/2.5/2/bw/001.png","","","complex"
"","","","","","animation","51","1434356","0.0-51.0","1920x1080","","7567","33","img/314/3.5/1.5/bw/001.png","","","complex"
"","","","","","animation","52","1438965","0.0-52.0","1920x1080","","4608.399999976158","53.70","img/314/5.5/0.66667/bw/001.png","","","complex"
"","","","","","animation","53","1442380","0.0-53.0","1920x1080","","3413.5","39.68","img/117/5.5/1/bw/001.png","","","complex"
"","","","","","animation","54","1445414","0.0-54.0","1920x1080","","3032.399999976158","23.15","img/314/4/2/bw/001.png","","","complex"
"","","","","","animation","55","1448220","0.0-55.0","1920x1080","","2805.300000011921","14.55","img/314/4/1.5/bw/001.png","","","complex"
"","","","","","animation","56","1452957","0.0-56.0","1920x1080","","4735.600000023842","68.25","img/238/5.5/1/bw/001.png","","","complex"
"","","","","","animation","57","1464092","0.0-57.0","1920x1080","","11135","52","img/238/5.5/1.5/bw/001.png","","","complex"
"","","","","","animation","58","1468876","0.0-58.0","1920x1080","","4783","39.81","img/238/3.5/1.5/bw/001.png","","","complex"
"","","","","","animation","59","1474582","0.0-59.0","1920x1080","","5704.199999988079","87.57","img/314/4/0.5/bw/001.png","","","complex"
"","","","","","animation","60","1482045","0.0-60.0","1920x1080","","7462.099999964237","27.38","img/314/4.5/1/bw/001.png","","","complex"
"","","","","","animation","61","1486882","0.0-61.0","1920x1080","","4838.5","39.55","img/117/5.5/1.5/bw/001.png","","","complex"
"","","","","","animation","62","1491730","0.0-62.0","1920x1080","","4847.100000023842","51.46","img/117/4.5/0.5/bw/001.png","","","complex"
"","","","","","animation","63","1499179","0.0-63.0","1920x1080","","7448.399999976158","27.65","img/238/4.5/2/bw/001.png","","","complex"
"","","","","","animation","64","1502818","0.0-64.0","1920x1080","","3637.699999988079","14.42","img/314/4.5/2/bw/001.png","","","complex"
"","","","","","animation","65","1506634","0.0-65.0","1920x1080","","3815.199999988079","33.86","img/117/3.5/0.66667/bw/001.png","","","complex"
"","","","","","animation","66","1510002","0.0-66.0","1920x1080","","3366.899999976158","70.50","img/314/2.5/0.5/bw/001.png","","","complex"
"","","","","","animation","67","1517996","0.0-67.0","1920x1080","","7993.300000011921","72.35","img/238/5.5/0.66667/bw/001.png","","","complex"
"","","","","","animation","68","1528146","0.0-68.0","1920x1080","","10149.300000011921","78.17","img/117/4/0.5/bw/001.png","","","complex"
"","","","","","animation","69","1539212","0.0-69.0","1920x1080","","11064.600000023842","17.20","img/314/5.5/1.5/bw/001.png","","","complex"
"","","","","","animation","70","1545115","0.0-70.0","1920x1080","","5900.600000023842","55.42","img/238/4/0.5/bw/001.png","","","complex"
"","","","","","animation","71","1553115","0.0-71.0","1920x1080","","7999","27.91","img/314/5.5/1/bw/001.png","","","complex"
"","","","","","animation","72","1560299","0.0-72.0","1920x1080","","7182.699999988079","25.26","img/117/3.5/2/bw/001.png","","","complex"
"","","","","","animation","73","1589979","0.0-73.0","1920x1080","","29678.80000001192","61.77","img/117/5.5/0.5/bw/001.png","","","complex"
"","","","","","animation","74","1596875","0.0-74.0","1920x1080","","6895.599999964237","53.31","img/314/4/0.66667/bw/001.png","","","complex"
"","","","","","animation","75","1601251","0.0-75.0","1920x1080","","4374.600000023842","76.85","img/117/5.5/0.66667/bw/001.png","","","complex"
"","","","","","animation","76","1603708","0.0-76.0","1920x1080","","2455.399999976158","21.96","img/314/4/1/bw/001.png","","","complex"
"","","","","","animation","77","1609065","0.0-77.0","1920x1080","","5359.299999952316","11.38","img/314/3.5/0.5/bw/001.png","","","complex"
"","","","","","animation","78","1613296","0.0-78.0","1920x1080","","4229.300000011921","5.03","img/117/3.5/1.5/bw/001.png","","","complex"
"","","","","","animation","79","1616848","0.0-79.0","1920x1080","","3551","80.95","img/238/2.5/0.5/bw/001.png","","","complex"
"","","","","","animation","80","1625200","0.0-80.0","1920x1080","","8351","2","img/238/2.5/1.5/bw/001.png","","","complex"
"","","","","","animation","81","1629865","0.0-81.0","1920x1080","","4663.699999988079","9.39","img/117/4/1/bw/001.png","","","complex"
"","","","","","html-button-response","82","1649905","0.0-82.0","1920x1080","","20037.799999952316","","<div class=""intro"">You are about to view a new series of animations.<br><br></div><div class=""intro"">You will evaluate them based on a different descriptor.<br><br></div><div class=""intro"">Move the slider to indicate how <strong style=""text-transform:capitalize"">NATURAL</strong> you find each animation.<br><br></div><div class=""intro"">0 = Least Natural<br></div><div class=""intro"">1 = Most Natural<br><br></div><div class=""intro"">Remember to use the <strong><em>entire range</em></strong> of the slider to make your ratings.<br></div><div class=""intro"">Please <strong><em>take your time</em></strong> and carefully consider each rating you make.<br><br></div>","0","",""
"","","","","","call-function","83","1649906","0.0-83.0","1920x1080","","","","","","",""
"","","","","","animation","84","1660112","0.0-84.0","1920x1080","","10205.5","91.53","img/314/5.5/2/bw/001.png","","","natural"
"","","","","","animation","85","1665145","0.0-85.0","1920x1080","","5030.800000011921","77.12","img/238/4.5/1/bw/001.png","","","natural"
"","","","","","animation","86","1670860","0.0-86.0","1920x1080","","5714.699999988079","87.57","img/117/4.5/0.66667/bw/001.png","","","natural"
"","","","","","animation","87","1674697","0.0-87.0","1920x1080","","3834.899999976158","86.64","img/238/4/0.66667/bw/001.png","","","natural"
"","","","","","animation","88","1682937","0.0-88.0","1920x1080","","8238.800000011921","100","img/238/4.5/1.5/bw/001.png","","","natural"
"","","","","","animation","89","1686745","0.0-89.0","1920x1080","","3806.5","33.47","img/314/4.5/0.5/bw/001.png","","","natural"
"","","","","","animation","90","1691617","0.0-90.0","1920x1080","","4871.199999988079","60.32","img/117/4/0.5/bw/001.png","","","natural"
"","","","","","animation","91","1697489","0.0-91.0","1920x1080","","5871.399999976158","81.48","img/117/2.5/0.5/bw/001.png","","","natural"
"","","","","","animation","92","1701313","0.0-92.0","1920x1080","","3822.300000011921","11.90","img/117/2.5/1.5/bw/001.png","","","natural"
"","","","","","animation","93","1704233","0.0-93.0","1920x1080","","2919.300000011921","21.96","img/314/3.5/0.66667/bw/001.png","","","natural"
"","","","","","animation","94","1707345","0.0-94.0","1920x1080","","3111.5","13.76","img/238/4.5/0.5/bw/001.png","","","natural"
"","","","","","animation","95","1710161","0.0-95.0","1920x1080","","2814","88.49","img/117/5.5/0.66667/bw/001.png","","","natural"
"","","","","","animation","96","1714121","0.0-96.0","1920x1080","","3959.2999999523163","20.50","img/238/4/2/bw/001.png","","","natural"
"","","","","","animation","97","1720305","0.0-97.0","1920x1080","","6183.199999988079","29.37","img/314/4.5/1.5/bw/001.png","","","natural"
"","","","","","animation","98","1723153","0.0-98.0","1920x1080","","2847","72.35","img/117/3.5/0.5/bw/001.png","","","natural"
"","","","","","animation","99","1730663","0.0-99.0","1920x1080","","7510.700000047684","16.93","img/314/4/1.5/bw/001.png","","","natural"
"","","","","","animation","100","1735767","0.0-100.0","1920x1080","","5103.400000035763","55","img/314/2.5/1.5/bw/001.png","","","natural"
"","","","","","animation","101","1738743","0.0-101.0","1920x1080","","2974.5","93.65","img/314/5.5/0.5/bw/001.png","","","natural"
"","","","","","animation","102","1742409","0.0-102.0","1920x1080","","3665.5","100","img/117/5.5/0.5/bw/001.png","","","natural"
"","","","","","animation","103","1747025","0.0-103.0","1920x1080","","4614.400000035763","53.44","img/238/4/1/bw/001.png","","","natural"
"","","","","","animation","104","1751695","0.0-104.0","1920x1080","","4668.800000011921","74.74","img/238/3.5/0.66667/bw/001.png","","","natural"
"","","","","","animation","105","1756127","0.0-105.0","1920x1080","","4430.900000035763","80.95","img/117/4.5/1.5/bw/001.png","","","natural"
"","","","","","animation","106","1760831","0.0-106.0","1920x1080","","4702.900000035763","100","img/238/4/0.5/bw/001.png","","","natural"
"","","","","","animation","107","1764742","0.0-107.0","1920x1080","","3910.600000023842","18.78","img/238/4/1.5/bw/001.png","","","natural"
"","","","","","animation","108","1769879","0.0-108.0","1920x1080","","5135.5","47.62","img/314/3.5/0.5/bw/001.png","","","natural"
"","","","","","animation","109","1777192","0.0-109.0","1920x1080","","7311.699999988079","12.17","img/238/2.5/0.5/bw/001.png","","","natural"
"","","","","","animation","110","1785039","0.0-110.0","1920x1080","","7848.200000047684","88","img/117/2.5/2/bw/001.png","","","natural"
"","","","","","animation","111","1790261","0.0-111.0","1920x1080","","5220.399999976158","53.97","img/314/4/1/bw/001.png","","","natural"
"","","","","","animation","112","1797493","0.0-112.0","1920x1080","","7231","50.93","img/117/3.5/2/bw/001.png","","","natural"
"","","","","","animation","113","1803045","0.0-113.0","1920x1080","","5551.300000011921","100","img/238/5.5/1/bw/001.png","","","natural"
"","","","","","animation","114","1808413","0.0-114.0","1920x1080","","5366.699999988079","27.25","img/238/3.5/2/bw/001.png","","","natural"
"","","","","","animation","115","1811806","0.0-115.0","1920x1080","","3392.199999988079","47.62","img/314/4/0.5/bw/001.png","","","natural"
"","","","","","animation","116","1816309","0.0-116.0","1920x1080","","4501.100000023842","66.80","img/238/4.5/2/bw/001.png","","","natural"
"","","","","","animation","117","1818565","0.0-117.0","1920x1080","","2255.5","51.98","img/238/2.5/2/bw/001.png","","","natural"
"","","","","","animation","118","1821445","0.0-118.0","1920x1080","","2879.199999988079","78.97","img/117/4.5/2/bw/001.png","","","natural"
"","","","","","animation","119","1825245","0.0-119.0","1920x1080","","3798.699999988079","69.84","img/314/2.5/2/bw/001.png","","","natural"
"","","","","","animation","120","1832277","0.0-120.0","1920x1080","","7031","29.50","img/117/4.5/1/bw/001.png","","","natural"
"","","","","","animation","121","1836857","0.0-121.0","1920x1080","","4578.800000011921","72.62","img/314/2.5/0.5/bw/001.png","","","natural"
"","","","","","animation","122","1848164","0.0-122.0","1920x1080","","11307.100000023842","71.16","img/117/2.5/1/bw/001.png","","","natural"
"","","","","","animation","123","1858612","0.0-123.0","1920x1080","","10446.800000011921","100","img/238/5.5/1.5/bw/001.png","","","natural"
"","","","","","animation","124","1860900","0.0-124.0","1920x1080","","2286.5","47.09","img/238/2.5/0.66667/bw/001.png","","","natural"
"","","","","","animation","125","1864605","0.0-125.0","1920x1080","","3704.199999988079","97","img/117/5.5/1/bw/001.png","","","natural"
"","","","","","animation","126","1866996","0.0-126.0","1920x1080","","2389.599999964237","32.54","img/117/2.5/0.66667/bw/001.png","","","natural"
"","","","","","animation","127","1870116","0.0-127.0","1920x1080","","3119.199999988079","78.04","img/314/4.5/2/bw/001.png","","","natural"
"","","","","","animation","128","1872255","0.0-128.0","1920x1080","","2137.7000000476837","94","img/117/5.5/1.5/bw/001.png","","","natural"
"","","","","","animation","129","1875676","0.0-129.0","1920x1080","","3420.5","58.60","img/117/3.5/1.5/bw/001.png","","","natural"
"","","","","","animation","130","1880260","0.0-130.0","1920x1080","","4582.800000011921","87.43","img/314/5.5/1.5/bw/001.png","","","natural"
"","","","","","animation","131","1884060","0.0-131.0","1920x1080","","3799.099999964237","94","img/238/5.5/0.66667/bw/001.png","","","natural"
"","","","","","animation","132","1886088","0.0-132.0","1920x1080","","2027.5","99","img/314/5.5/0.66667/bw/001.png","","","natural"
"","","","","","animation","133","1888292","0.0-133.0","1920x1080","","2202.400000035763","44.58","img/238/3.5/1/bw/001.png","","","natural"
"","","","","","animation","134","1890628","0.0-134.0","1920x1080","","2335.2999999523163","27.38","img/238/3.5/1.5/bw/001.png","","","natural"
"","","","","","animation","135","1894932","0.0-135.0","1920x1080","","4303","39.55","img/117/3.5/0.66667/bw/001.png","","","natural"
"","","","","","animation","136","1898228","0.0-136.0","1920x1080","","3295.300000011921","44.84","img/314/4.5/1/bw/001.png","","","natural"
"","","","","","animation","137","1900422","0.0-137.0","1920x1080","","2192.600000023842","52.51","img/117/4/1/bw/001.png","","","natural"
"","","","","","animation","138","1903005","0.0-138.0","1920x1080","","2582.300000011921","74.21","img/117/4.5/0.5/bw/001.png","","","natural"
"","","","","","animation","139","1905742","0.0-139.0","1920x1080","","2733.5","99","img/238/5.5/2/bw/001.png","","","natural"
"","","","","","animation","140","1908063","0.0-140.0","1920x1080","","2319.199999988079","24.21","img/117/4/2/bw/001.png","","","natural"
"","","","","","animation","141","1910599","0.0-141.0","1920x1080","","2535.300000011921","33.47","img/117/4/1.5/bw/001.png","","","natural"
"","","","","","animation","142","1913727","0.0-142.0","1920x1080","","3126.7000000476837","89.15","img/238/5.5/0.5/bw/001.png","","","natural"
"","","","","","animation","143","1917326","0.0-143.0","1920x1080","","3598.5","100","img/117/5.5/2/bw/001.png","","","natural"
"","","","","","animation","144","1919415","0.0-144.0","1920x1080","","2087.399999976158","94.58","img/314/4/2/bw/001.png","","","natural"
"","","","","","animation","145","1921799","0.0-145.0","1920x1080","","2383","28.97","img/238/3.5/0.5/bw/001.png","","","natural"
"","","","","","animation","146","1926110","0.0-146.0","1920x1080","","4310.600000023842","35","img/314/2.5/0.66667/bw/001.png","","","natural"
"","","","","","animation","147","1928742","0.0-147.0","1920x1080","","2631.100000023842","85.71","img/314/4.5/0.66667/bw/001.png","","","natural"
"","","","","","animation","148","1931158","0.0-148.0","1920x1080","","2415","30.16","img/314/2.5/1/bw/001.png","","","natural"
"","","","","","animation","149","1933815","0.0-149.0","1920x1080","","2655.2999999523163","99","img/314/5.5/1/bw/001.png","","","natural"
"","","","","","animation","150","1936367","0.0-150.0","1920x1080","","2551.100000023842","44.18","img/314/4/0.66667/bw/001.png","","","natural"
"","","","","","animation","151","1939431","0.0-151.0","1920x1080","","3062.699999988079","25.00","img/314/3.5/1/bw/001.png","","","natural"
"","","","","","animation","152","1943558","0.0-152.0","1920x1080","","4126.5","10.98","img/238/2.5/1.5/bw/001.png","","","natural"
"","","","","","animation","153","1945926","0.0-153.0","1920x1080","","2366.7000000476837","68.92","img/238/2.5/1/bw/001.png","","","natural"
"","","","","","animation","154","1948183","0.0-154.0","1920x1080","","2255.5","93.25","img/238/4.5/0.66667/bw/001.png","","","natural"
"","","","","","animation","155","1951491","0.0-155.0","1920x1080","","3307","35.98","img/314/3.5/1.5/bw/001.png","","","natural"
"","","","","","animation","156","1954024","0.0-156.0","1920x1080","","2532.5","20.77","img/314/3.5/2/bw/001.png","","","natural"
"","","","","","animation","157","1962791","0.0-157.0","1920x1080","","8765.800000011921","25.26","img/117/3.5/1/bw/001.png","","","natural"
"","","","","","animation","158","1965018","0.0-158.0","1920x1080","","2222.800000011921","30.95","img/117/4/0.66667/bw/001.png","","","natural"
"","","","","","html-button-response","159","1984970","0.0-159.0","1920x1080","","19951.100000023842","","<div class=""intro"">You are about to view a new series of animations.<br><br></div><div class=""intro"">You will evaluate them based on a different descriptor.<br><br></div><div class=""intro"">Move the slider to indicate how <strong style=""text-transform:capitalize"">APPEALING</strong> you find each animation.<br><br></div><div class=""intro"">0 = Least Appealing<br></div><div class=""intro"">1 = Most Appealing<br><br></div><div class=""intro"">Remember to use the <strong><em>entire range</em></strong> of the slider to make your ratings.<br></div><div class=""intro"">Please <strong><em>take your time</em></strong> and carefully consider each rating you make.<br><br></div>","0","",""
"","","","","","call-function","160","1984971","0.0-160.0","1920x1080","","","","","","",""
"","","","","","animation","161","1990443","0.0-161.0","1920x1080","","5471.399999976158","9.79","img/117/2.5/0.66667/bw/001.png","","","appealing"
"","","","","","animation","162","1993754","0.0-162.0","1920x1080","","3308.899999976158","37.43","img/117/3.5/1/bw/001.png","","","appealing"
"","","","","","animation","163","1997093","0.0-163.0","1920x1080","","3338.599999964237","14","img/238/2.5/0.66667/bw/001.png","","","appealing"
"","","","","","animation","164","2001377","0.0-164.0","1920x1080","","4282.900000035763","100","img/117/5.5/2/bw/001.png","","","appealing"
"","","","","","animation","165","2004650","0.0-165.0","1920x1080","","3271.5","73.41","img/238/4/1/bw/001.png","","","appealing"
"","","","","","animation","166","2006660","0.0-166.0","1920x1080","","2009.6000000238419","32.80","img/117/4/1/bw/001.png","","","appealing"
"","","","","","animation","167","2009065","0.0-167.0","1920x1080","","2404.300000011921","38.49","img/238/3.5/2/bw/001.png","","","appealing"
"","","","","","animation","168","2011929","0.0-168.0","1920x1080","","2862.600000023842","41.53","img/314/4.5/2/bw/001.png","","","appealing"
"","","","","","animation","169","2015511","0.0-169.0","1920x1080","","3581.2999999523163","66","img/238/2.5/1.5/bw/001.png","","","appealing"
"","","","","","animation","170","2018986","0.0-170.0","1920x1080","","3473","98","img/238/5.5/1/bw/001.png","","","appealing"
"","","","","","animation","171","2022545","0.0-171.0","1920x1080","","3558.5","60.71","img/238/4.5/1/bw/001.png","","","appealing"
"","","","","","animation","172","2027108","0.0-172.0","1920x1080","","4566.900000035763","97","img/238/5.5/1.5/bw/001.png","","","appealing"
"","","","","","animation","173","2033524","0.0-173.0","1920x1080","","6414.600000023842","72","img/314/4.5/0.66667/bw/001.png","","","appealing"
"","","","","","animation","174","2036932","0.0-174.0","1920x1080","","3407.400000035763","84.26","img/117/2.5/2/bw/001.png","","","appealing"
"","","","","","animation","175","2043196","0.0-175.0","1920x1080","","6262.799999952316","41.01","img/314/3.5/2/bw/001.png","","","appealing"
"","","","","","animation","176","2046892","0.0-176.0","1920x1080","","3694.699999988079","2.51","img/238/3.5/1/bw/001.png","","","appealing"
"","","","","","animation","177","2051921","0.0-177.0","1920x1080","","5027.800000011921","51.06","img/238/3.5/0.5/bw/001.png","","","appealing"
"","","","","","animation","178","2060524","0.0-178.0","1920x1080","","8601.600000023842","95","img/117/5.5/0.66667/bw/001.png","","","appealing"
"","","","","","animation","179","2063156","0.0-179.0","1920x1080","","2630.699999988079","12.96","img/314/4/1.5/bw/001.png","","","appealing"
"","","","","","animation","180","2066444","0.0-180.0","1920x1080","","3287","22.75","img/314/2.5/0.5/bw/001.png","","","appealing"
"","","","","","animation","181","2070022","0.0-181.0","1920x1080","","3575.800000011921","21.30","img/314/2.5/1/bw/001.png","","","appealing"
"","","","","","animation","182","2073492","0.0-182.0","1920x1080","","3469.099999964237","19.44","img/314/3.5/0.66667/bw/001.png","","","appealing"
"","","","","","animation","183","2077644","0.0-183.0","1920x1080","","4151.100000023842","19.84","img/314/4.5/1/bw/001.png","","","appealing"
"","","","","","animation","184","2081088","0.0-184.0","1920x1080","","3442.899999976158","41.80","img/314/3.5/0.5/bw/001.png","","","appealing"
"","","","","","animation","185","2083940","0.0-185.0","1920x1080","","2850.7000000476837","37.17","img/117/2.5/1/bw/001.png","","","appealing"
"","","","","","animation","186","2089404","0.0-186.0","1920x1080","","5463.899999976158","71","img/314/4/2/bw/001.png","","","appealing"
"","","","","","animation","187","2092204","0.0-187.0","1920x1080","","2799.199999988079","73.15","img/238/4/2/bw/001.png","","","appealing"
"","","","","","animation","188","2097188","0.0-188.0","1920x1080","","4982.899999976158","53.97","img/238/4/0.5/bw/001.png","","","appealing"
"","","","","","animation","189","2103595","0.0-189.0","1920x1080","","6406.300000011921","100","img/314/5.5/1/bw/001.png","","","appealing"
"","","","","","animation","190","2107027","0.0-190.0","1920x1080","","3430.100000023842","27.51","img/314/2.5/2/bw/001.png","","","appealing"
"","","","","","animation","191","2110271","0.0-191.0","1920x1080","","3242.800000011921","90","img/238/4.5/0.5/bw/001.png","","","appealing"
"","","","","","animation","192","2116454","0.0-192.0","1920x1080","","6179.5","32.67","img/117/4/1.5/bw/001.png","","","appealing"
"","","","","","animation","193","2123204","0.0-193.0","1920x1080","","6748.199999988079","100","img/314/5.5/1.5/bw/001.png","","","appealing"
"","","","","","animation","194","2128637","0.0-194.0","1920x1080","","5432","25","img/314/2.5/0.66667/bw/001.png","","","appealing"
"","","","","","animation","195","2131720","0.0-195.0","1920x1080","","3081.699999988079","132.28","img/314/5.5/0.5/bw/001.png","","","appealing"
"","","","","","animation","196","2137291","0.0-196.0","1920x1080","","5569.100000023842","35","img/117/3.5/2/bw/001.png","","","appealing"
"","","","","","animation","197","2141454","0.0-197.0","1920x1080","","4161.899999976158","97","img/117/5.5/1.5/bw/001.png","","","appealing"
"","","","","","animation","198","2145106","0.0-198.0","1920x1080","","3648.800000011921","31.08","img/117/4/2/bw/001.png","","","appealing"
"","","","","","animation","199","2148582","0.0-199.0","1920x1080","","3474.300000011921","48.68","img/117/4.5/0.66667/bw/001.png","","","appealing"
"","","","","","animation","200","2152094","0.0-200.0","1920x1080","","3510.899999976158","81.22","img/117/5.5/0.5/bw/001.png","","","appealing"
"","","","","","animation","201","2155782","0.0-201.0","1920x1080","","3687","19.71","img/314/2.5/1.5/bw/001.png","","","appealing"
"","","","","","animation","202","2158846","0.0-202.0","1920x1080","","3063","30.16","img/238/2.5/2/bw/001.png","","","appealing"
"","","","","","animation","203","2167539","0.0-203.0","1920x1080","","8692.100000023842","100.66","img/238/5.5/0.5/bw/001.png","","","appealing"
"","","","","","animation","204","2171998","0.0-204.0","1920x1080","","4457.100000023842","29.89","img/117/2.5/0.5/bw/001.png","","","appealing"
"","","","","","animation","205","2182062","0.0-205.0","1920x1080","","10063","61.51","img/314/4.5/0.5/bw/001.png","","","appealing"
"","","","","","animation","206","2186309","0.0-206.0","1920x1080","","4246.300000011921","52.91","img/117/4/0.5/bw/001.png","","","appealing"
"","","","","","animation","207","2193273","0.0-207.0","1920x1080","","6962.399999976158","35.19","img/238/3.5/1.5/bw/001.png","","","appealing"
"","","","","","animation","208","2195341","0.0-208.0","1920x1080","","2067.599999964237","42.06","img/314/4.5/1.5/bw/001.png","","","appealing"
"","","","","","animation","209","2197106","0.0-209.0","1920x1080","","1763.5","73.02","img/117/4.5/1.5/bw/001.png","","","appealing"
"","","","","","animation","210","2199846","0.0-210.0","1920x1080","","2738.5","29.63","img/117/3.5/1.5/bw/001.png","","","appealing"
"","","","","","animation","211","2208737","0.0-211.0","1920x1080","","8892.699999988079","7.41","img/117/4.5/2/bw/001.png","","","appealing"
"","","","","","animation","212","2211721","0.0-212.0","1920x1080","","2982.899999976158","19.71","img/238/4/0.66667/bw/001.png","","","appealing"
"","","","","","animation","213","2215004","0.0-213.0","1920x1080","","3281.300000011921","77.12","img/117/4.5/1/bw/001.png","","","appealing"
"","","","","","animation","214","2219337","0.0-214.0","1920x1080","","4332.299999952316","21.16","img/314/3.5/1/bw/001.png","","","appealing"
"","","","","","animation","215","2223011","0.0-215.0","1920x1080","","3672.899999976158","33.99","img/117/4/0.66667/bw/001.png","","","appealing"
"","","","","","animation","216","2226291","0.0-216.0","1920x1080","","3278.399999976158","33.20","img/238/4/1.5/bw/001.png","","","appealing"
"","","","","","animation","217","2234323","0.0-217.0","1920x1080","","8030.600000023842","101.19","img/314/5.5/2/bw/001.png","","","appealing"
"","","","","","animation","218","2236563","0.0-218.0","1920x1080","","2239.199999988079","37.57","img/117/4.5/0.5/bw/001.png","","","appealing"
"","","","","","animation","219","2239675","0.0-219.0","1920x1080","","3110.800000011921","35.05","img/238/4.5/0.66667/bw/001.png","","","appealing"
"","","","","","animation","220","2244027","0.0-220.0","1920x1080","","4348.800000011921","41.80","img/314/3.5/1.5/bw/001.png","","","appealing"
"","","","","","animation","221","2246355","0.0-221.0","1920x1080","","2326.2000000476837","23.15","img/314/4/0.66667/bw/001.png","","","appealing"
"","","","","","animation","222","2254270","0.0-222.0","1920x1080","","7914.300000011921","69.05","img/238/4.5/2/bw/001.png","","","appealing"
"","","","","","animation","223","2261720","0.0-223.0","1920x1080","","7447.700000047684","84.79","img/117/5.5/1/bw/001.png","","","appealing"
"","","","","","animation","224","2274013","0.0-224.0","1920x1080","","12289.800000011921","100","img/238/5.5/2/bw/001.png","","","appealing"
"","","","","","animation","225","2276405","0.0-225.0","1920x1080","","2390.5","26.59","img/314/4/0.5/bw/001.png","","","appealing"
"","","","","","animation","226","2282413","0.0-226.0","1920x1080","","6006.5","35.58","img/314/4/1/bw/001.png","","","appealing"
"","","","","","animation","227","2285689","0.0-227.0","1920x1080","","3273.899999976158","74.74","img/117/2.5/1.5/bw/001.png","","","appealing"
"","","","","","animation","228","2289509","0.0-228.0","1920x1080","","3818.800000011921","79.89","img/238/2.5/0.5/bw/001.png","","","appealing"
"","","","","","animation","229","2293555","0.0-229.0","1920x1080","","4045.599999964237","99","img/238/5.5/0.66667/bw/001.png","","","appealing"
"","","","","","animation","230","2296472","0.0-230.0","1920x1080","","2915.5","30.03","img/117/3.5/0.66667/bw/001.png","","","appealing"
"","","","","","animation","231","2299045","0.0-231.0","1920x1080","","2571.5","37.96","img/238/3.5/0.66667/bw/001.png","","","appealing"
"","","","","","animation","232","2304645","0.0-232.0","1920x1080","","5599","58.86","img/238/4.5/1.5/bw/001.png","","","appealing"
"","","","","","animation","233","2313089","0.0-233.0","1920x1080","","8442.699999988079","79.37","img/314/5.5/0.66667/bw/001.png","","","appealing"
"","","","","","animation","234","2316172","0.0-234.0","1920x1080","","3082.2999999523163","24.21","img/117/3.5/0.5/bw/001.png","","","appealing"
"","","","","","animation","235","2319773","0.0-235.0","1920x1080","","3599.800000011921","48.68","img/238/2.5/1/bw/001.png","","","appealing"
"","","","","","html-button-response","236","2338795","0.0-236.0","1920x1080","","19015.19999998808","","<div class=""intro"">You are about to view a new series of animations.<br><br></div><div class=""intro"">You will evaluate them based on a different descriptor.<br><br></div><div class=""intro"">Move the slider to indicate how <strong style=""text-transform:capitalize"">INTERESTING</strong> you find each animation.<br><br></div><div class=""intro"">0 = Least Interesting<br></div><div class=""intro"">1 = Most Interesting<br><br></div><div class=""intro"">Remember to use the <strong><em>entire range</em></strong> of the slider to make your ratings.<br></div><div class=""intro"">Please <strong><em>take your time</em></strong> and carefully consider each rating you make.<br><br></div>","0","",""
"","","","","","call-function","237","2338796","0.0-237.0","1920x1080","","","","","","",""
"","","","","","animation","238","2343494","0.0-238.0","1920x1080","","4697.800000011921","4.89","img/314/4/2/bw/001.png","","","interesting"
"","","","","","animation","239","2346811","0.0-239.0","1920x1080","","3315.300000011921","15.21","img/117/4/1.5/bw/001.png","","","interesting"
"","","","","","animation","240","2351644","0.0-240.0","1920x1080","","4831.399999976158","20","img/117/2.5/2/bw/001.png","","","interesting"
"","","","","","animation","241","2355361","0.0-241.0","1920x1080","","3715.800000011921","34.66","img/117/3.5/0.5/bw/001.png","","","interesting"
"","","","","","animation","242","2359163","0.0-242.0","1920x1080","","3800.199999988079","10.85","img/117/4.5/1/bw/001.png","","","interesting"
"","","","","","animation","243","2363331","0.0-243.0","1920x1080","","4166.100000023842","23.41","img/314/4.5/1/bw/001.png","","","interesting"
"","","","","","animation","244","2367379","0.0-244.0","1920x1080","","4046.2000000476837","76.98","img/238/4.5/0.5/bw/001.png","","","interesting"
"","","","","","animation","245","2375363","0.0-245.0","1920x1080","","7982.700000047684","72.62","img/238/5.5/2/bw/001.png","","","interesting"
"","","","","","animation","246","2379678","0.0-246.0","1920x1080","","4313.900000035763","85.71","img/238/4.5/1/bw/001.png","","","interesting"
"","","","","","animation","247","2384553","0.0-247.0","1920x1080","","4881.699999988079","89.68","img/117/5.5/0.66667/bw/001.png","","","interesting"
"","","","","","animation","248","2386795","0.0-248.0","1920x1080","","2240.600000023842","60.32","img/117/3.5/1.5/bw/001.png","","","interesting"
"","","","","","animation","249","2389036","0.0-249.0","1920x1080","","2239.7000000476837","55.03","img/117/4.5/1.5/bw/001.png","","","interesting"
"","","","","","animation","250","2391586","0.0-250.0","1920x1080","","2549","53.57","img/314/3.5/1.5/bw/001.png","","","interesting"
"","","","","","animation","251","2393737","0.0-251.0","1920x1080","","2149.7000000476837","51.59","img/238/4/1/bw/001.png","","","interesting"
"","","","","","animation","252","2397503","0.0-252.0","1920x1080","","3765.099999964237","43.52","img/117/4/1/bw/001.png","","","interesting"
"","","","","","animation","253","2400338","0.0-253.0","1920x1080","","2834.199999988079","35.05","img/117/3.5/2/bw/001.png","","","interesting"
"","","","","","animation","254","2404827","0.0-254.0","1920x1080","","4486.900000035763","61.90","img/238/4.5/2/bw/001.png","","","interesting"
"","","","","","animation","255","2408738","0.0-255.0","1920x1080","","3910.199999988079","37.57","img/238/4.5/1.5/bw/001.png","","","interesting"
"","","","","","animation","256","2412552","0.0-256.0","1920x1080","","3813.100000023842","62.17","img/238/2.5/0.66667/bw/001.png","","","interesting"
"","","","","","animation","257","2420286","0.0-257.0","1920x1080","","7732.300000011921","37.17","img/238/3.5/2/bw/001.png","","","interesting"
"","","","","","animation","258","2422703","0.0-258.0","1920x1080","","2415.300000011921","29.50","img/314/3.5/2/bw/001.png","","","interesting"
"","","","","","animation","259","2425138","0.0-259.0","1920x1080","","2434.399999976158","26.72","img/117/4/0.66667/bw/001.png","","","interesting"
"","","","","","animation","260","2429939","0.0-260.0","1920x1080","","4799.100000023842","88.89","img/117/4/0.5/bw/001.png","","","interesting"
"","","","","","animation","261","2432419","0.0-261.0","1920x1080","","2477.7999999523163","60.32","img/117/3.5/1/bw/001.png","","","interesting"
"","","","","","animation","262","2435236","0.0-262.0","1920x1080","","2815.399999976158","42.72","img/238/2.5/2/bw/001.png","","","interesting"
"","","","","","animation","263","2440459","0.0-263.0","1920x1080","","5220.800000011921","69.18","img/117/4.5/2/bw/001.png","","","interesting"
"","","","","","animation","264","2451385","0.0-264.0","1920x1080","","10926.399999976158","67.86","img/238/2.5/1.5/bw/001.png","","","interesting"
"","","","","","animation","265","2454469","0.0-265.0","1920x1080","","3082.2999999523163","49.07","img/117/4/2/bw/001.png","","","interesting"
"","","","","","animation","266","2460369","0.0-266.0","1920x1080","","5899","86.77","img/314/5.5/1/bw/001.png","","","interesting"
"","","","","","animation","267","2464371","0.0-267.0","1920x1080","","4000","72.35","img/314/2.5/1/bw/001.png","","","interesting"
"","","","","","animation","268","2471826","0.0-268.0","1920x1080","","7453.100000023842","73.02","img/314/3.5/1/bw/001.png","","","interesting"
"","","","","","animation","269","2475185","0.0-269.0","1920x1080","","3358.300000011921","37.70","img/117/2.5/0.66667/bw/001.png","","","interesting"
"","","","","","animation","270","2481602","0.0-270.0","1920x1080","","6412.400000035763","61.11","img/117/4.5/0.66667/bw/001.png","","","interesting"
"","","","","","animation","271","2503551","0.0-271.0","1920x1080","","21948.600000023842","99","img/314/5.5/0.5/bw/001.png","","","interesting"
"","","","","","animation","272","2505987","0.0-272.0","1920x1080","","2432.300000011921","76","img/238/3.5/1.5/bw/001.png","","","interesting"
"","","","","","animation","273","2511437","0.0-273.0","1920x1080","","5448.5","21","img/117/2.5/1/bw/001.png","","","interesting"
"","","","","","animation","274","2521104","0.0-274.0","1920x1080","","9665.599999964237","100","img/117/5.5/0.5/bw/001.png","","","interesting"
"","","","","","animation","275","2523876","0.0-275.0","1920x1080","","2770.7000000476837","20.50","img/314/2.5/1.5/bw/001.png","","","interesting"
"","","","","","animation","276","2525920","0.0-276.0","1920x1080","","2043","47.35","img/314/3.5/0.5/bw/001.png","","","interesting"
"","","","","","animation","277","2528337","0.0-277.0","1920x1080","","2416.099999964237","64.95","img/238/4/0.5/bw/001.png","","","interesting"
"","","","","","animation","278","2531770","0.0-278.0","1920x1080","","3432.199999988079","100","img/238/5.5/0.5/bw/001.png","","","interesting"
"","","","","","animation","279","2534060","0.0-279.0","1920x1080","","2287.600000023842","30.56","img/314/2.5/2/bw/001.png","","","interesting"
"","","","","","animation","280","2537253","0.0-280.0","1920x1080","","3192.400000035763","42.33","img/238/3.5/0.5/bw/001.png","","","interesting"
"","","","","","animation","281","2543003","0.0-281.0","1920x1080","","5748.799999952316","36.90","img/117/2.5/1.5/bw/001.png","","","interesting"
"","","","","","animation","282","2545846","0.0-282.0","1920x1080","","2840.899999976158","67.86","img/314/4/0.5/bw/001.png","","","interesting"
"","","","","","animation","283","2548428","0.0-283.0","1920x1080","","2580.5","61.77","img/314/4.5/2/bw/001.png","","","interesting"
"","","","","","animation","284","2552003","0.0-284.0","1920x1080","","3574.2999999523163","70.24","img/238/4/1.5/bw/001.png","","","interesting"
"","","","","","animation","285","2554954","0.0-285.0","1920x1080","","2948.600000023842","56.48","img/314/4.5/1.5/bw/001.png","","","interesting"
"","","","","","animation","286","2557204","0.0-286.0","1920x1080","","2249","48.81","img/314/4/0.66667/bw/001.png","","","interesting"
"","","","","","animation","287","2561244","0.0-287.0","1920x1080","","4038.900000035763","76.85","img/238/5.5/1/bw/001.png","","","interesting"
"","","","","","animation","288","2566987","0.0-288.0","1920x1080","","5742","100","img/238/5.5/0.66667/bw/001.png","","","interesting"
"","","","","","animation","289","2569939","0.0-289.0","1920x1080","","2950.5","34.92","img/238/3.5/1/bw/001.png","","","interesting"
"","","","","","animation","290","2573420","0.0-290.0","1920x1080","","3479.800000011921","88.89","img/238/4.5/0.66667/bw/001.png","","","interesting"
"","","","","","animation","291","2576619","0.0-291.0","1920x1080","","3197.399999976158","10.19","img/238/2.5/1/bw/001.png","","","interesting"
"","","","","","animation","292","2581753","0.0-292.0","1920x1080","","5132.600000023842","72.75","img/238/4/0.66667/bw/001.png","","","interesting"
"","","","","","animation","293","2587120","0.0-293.0","1920x1080","","5365.100000023842","72.88","img/117/5.5/1.5/bw/001.png","","","interesting"
"","","","","","animation","294","2592337","0.0-294.0","1920x1080","","5215.799999952316","14.42","img/117/2.5/0.5/bw/001.png","","","interesting"
"","","","","","animation","295","2595355","0.0-295.0","1920x1080","","3017","76.06","img/117/4.5/0.5/bw/001.png","","","interesting"
"","","","","","animation","296","2597787","0.0-296.0","1920x1080","","2430.100000023842","50.66","img/314/3.5/0.66667/bw/001.png","","","interesting"
"","","","","","animation","297","2600003","0.0-297.0","1920x1080","","2215.100000023842","36.11","img/238/4/2/bw/001.png","","","interesting"
"","","","","","animation","298","2603537","0.0-298.0","1920x1080","","3532","22.35","img/314/2.5/0.5/bw/001.png","","","interesting"
"","","","","","animation","299","2610095","0.0-299.0","1920x1080","","6556.199999988079","79.23","img/314/5.5/1.5/bw/001.png","","","interesting"
"","","","","","animation","300","2613539","0.0-300.0","1920x1080","","3442.199999988079","85.45","img/314/4.5/0.5/bw/001.png","","","interesting"
"","","","","","animation","301","2615523","0.0-301.0","1920x1080","","1982.800000011921","54.89","img/238/3.5/0.66667/bw/001.png","","","interesting"
"","","","","","animation","302","2618843","0.0-302.0","1920x1080","","3319.100000023842","36.24","img/314/2.5/0.66667/bw/001.png","","","interesting"
"","","","","","animation","303","2622740","0.0-303.0","1920x1080","","3895.2000000476837","99","img/314/5.5/0.66667/bw/001.png","","","interesting"
"","","","","","animation","304","2626676","0.0-304.0","1920x1080","","3933.7000000476837","15.48","img/238/2.5/0.5/bw/001.png","","","interesting"
"","","","","","animation","305","2635172","0.0-305.0","1920x1080","","8494.300000011921","86.77","img/238/5.5/1.5/bw/001.png","","","interesting"
"","","","","","animation","306","2638471","0.0-306.0","1920x1080","","3297.5","26.72","img/117/3.5/0.66667/bw/001.png","","","interesting"
"","","","","","animation","307","2640692","0.0-307.0","1920x1080","","2220","80.16","img/117/5.5/1/bw/001.png","","","interesting"
"","","","","","animation","308","2644104","0.0-308.0","1920x1080","","3410.600000023842","88.89","img/117/5.5/2/bw/001.png","","","interesting"
"","","","","","animation","309","2647044","0.0-309.0","1920x1080","","2938.599999964237","11.90","img/314/4/1.5/bw/001.png","","","interesting"
"","","","","","animation","310","2649421","0.0-310.0","1920x1080","","2375.100000023842","26.98","img/314/4/1/bw/001.png","","","interesting"
"","","","","","animation","311","2652447","0.0-311.0","1920x1080","","3024.699999988079","98","img/314/5.5/2/bw/001.png","","","interesting"
"","","","","","animation","312","2657104","0.0-312.0","1920x1080","","4655.100000023842","49","img/314/4.5/0.66667/bw/001.png","","","interesting"
"","","","","","html-button-response","313","2676957","0.0-313.0","1920x1080","","19850.69999998808","","<div class=""intro"">You are about to view a new series of animations.<br><br></div><div class=""intro"">You will evaluate them based on a different descriptor.<br><br></div><div class=""intro"">Move the slider to indicate how <strong style=""text-transform:capitalize"">RELAXING</strong> you find each animation.<br><br></div><div class=""intro"">0 = Least Relaxing<br></div><div class=""intro"">1 = Most Relaxing<br><br></div><div class=""intro"">Remember to use the <strong><em>entire range</em></strong> of the slider to make your ratings.<br></div><div class=""intro"">Please <strong><em>take your time</em></strong> and carefully consider each rating you make.<br><br></div>","0","",""
"","","","","","call-function","314","2676958","0.0-314.0","1920x1080","","","","","","",""
"","","","","","animation","315","2681340","0.0-315.0","1920x1080","","4381.600000023842","0.53","img/117/3.5/0.5/bw/001.png","","","relaxing"
"","","","","","animation","316","2684254","0.0-316.0","1920x1080","","2911.7999999523163","89.29","img/117/2.5/1.5/bw/001.png","","","relaxing"
"","","","","","animation","317","2687052","0.0-317.0","1920x1080","","2798.800000011921","18.12","img/314/3.5/1/bw/001.png","","","relaxing"
"","","","","","animation","318","2690586","0.0-318.0","1920x1080","","3532.899999976158","9.52","img/238/3.5/2/bw/001.png","","","relaxing"
"","","","","","animation","319","2693402","0.0-319.0","1920x1080","","2814.5","94","img/117/4.5/2/bw/001.png","","","relaxing"
"","","","","","animation","320","2697086","0.0-320.0","1920x1080","","3682.199999988079","6.22","img/238/3.5/1.5/bw/001.png","","","relaxing"
"","","","","","animation","321","2699619","0.0-321.0","1920x1080","","2531.5","79.89","img/314/4.5/2/bw/001.png","","","relaxing"
"","","","","","animation","322","2704085","0.0-322.0","1920x1080","","4464.699999988079","96","img/238/2.5/2/bw/001.png","","","relaxing"
"","","","","","animation","323","2709628","0.0-323.0","1920x1080","","5541.899999976158","29","img/117/4/0.66667/bw/001.png","","","relaxing"
"","","","","","animation","324","2715619","0.0-324.0","1920x1080","","5989.199999988079","100","img/117/5.5/1/bw/001.png","","","relaxing"
"","","","","","animation","325","2718538","0.0-325.0","1920x1080","","2917.199999988079","100","img/314/5.5/1.5/bw/001.png","","","relaxing"
"","","","","","animation","326","2723602","0.0-326.0","1920x1080","","5062.5","86","img/117/4/2/bw/001.png","","","relaxing"
"","","","","","animation","327","2726495","0.0-327.0","1920x1080","","2891.400000035763","96","img/117/4.5/1.5/bw/001.png","","","relaxing"
"","","","","","animation","328","2730175","0.0-328.0","1920x1080","","3677.300000011921","10","img/117/4/0.5/bw/001.png","","","relaxing"
"","","","","","animation","329","2734052","0.0-329.0","1920x1080","","3875.5","83.86","img/314/2.5/0.66667/bw/001.png","","","relaxing"
"","","","","","animation","330","2736636","0.0-330.0","1920x1080","","2582.2000000476837","11.64","img/117/4.5/0.66667/bw/001.png","","","relaxing"
"","","","","","animation","331","2739435","0.0-331.0","1920x1080","","2798.5","88.23","img/238/2.5/1.5/bw/001.png","","","relaxing"
"","","","","","animation","332","2742519","0.0-332.0","1920x1080","","3082.399999976158","65.21","img/238/4/2/bw/001.png","","","relaxing"
"","","","","","animation","333","2748009","0.0-333.0","1920x1080","","5490.100000023842","45.63","img/314/5.5/1/bw/001.png","","","relaxing"
"","","","","","animation","334","2751442","0.0-334.0","1920x1080","","3430.699999988079","83.99","img/314/2.5/2/bw/001.png","","","relaxing"
"","","","","","animation","335","2757289","0.0-335.0","1920x1080","","5846.400000035763","9.13","img/314/4.5/1/bw/001.png","","","relaxing"
"","","","","","animation","336","2764834","0.0-336.0","1920x1080","","7542.399999976158","0","img/238/2.5/0.5/bw/001.png","","","relaxing"
"","","","","","animation","337","2768343","0.0-337.0","1920x1080","","3506.800000011921","100","img/314/5.5/2/bw/001.png","","","relaxing"
"","","","","","animation","338","2771289","0.0-338.0","1920x1080","","2944.800000011921","2.38","img/238/3.5/0.5/bw/001.png","","","relaxing"
"","","","","","animation","339","2774992","0.0-339.0","1920x1080","","3700.7000000476837","56.61","img/314/5.5/0.5/bw/001.png","","","relaxing"
"","","","","","animation","340","2778537","0.0-340.0","1920x1080","","3543.199999988079","0","img/238/4/0.66667/bw/001.png","","","relaxing"
"","","","","","animation","341","2782451","0.0-341.0","1920x1080","","3912.7000000476837","15.48","img/238/3.5/0.66667/bw/001.png","","","relaxing"
"","","","","","animation","342","2786187","0.0-342.0","1920x1080","","3734.199999988079","34.52","img/117/3.5/1.5/bw/001.png","","","relaxing"
"","","","","","animation","343","2788985","0.0-343.0","1920x1080","","2797.300000011921","100","img/117/5.5/2/bw/001.png","","","relaxing"
"","","","","","animation","344","2795053","0.0-344.0","1920x1080","","6066.400000035763","100","img/238/5.5/1/bw/001.png","","","relaxing"
"","","","","","animation","345","2799253","0.0-345.0","1920x1080","","4199","59.13","img/117/4.5/0.5/bw/001.png","","","relaxing"
"","","","","","animation","346","2805151","0.0-346.0","1920x1080","","5898.199999988079","55.29","img/238/4.5/0.5/bw/001.png","","","relaxing"
"","","","","","animation","347","2808600","0.0-347.0","1920x1080","","3446.899999976158","15.08","img/117/2.5/1/bw/001.png","","","relaxing"
"","","","","","animation","348","2810603","0.0-348.0","1920x1080","","2001.699999988079","66.80","img/314/4.5/1.5/bw/001.png","","","relaxing"
"","","","","","animation","349","2813299","0.0-349.0","1920x1080","","2694.400000035763","51.98","img/117/4/1/bw/001.png","","","relaxing"
"","","","","","animation","350","2816471","0.0-350.0","1920x1080","","3171.400000035763","8.60","img/314/2.5/1.5/bw/001.png","","","relaxing"
"","","","","","animation","351","2819816","0.0-351.0","1920x1080","","3343.099999964237","19.18","img/238/4/0.5/bw/001.png","","","relaxing"
"","","","","","animation","352","2822272","0.0-352.0","1920x1080","","2454.100000023842","23.02","img/238/4.5/0.66667/bw/001.png","","","relaxing"
"","","","","","animation","353","2826100","0.0-353.0","1920x1080","","3826.7999999523163","10.85","img/314/4.5/0.5/bw/001.png","","","relaxing"
"","","","","","animation","354","2830016","0.0-354.0","1920x1080","","3914.100000023842","30.16","img/314/5.5/0.66667/bw/001.png","","","relaxing"
"","","","","","animation","355","2837350","0.0-355.0","1920x1080","","7332","74","img/238/5.5/0.5/bw/001.png","","","relaxing"
"","","","","","animation","356","2839632","0.0-356.0","1920x1080","","2281.400000035763","75.53","img/238/5.5/0.66667/bw/001.png","","","relaxing"
"","","","","","animation","357","2846167","0.0-357.0","1920x1080","","6533.800000011921","17","img/238/2.5/0.66667/bw/001.png","","","relaxing"
"","","","","","animation","358","2850089","0.0-358.0","1920x1080","","3920.800000011921","18.65","img/314/3.5/0.66667/bw/001.png","","","relaxing"
"","","","","","animation","359","2852719","0.0-359.0","1920x1080","","2628.100000023842","4.23","img/117/3.5/0.66667/bw/001.png","","","relaxing"
"","","","","","animation","360","2861417","0.0-360.0","1920x1080","","8695.300000011921","100","img/238/5.5/2/bw/001.png","","","relaxing"
"","","","","","animation","361","2866782","0.0-361.0","1920x1080","","5350.699999988079","85.71","img/238/4.5/2/bw/001.png","","","relaxing"
"","","","","","animation","362","2872469","0.0-362.0","1920x1080","","5685","61.51","img/314/3.5/2/bw/001.png","","","relaxing"
"","","","","","animation","363","2876594","0.0-363.0","1920x1080","","4123.599999964237","89","img/117/5.5/1.5/bw/001.png","","","relaxing"
"","","","","","animation","364","2880700","0.0-364.0","1920x1080","","4104.099999964237","57.01","img/117/4.5/1/bw/001.png","","","relaxing"
"","","","","","animation","365","2884568","0.0-365.0","1920x1080","","3865.899999976158","2.12","img/117/2.5/0.5/bw/001.png","","","relaxing"
"","","","","","animation","366","2887798","0.0-366.0","1920x1080","","3228.699999988079","6.08","img/117/4/1.5/bw/001.png","","","relaxing"
"","","","","","animation","367","2890344","0.0-367.0","1920x1080","","2541.699999988079","18.25","img/238/2.5/1/bw/001.png","","","relaxing"
"","","","","","animation","368","2893294","0.0-368.0","1920x1080","","2948.800000011921","0","img/314/4/0.5/bw/001.png","","","relaxing"
"","","","","","animation","369","2896531","0.0-369.0","1920x1080","","3235.300000011921","39.55","img/117/2.5/2/bw/001.png","","","relaxing"
"","","","","","animation","370","2900798","0.0-370.0","1920x1080","","4266.400000035763","24.07","img/238/4/1/bw/001.png","","","relaxing"
"","","","","","animation","371","2904061","0.0-371.0","1920x1080","","3260.699999988079","47.62","img/314/3.5/1.5/bw/001.png","","","relaxing"
"","","","","","animation","372","2915766","0.0-372.0","1920x1080","","11703.699999988079","53","img/238/3.5/1/bw/001.png","","","relaxing"
"","","","","","animation","373","2918294","0.0-373.0","1920x1080","","2527","64.68","img/117/3.5/2/bw/001.png","","","relaxing"
"","","","","","animation","374","2923943","0.0-374.0","1920x1080","","5647.399999976158","73.41","img/314/4.5/0.66667/bw/001.png","","","relaxing"
"","","","","","animation","375","2928258","0.0-375.0","1920x1080","","4317.5","69.31","img/314/4/1.5/bw/001.png","","","relaxing"
"","","","","","animation","376","2931105","0.0-376.0","1920x1080","","2846.099999964237","91.67","img/238/5.5/1.5/bw/001.png","","","relaxing"
"","","","","","animation","377","2933967","0.0-377.0","1920x1080","","2860","33.47","img/314/4/1/bw/001.png","","","relaxing"
"","","","","","animation","378","2940510","0.0-378.0","1920x1080","","6541.600000023842","40.21","img/238/4.5/1/bw/001.png","","","relaxing"
"","","","","","animation","379","2945360","0.0-379.0","1920x1080","","4847.300000011921","50.53","img/238/4/1.5/bw/001.png","","","relaxing"
"","","","","","animation","380","2951332","0.0-380.0","1920x1080","","5970.899999976158","86","img/238/4.5/1.5/bw/001.png","","","relaxing"
"","","","","","animation","381","2954926","0.0-381.0","1920x1080","","3591.600000023842","2","img/117/2.5/0.66667/bw/001.png","","","relaxing"
"","","","","","animation","382","2957039","0.0-382.0","1920x1080","","2111.399999976158","34.66","img/117/3.5/1/bw/001.png","","","relaxing"
"","","","","","animation","383","2961295","0.0-383.0","1920x1080","","4254","0","img/314/3.5/0.5/bw/001.png","","","relaxing"
"","","","","","animation","384","2966312","0.0-384.0","1920x1080","","5015.5","76","img/117/5.5/0.66667/bw/001.png","","","relaxing"
"","","","","","animation","385","2968638","0.0-385.0","1920x1080","","2324","25.66","img/314/4/2/bw/001.png","","","relaxing"
"","","","","","animation","386","2975283","0.0-386.0","1920x1080","","6644.199999988079","53","img/117/5.5/0.5/bw/001.png","","","relaxing"
"","","","","","animation","387","2979755","0.0-387.0","1920x1080","","4469.900000035763","1.98","img/314/2.5/0.5/bw/001.png","","","relaxing"
"","","","","","animation","388","2983190","0.0-388.0","1920x1080","","3433.099999964237","7.67","img/314/2.5/1/bw/001.png","","","relaxing"
"","","","","","animation","389","2986135","0.0-389.0","1920x1080","","2934","23","img/314/4/0.66667/bw/001.png","","","relaxing"
"","","","","","html-button-response","390","3002939","0.0-390.0","1920x1080","","16802","","<strong>Study Debriefing</strong><br><p class=""debrief""><strong>Background:</strong> The patterns you rated are called <em>fractals</em>. The term fractal describes a class of irregular curves or shapes for which any suitably chosen part is similar in shape to a given larger or smaller part when magnified or reduced to the same size. Fractal properties are found throughout the natural and manmade world. The series of animations you saw today displayed animated fractal patterns of a varying complexity.</p><p class=""debrief""><strong>Purpose of this study:</strong> We hope to better understand how the perception of static fractals differs from the perception of animated fractals, and how the speed of the animated patterns influences people&apos;s perception of them. Fractals allow us to study the perception of aesthetic properties (e.g. the perceived level of beauty in an image) without using recognizable content, which makes them an excellent tool for studying abstract aesthetic judgement.</p><p class=""debrief""><strong>Your part:</strong> Your participation has helped us to further understand how humans perceive these patterns across different levels of speed and complexity. This research with allow us to better understand how the visual system and brain process our ever-changing visual environments.<p class=""debrief""><strong>Feedback and Further information:</strong> If you have additional questions about this study, please feel free to ask the researcher, Nathan Gonzales-Hess at nhess @ uoregon.edu. If you have any questions concerning your rights as a research participant, please contact Research Compliance Services, 5237 University of Oregon, Eugene, OR 97403, 541-346-2510, or email researchCompliance @ uoregon.edu. You can also email the Human Subjects Coordinator for psychology and linguistics research at hscoord @ uoregon.edu. ","0","",""
"","","","","","html-button-response","391","3008520","0.0-391.0","1920x1080","","5576.799999952316","","Thank you for participating in this study. <br>Please click below to finish the experiment and submit your responses.<br><br>","0","",""
"true","","","","","fullscreen","392","3009526","0.0-392.0","1920x1080","12:28 10/10/2022","","","","","",""
