"success","timeout","failed_images","failed_audio","failed_video","trial_type","trial_index","time_elapsed","internal_node_id","resolution","timeStamp","rt","response","stimulus","button_pressed","value","descriptor"
"true","false","[]","[]","[]","preload","0","35415","0.0-0.0","1920x1080","","","","","","",""
"true","false","[]","[]","[]","preload","1","70491","0.0-1.0","1920x1080","","","","","","",""
"true","false","[]","[]","[]","preload","2","108392","0.0-2.0","1920x1080","","","","","","",""
"true","","","","","fullscreen","3","136380","0.0-3.0","1920x1080","14:12 20/5/2022","","","","","",""
"","","","","","survey-html-form","4","143524","0.0-4.0","1920x1080","","7141.199999999255","{""age"":""19"",""gender"":""male""}","","","",""
"","","","","","html-button-response","5","193324","0.0-5.0","1920x1080","","49798.799999999814","","<div class=""complex"">You are going to see a series of animations.<br><br></div><div class=""complex"">Move the slider to indicate how <strong style=""text-transform:capitalize"">COMPLEX</strong> you find each animation.<br><br></div><div class=""complex"">0 = Least Complex<br></div><div class=""complex"">1 = Most Complex<br><br></div><div class=""complex"">Remember to use the <strong><em>entire range</em></strong> of the slider to make your ratings.<br></div><div class=""complex"">Please <strong><em>take your time</em></strong> and carefully consider each rating you make.<br><br></div><div class=""complex"">The study has five sections and will take about 45 minutes to complete.<br><br></div>","0","",""
"","","","","","call-function","6","193325","0.0-6.0","1920x1080","","","","","","",""
"","","","","","animation","7","203740","0.0-7.0","1920x1080","","10412.5","65.08","img/238/2.5/0.66667/bw/001.png","","","complex"
"","","","","","animation","8","207931","0.0-8.0","1920x1080","","4190.299999999814","29.89","img/117/3.5/0.66667/bw/001.png","","","complex"
"","","","","","animation","9","218484","0.0-9.0","1920x1080","","10551.200000000186","39.55","img/238/3.5/0.5/bw/001.png","","","complex"
"","","","","","animation","10","225292","0.0-10.0","1920x1080","","6807.0999999996275","19.71","img/314/2.5/1.5/bw/001.png","","","complex"
"","","","","","animation","11","236220","0.0-11.0","1920x1080","","10927.099999999627","19.71","img/117/3.5/2/bw/001.png","","","complex"
"","","","","","animation","12","252836","0.0-12.0","1920x1080","","16615","19.84","img/238/4/0.5/bw/001.png","","","complex"
"","","","","","animation","13","261787","0.0-13.0","1920x1080","","8950.600000000559","20","img/314/4/0.66667/bw/001.png","","","complex"
"","","","","","animation","14","269276","0.0-14.0","1920x1080","","7487.799999999814","59.79","img/314/2.5/0.5/bw/001.png","","","complex"
"","","","","","animation","15","278236","0.0-15.0","1920x1080","","8958.799999999814","10.19","img/238/5.5/2/bw/001.png","","","complex"
"","","","","","animation","16","286132","0.0-16.0","1920x1080","","7895.100000000559","25.40","img/238/4/1/bw/001.png","","","complex"
"","","","","","animation","17","292900","0.0-17.0","1920x1080","","6767","14.42","img/238/4.5/1.5/bw/001.png","","","complex"
"","","","","","animation","18","298284","0.0-18.0","1920x1080","","5383.399999999441","28.97","img/117/4/0.5/bw/001.png","","","complex"
"","","","","","animation","19","303980","0.0-19.0","1920x1080","","5695.700000000186","19.44","img/314/4/1.5/bw/001.png","","","complex"
"","","","","","animation","20","314812","0.0-20.0","1920x1080","","10831","17.59","img/117/4/1/bw/001.png","","","complex"
"","","","","","animation","21","326764","0.0-21.0","1920x1080","","11950.599999999627","50","img/314/2.5/2/bw/001.png","","","complex"
"","","","","","animation","22","332884","0.0-22.0","1920x1080","","6118.700000000186","40.21","img/238/4.5/0.5/bw/001.png","","","complex"
"","","","","","animation","23","337788","0.0-23.0","1920x1080","","4903.4000000003725","19.97","img/314/5.5/2/bw/001.png","","","complex"
"","","","","","animation","24","342148","0.0-24.0","1920x1080","","4358.600000000559","26.46","img/117/5.5/2/bw/001.png","","","complex"
"","","","","","animation","25","347940","0.0-25.0","1920x1080","","5791.899999999441","27","img/238/4.5/1/bw/001.png","","","complex"
"","","","","","animation","26","350948","0.0-26.0","1920x1080","","3006.9000000003725","10.58","img/117/5.5/1/bw/001.png","","","complex"
"","","","","","animation","27","356884","0.0-27.0","1920x1080","","5935.5","60.05","img/117/2.5/0.66667/bw/001.png","","","complex"
"","","","","","animation","28","361220","0.0-28.0","1920x1080","","4335.5","29.23","img/117/4.5/1.5/bw/001.png","","","complex"
"","","","","","animation","29","367124","0.0-29.0","1920x1080","","5903.299999999814","25.26","img/117/5.5/1.5/bw/001.png","","","complex"
"","","","","","animation","30","369860","0.0-30.0","1920x1080","","2735","12.43","img/238/5.5/1/bw/001.png","","","complex"
"","","","","","animation","31","374323","0.0-31.0","1920x1080","","4463.0999999996275","20.90","img/238/4/0.66667/bw/001.png","","","complex"
"","","","","","animation","32","377348","0.0-32.0","1920x1080","","3023.5","29.23","img/238/4/2/bw/001.png","","","complex"
"","","","","","animation","33","380203","0.0-33.0","1920x1080","","2854.5","34.13","img/117/3.5/1.5/bw/001.png","","","complex"
"","","","","","animation","34","386123","0.0-34.0","1920x1080","","5919.4000000003725","45","img/314/2.5/1/bw/001.png","","","complex"
"","","","","","animation","35","389580","0.0-35.0","1920x1080","","3456.2999999998137","31.48","img/117/4.5/1/bw/001.png","","","complex"
"","","","","","animation","36","404059","0.0-36.0","1920x1080","","14477.900000000373","20.11","img/117/4/1.5/bw/001.png","","","complex"
"","","","","","animation","37","409987","0.0-37.0","1920x1080","","5926.799999999814","25.00","img/314/4.5/0.5/bw/001.png","","","complex"
"","","","","","animation","38","418475","0.0-38.0","1920x1080","","8487.399999999441","9.79","img/314/5.5/1.5/bw/001.png","","","complex"
"","","","","","animation","39","425797","0.0-39.0","1920x1080","","7320.300000000745","19","img/314/5.5/0.66667/bw/001.png","","","complex"
"","","","","","animation","40","433771","0.0-40.0","1920x1080","","7973.5","69.58","img/314/2.5/0.66667/bw/001.png","","","complex"
"","","","","","animation","41","443355","0.0-41.0","1920x1080","","9583.300000000745","59","img/238/3.5/1/bw/001.png","","","complex"
"","","","","","animation","42","446396","0.0-42.0","1920x1080","","3040.100000000559","57.14","img/238/3.5/0.66667/bw/001.png","","","complex"
"","","","","","animation","43","449739","0.0-43.0","1920x1080","","3342.7000000001863","54.76","img/238/2.5/1/bw/001.png","","","complex"
"","","","","","animation","44","453844","0.0-44.0","1920x1080","","4103.299999999814","46.30","img/117/4/0.66667/bw/001.png","","","complex"
"","","","","","animation","45","461467","0.0-45.0","1920x1080","","7622.600000000559","47.88","img/117/4.5/2/bw/001.png","","","complex"
"","","","","","animation","46","465371","0.0-46.0","1920x1080","","3903.2000000001863","40.61","img/117/4.5/0.5/bw/001.png","","","complex"
"","","","","","animation","47","468987","0.0-47.0","1920x1080","","3615.2000000001863","21.83","img/238/5.5/0.66667/bw/001.png","","","complex"
"","","","","","animation","48","479500","0.0-48.0","1920x1080","","10511.600000000559","28.70","img/238/4.5/2/bw/001.png","","","complex"
"","","","","","animation","49","512171","0.0-49.0","1920x1080","","32670.699999999255","35.98","img/314/3.5/1/bw/001.png","","","complex"
"","","","","","animation","50","515707","0.0-50.0","1920x1080","","3535.5","14","img/314/5.5/0.5/bw/001.png","","","complex"
"","","","","","animation","51","523019","0.0-51.0","1920x1080","","7311","31","img/117/4/2/bw/001.png","","","complex"
"","","","","","animation","52","530460","0.0-52.0","1920x1080","","7439.200000000186","36.23","img/238/4.5/0.66667/bw/001.png","","","complex"
"","","","","","animation","53","547171","0.0-53.0","1920x1080","","16711","56","img/117/2.5/1.5/bw/001.png","","","complex"
"","","","","","animation","54","553965","0.0-54.0","1920x1080","","6791.899999999441","31.37","img/314/4.5/2/bw/001.png","","","complex"
"","","","","","animation","55","557831","0.0-55.0","1920x1080","","3865.2000000001863","20.47","img/117/5.5/0.66667/bw/001.png","","","complex"
"","","","","","animation","56","566588","0.0-56.0","1920x1080","","8755.899999999441","44.77","img/238/2.5/2/bw/001.png","","","complex"
"","","","","","animation","57","570084","0.0-57.0","1920x1080","","3494.9000000003725","50.07","img/117/2.5/1/bw/001.png","","","complex"
"","","","","","animation","58","626044","0.0-58.0","1920x1080","","55959.5","35","img/314/4/2/bw/001.png","","","complex"
"","","","","","animation","59","628548","0.0-59.0","1920x1080","","2502.5","28.87","img/314/3.5/0.66667/bw/001.png","","","complex"
"","","","","","animation","60","634108","0.0-60.0","1920x1080","","5559.4000000003725","23.27","img/314/4.5/0.66667/bw/001.png","","","complex"
"","","","","","animation","61","642764","0.0-61.0","1920x1080","","8655.599999999627","42.99","img/117/2.5/2/bw/001.png","","","complex"
"","","","","","animation","62","649331","0.0-62.0","1920x1080","","6566","58","img/117/3.5/0.5/bw/001.png","","","complex"
"","","","","","animation","63","651772","0.0-63.0","1920x1080","","2439.2999999998137","36.77","img/238/3.5/1.5/bw/001.png","","","complex"
"","","","","","animation","64","658571","0.0-64.0","1920x1080","","6798.9000000003725","21","img/117/4.5/0.66667/bw/001.png","","","complex"
"","","","","","animation","65","663398","0.0-65.0","1920x1080","","4824.799999999814","28.17","img/314/4.5/1/bw/001.png","","","complex"
"","","","","","animation","66","669444","0.0-66.0","1920x1080","","6045","27.78","img/238/4/1.5/bw/001.png","","","complex"
"","","","","","animation","67","674083","0.0-67.0","1920x1080","","4638.700000000186","36.11","img/314/3.5/1.5/bw/001.png","","","complex"
"","","","","","animation","68","678652","0.0-68.0","1920x1080","","4567.200000000186","12.04","img/238/5.5/1.5/bw/001.png","","","complex"
"","","","","","animation","69","683267","0.0-69.0","1920x1080","","4614.700000000186","22.62","img/314/4/0.5/bw/001.png","","","complex"
"","","","","","animation","70","689387","0.0-70.0","1920x1080","","6119.300000000745","61.24","img/314/3.5/0.5/bw/001.png","","","complex"
"","","","","","animation","71","694981","0.0-71.0","1920x1080","","5592.5999999996275","27","img/314/5.5/1/bw/001.png","","","complex"
"","","","","","animation","72","698083","0.0-72.0","1920x1080","","3101.2000000001863","68.52","img/238/2.5/0.5/bw/001.png","","","complex"
"","","","","","animation","73","700836","0.0-73.0","1920x1080","","2751.2999999998137","52.78","img/314/4/1/bw/001.png","","","complex"
"","","","","","animation","74","709932","0.0-74.0","1920x1080","","9094.900000000373","39.95","img/314/4.5/1.5/bw/001.png","","","complex"
"","","","","","animation","75","716364","0.0-75.0","1920x1080","","6431.5999999996275","39.02","img/238/3.5/2/bw/001.png","","","complex"
"","","","","","animation","76","718499","0.0-76.0","1920x1080","","2134.2999999998137","48.02","img/238/2.5/1.5/bw/001.png","","","complex"
"","","","","","animation","77","722214","0.0-77.0","1920x1080","","3713.5999999996275","61.38","img/117/2.5/0.5/bw/001.png","","","complex"
"","","","","","animation","78","724899","0.0-78.0","1920x1080","","2684.7999999998137","29.37","img/117/5.5/0.5/bw/001.png","","","complex"
"","","","","","animation","79","726692","0.0-79.0","1920x1080","","1791","48.68","img/117/3.5/1/bw/001.png","","","complex"
"","","","","","animation","80","729116","0.0-80.0","1920x1080","","2423.2000000001863","51.72","img/314/3.5/2/bw/001.png","","","complex"
"","","","","","animation","81","731516","0.0-81.0","1920x1080","","2399.399999999441","12.43","img/238/5.5/0.5/bw/001.png","","","complex"
"","","","","","html-button-response","82","750667","0.0-82.0","1920x1080","","19150.799999999814","","<div class=""intro"">You are about to view a new series of animations.<br><br></div><div class=""intro"">You will evaluate them based on a different descriptor.<br><br></div><div class=""intro"">Move the slider to indicate how <strong style=""text-transform:capitalize"">RELAXING</strong> you find each animation.<br><br></div><div class=""intro"">0 = Least Relaxing<br></div><div class=""intro"">1 = Most Relaxing<br><br></div><div class=""intro"">Remember to use the <strong><em>entire range</em></strong> of the slider to make your ratings.<br></div><div class=""intro"">Please <strong><em>take your time</em></strong> and carefully consider each rating you make.<br><br></div>","0","",""
"","","","","","call-function","83","750668","0.0-83.0","1920x1080","","","","","","",""
"","","","","","animation","84","767771","0.0-84.0","1920x1080","","17102.700000000186","18","img/314/2.5/1/bw/001.png","","","relaxing"
"","","","","","animation","85","773981","0.0-85.0","1920x1080","","6208.4000000003725","42.99","img/238/5.5/1/bw/001.png","","","relaxing"
"","","","","","animation","86","777139","0.0-86.0","1920x1080","","3156.2000000001863","20.50","img/117/2.5/1.5/bw/001.png","","","relaxing"
"","","","","","animation","87","779646","0.0-87.0","1920x1080","","2506.5","31.22","img/238/4.5/1/bw/001.png","","","relaxing"
"","","","","","animation","88","781883","0.0-88.0","1920x1080","","2235.199999999255","19.71","img/117/2.5/2/bw/001.png","","","relaxing"
"","","","","","animation","89","788187","0.0-89.0","1920x1080","","6302.9000000003725","21.69","img/117/4/2/bw/001.png","","","relaxing"
"","","","","","animation","90","793451","0.0-90.0","1920x1080","","5262.799999999814","38","img/117/5.5/0.66667/bw/001.png","","","relaxing"
"","","","","","animation","91","797636","0.0-91.0","1920x1080","","4183.299999999814","3.84","img/117/4/0.5/bw/001.png","","","relaxing"
"","","","","","animation","92","802365","0.0-92.0","1920x1080","","4728.300000000745","9.26","img/314/3.5/1.5/bw/001.png","","","relaxing"
"","","","","","animation","93","813832","0.0-93.0","1920x1080","","11465.200000000186","82.41","img/238/5.5/2/bw/001.png","","","relaxing"
"","","","","","animation","94","819404","0.0-94.0","1920x1080","","5571.0999999996275","19.97","img/314/4/2/bw/001.png","","","relaxing"
"","","","","","animation","95","823772","0.0-95.0","1920x1080","","4367.200000000186","19","img/117/3.5/1/bw/001.png","","","relaxing"
"","","","","","animation","96","826435","0.0-96.0","1920x1080","","2662.5999999996275","24.21","img/314/4.5/2/bw/001.png","","","relaxing"
"","","","","","animation","97","829349","0.0-97.0","1920x1080","","2912.300000000745","16.80","img/314/3.5/0.66667/bw/001.png","","","relaxing"
"","","","","","animation","98","833148","0.0-98.0","1920x1080","","3798.0999999996275","6.35","img/117/2.5/0.66667/bw/001.png","","","relaxing"
"","","","","","animation","99","837115","0.0-99.0","1920x1080","","3966.5999999996275","63","img/314/5.5/1/bw/001.png","","","relaxing"
"","","","","","animation","100","840292","0.0-100.0","1920x1080","","3175.5999999996275","28","img/314/4.5/0.5/bw/001.png","","","relaxing"
"","","","","","animation","101","846004","0.0-101.0","1920x1080","","5711.0999999996275","15.48","img/238/3.5/1/bw/001.png","","","relaxing"
"","","","","","animation","102","848772","0.0-102.0","1920x1080","","2766.800000000745","14.15","img/314/3.5/0.5/bw/001.png","","","relaxing"
"","","","","","animation","103","853867","0.0-103.0","1920x1080","","5094.700000000186","15.08","img/238/2.5/0.66667/bw/001.png","","","relaxing"
"","","","","","animation","104","907971","0.0-104.0","1920x1080","","54102.700000000186","24","img/117/4/0.66667/bw/001.png","","","relaxing"
"","","","","","animation","105","912372","0.0-105.0","1920x1080","","4399","20.11","img/117/4.5/1/bw/001.png","","","relaxing"
"","","","","","animation","106","917934","0.0-106.0","1920x1080","","5561.200000000186","23.54","img/117/5.5/1.5/bw/001.png","","","relaxing"
"","","","","","animation","107","923924","0.0-107.0","1920x1080","","5988.200000000186","26","img/238/5.5/0.5/bw/001.png","","","relaxing"
"","","","","","animation","108","941676","0.0-108.0","1920x1080","","17751.10000000056","25.40","img/117/4.5/2/bw/001.png","","","relaxing"
"","","","","","animation","109","945923","0.0-109.0","1920x1080","","4246.799999999814","6.88","img/238/4/0.5/bw/001.png","","","relaxing"
"","","","","","animation","110","951731","0.0-110.0","1920x1080","","5806.700000000186","57.94","img/314/5.5/1.5/bw/001.png","","","relaxing"
"","","","","","animation","111","954868","0.0-111.0","1920x1080","","3134.4000000003725","8.07","img/238/2.5/1.5/bw/001.png","","","relaxing"
"","","","","","animation","112","957140","0.0-112.0","1920x1080","","2271.4000000003725","15.08","img/117/4.5/0.66667/bw/001.png","","","relaxing"
"","","","","","animation","113","962924","0.0-113.0","1920x1080","","5783","19","img/117/4.5/0.5/bw/001.png","","","relaxing"
"","","","","","animation","114","964763","0.0-114.0","1920x1080","","1838.3999999994412","50","img/238/5.5/0.66667/bw/001.png","","","relaxing"
"","","","","","animation","115","966292","0.0-115.0","1920x1080","","1527.7000000001863","24","img/117/4.5/1.5/bw/001.png","","","relaxing"
"","","","","","animation","116","969020","0.0-116.0","1920x1080","","2727.100000000559","17.59","img/314/3.5/2/bw/001.png","","","relaxing"
"","","","","","animation","117","971413","0.0-117.0","1920x1080","","2392.5999999996275","39.15","img/117/5.5/1/bw/001.png","","","relaxing"
"","","","","","animation","118","974031","0.0-118.0","1920x1080","","2616","77.65","img/314/5.5/2/bw/001.png","","","relaxing"
"","","","","","animation","119","975925","0.0-119.0","1920x1080","","1892.7999999998137","14","img/238/3.5/0.5/bw/001.png","","","relaxing"
"","","","","","animation","120","977525","0.0-120.0","1920x1080","","1599.2999999998137","16.53","img/314/3.5/1/bw/001.png","","","relaxing"
"","","","","","animation","121","979749","0.0-121.0","1920x1080","","2222.9000000003725","42.33","img/314/5.5/0.66667/bw/001.png","","","relaxing"
"","","","","","animation","122","981917","0.0-122.0","1920x1080","","2166.899999999441","16.80","img/238/2.5/2/bw/001.png","","","relaxing"
"","","","","","animation","123","983373","0.0-123.0","1920x1080","","1455.5999999996275","29.23","img/238/4/2/bw/001.png","","","relaxing"
"","","","","","animation","124","985365","0.0-124.0","1920x1080","","1991.2999999998137","35.32","img/314/4/0.66667/bw/001.png","","","relaxing"
"","","","","","animation","125","988477","0.0-125.0","1920x1080","","3111.2999999998137","18.92","img/238/3.5/0.66667/bw/001.png","","","relaxing"
"","","","","","animation","126","990265","0.0-126.0","1920x1080","","1787","25.93","img/238/4/0.66667/bw/001.png","","","relaxing"
"","","","","","animation","127","993357","0.0-127.0","1920x1080","","3091.2000000001863","16","img/238/4.5/0.5/bw/001.png","","","relaxing"
"","","","","","animation","128","995000","0.0-128.0","1920x1080","","1642.4000000003725","15","img/238/4.5/0.66667/bw/001.png","","","relaxing"
"","","","","","animation","129","997133","0.0-129.0","1920x1080","","2131.100000000559","25.13","img/238/4.5/2/bw/001.png","","","relaxing"
"","","","","","animation","130","999649","0.0-130.0","1920x1080","","2515.7000000001863","11.64","img/314/2.5/0.66667/bw/001.png","","","relaxing"
"","","","","","animation","131","1003832","0.0-131.0","1920x1080","","4181.800000000745","17","img/314/2.5/2/bw/001.png","","","relaxing"
"","","","","","animation","132","1006583","0.0-132.0","1920x1080","","2749.899999999441","3.44","img/238/2.5/0.5/bw/001.png","","","relaxing"
"","","","","","animation","133","1009301","0.0-133.0","1920x1080","","2717","11.64","img/117/4/1/bw/001.png","","","relaxing"
"","","","","","animation","134","1015205","0.0-134.0","1920x1080","","5903.5","27","img/117/4/1.5/bw/001.png","","","relaxing"
"","","","","","animation","135","1018133","0.0-135.0","1920x1080","","2926.600000000559","14.15","img/117/2.5/0.5/bw/001.png","","","relaxing"
"","","","","","animation","136","1020432","0.0-136.0","1920x1080","","2298.300000000745","32.54","img/314/4.5/1/bw/001.png","","","relaxing"
"","","","","","animation","137","1023965","0.0-137.0","1920x1080","","3532.5","25.79","img/314/4.5/0.66667/bw/001.png","","","relaxing"
"","","","","","animation","138","1027757","0.0-138.0","1920x1080","","3791.5999999996275","11.90","img/314/2.5/0.5/bw/001.png","","","relaxing"
"","","","","","animation","139","1033254","0.0-139.0","1920x1080","","5493.100000000559","44.05","img/238/3.5/2/bw/001.png","","","relaxing"
"","","","","","animation","140","1044574","0.0-140.0","1920x1080","","11318.5","89.02","img/238/5.5/1.5/bw/001.png","","","relaxing"
"","","","","","animation","141","1048222","0.0-141.0","1920x1080","","3646.7000000001863","41.01","img/314/4.5/1.5/bw/001.png","","","relaxing"
"","","","","","animation","142","1050266","0.0-142.0","1920x1080","","2043.5999999996275","11.11","img/117/2.5/1/bw/001.png","","","relaxing"
"","","","","","animation","143","1053358","0.0-143.0","1920x1080","","3090.199999999255","18.39","img/314/4/1.5/bw/001.png","","","relaxing"
"","","","","","animation","144","1055438","0.0-144.0","1920x1080","","2079","16.93","img/314/2.5/1.5/bw/001.png","","","relaxing"
"","","","","","animation","145","1058901","0.0-145.0","1920x1080","","3462.7999999998137","25.93","img/238/4/1.5/bw/001.png","","","relaxing"
"","","","","","animation","146","1066432","0.0-146.0","1920x1080","","7530.200000000186","25.26","img/314/4/1/bw/001.png","","","relaxing"
"","","","","","animation","147","1071637","0.0-147.0","1920x1080","","5204","12.57","img/238/2.5/1/bw/001.png","","","relaxing"
"","","","","","animation","148","1076233","0.0-148.0","1920x1080","","4594.299999999814","44.31","img/314/5.5/0.5/bw/001.png","","","relaxing"
"","","","","","animation","149","1080037","0.0-149.0","1920x1080","","3803.5","68.52","img/117/5.5/2/bw/001.png","","","relaxing"
"","","","","","animation","150","1092542","0.0-150.0","1920x1080","","12503.200000000186","50.00","img/238/3.5/1.5/bw/001.png","","","relaxing"
"","","","","","animation","151","1095070","0.0-151.0","1920x1080","","2526.7999999998137","59.92","img/117/5.5/0.5/bw/001.png","","","relaxing"
"","","","","","animation","152","1098000","0.0-152.0","1920x1080","","2929.100000000559","27.38","img/117/3.5/1.5/bw/001.png","","","relaxing"
"","","","","","animation","153","1102191","0.0-153.0","1920x1080","","4189.5","24.47","img/117/3.5/2/bw/001.png","","","relaxing"
"","","","","","animation","154","1109050","0.0-154.0","1920x1080","","6858.399999999441","28.44","img/238/4/1/bw/001.png","","","relaxing"
"","","","","","animation","155","1111434","0.0-155.0","1920x1080","","2382.399999999441","22.35","img/314/4/0.5/bw/001.png","","","relaxing"
"","","","","","animation","156","1113550","0.0-156.0","1920x1080","","2115.7999999998137","14.68","img/117/3.5/0.5/bw/001.png","","","relaxing"
"","","","","","animation","157","1115790","0.0-157.0","1920x1080","","2239","15.87","img/117/3.5/0.66667/bw/001.png","","","relaxing"
"","","","","","animation","158","1122807","0.0-158.0","1920x1080","","7015.299999999814","25.26","img/238/4.5/1.5/bw/001.png","","","relaxing"
"","","","","","html-button-response","159","1143045","0.0-159.0","1920x1080","","20237.400000000373","","<div class=""intro"">You are about to view a new series of animations.<br><br></div><div class=""intro"">You will evaluate them based on a different descriptor.<br><br></div><div class=""intro"">Move the slider to indicate how <strong style=""text-transform:capitalize"">NATURAL</strong> you find each animation.<br><br></div><div class=""intro"">0 = Least Natural<br></div><div class=""intro"">1 = Most Natural<br><br></div><div class=""intro"">Remember to use the <strong><em>entire range</em></strong> of the slider to make your ratings.<br></div><div class=""intro"">Please <strong><em>take your time</em></strong> and carefully consider each rating you make.<br><br></div>","0","",""
"","","","","","call-function","160","1143047","0.0-160.0","1920x1080","","","","","","",""
"","","","","","animation","161","1148022","0.0-161.0","1920x1080","","4973.700000000186","33.99","img/117/4.5/0.5/bw/001.png","","","natural"
"","","","","","animation","162","1149851","0.0-162.0","1920x1080","","1827.7000000001863","25.00","img/238/4/0.66667/bw/001.png","","","natural"
"","","","","","animation","163","1154439","0.0-163.0","1920x1080","","4586","32","img/314/2.5/1.5/bw/001.png","","","natural"
"","","","","","animation","164","1157751","0.0-164.0","1920x1080","","3311.2999999998137","31.61","img/314/4/1/bw/001.png","","","natural"
"","","","","","animation","165","1160823","0.0-165.0","1920x1080","","3071.100000000559","32.80","img/314/3.5/1/bw/001.png","","","natural"
"","","","","","animation","166","1165851","0.0-166.0","1920x1080","","5027","25","img/314/5.5/1/bw/001.png","","","natural"
"","","","","","animation","167","1167975","0.0-167.0","1920x1080","","2122.4000000003725","29.50","img/314/3.5/2/bw/001.png","","","natural"
"","","","","","animation","168","1169623","0.0-168.0","1920x1080","","1647","26.46","img/238/4/0.5/bw/001.png","","","natural"
"","","","","","animation","169","1171468","0.0-169.0","1920x1080","","1844","25.93","img/117/4/1/bw/001.png","","","natural"
"","","","","","animation","170","1173201","0.0-170.0","1920x1080","","1732.9000000003725","21.03","img/238/5.5/1.5/bw/001.png","","","natural"
"","","","","","animation","171","1174668","0.0-171.0","1920x1080","","1465.5","21.69","img/117/4.5/0.66667/bw/001.png","","","natural"
"","","","","","animation","172","1176575","0.0-172.0","1920x1080","","1905.9000000003725","24.47","img/238/3.5/0.5/bw/001.png","","","natural"
"","","","","","animation","173","1181751","0.0-173.0","1920x1080","","5175.5","23.94","img/238/2.5/0.5/bw/001.png","","","natural"
"","","","","","animation","174","1184711","0.0-174.0","1920x1080","","2958.4000000003725","30.42","img/238/4/2/bw/001.png","","","natural"
"","","","","","animation","175","1201102","0.0-175.0","1920x1080","","16390.700000000186","29.63","img/117/5.5/2/bw/001.png","","","natural"
"","","","","","animation","176","1202951","0.0-176.0","1920x1080","","1847.7000000001863","22.35","img/314/4.5/0.66667/bw/001.png","","","natural"
"","","","","","animation","177","1204991","0.0-177.0","1920x1080","","2038.2999999998137","23.41","img/314/4/0.5/bw/001.png","","","natural"
"","","","","","animation","178","1207623","0.0-178.0","1920x1080","","2630.7999999998137","23.28","img/238/4.5/0.66667/bw/001.png","","","natural"
"","","","","","animation","179","1210453","0.0-179.0","1920x1080","","2828.899999999441","12.96","img/238/2.5/1/bw/001.png","","","natural"
"","","","","","animation","180","1215169","0.0-180.0","1920x1080","","4713.299999999814","21.69","img/238/3.5/0.66667/bw/001.png","","","natural"
"","","","","","animation","181","1219369","0.0-181.0","1920x1080","","4198.899999999441","20.90","img/314/4/0.66667/bw/001.png","","","natural"
"","","","","","animation","182","1223791","0.0-182.0","1920x1080","","4420.699999999255","32","img/238/5.5/0.5/bw/001.png","","","natural"
"","","","","","animation","183","1235391","0.0-183.0","1920x1080","","11599","47","img/238/5.5/2/bw/001.png","","","natural"
"","","","","","animation","184","1238407","0.0-184.0","1920x1080","","3014.5","36.38","img/117/5.5/1.5/bw/001.png","","","natural"
"","","","","","animation","185","1242538","0.0-185.0","1920x1080","","4129.0999999996275","33","img/238/4.5/2/bw/001.png","","","natural"
"","","","","","animation","186","1246623","0.0-186.0","1920x1080","","4084.0999999996275","17","img/117/2.5/2/bw/001.png","","","natural"
"","","","","","animation","187","1251159","0.0-187.0","1920x1080","","4534.299999999814","22","img/314/3.5/0.5/bw/001.png","","","natural"
"","","","","","animation","188","1264019","0.0-188.0","1920x1080","","12858","15","img/117/2.5/1.5/bw/001.png","","","natural"
"","","","","","animation","189","1271685","0.0-189.0","1920x1080","","7665.5999999996275","27.65","img/314/4/2/bw/001.png","","","natural"
"","","","","","animation","190","1273687","0.0-190.0","1920x1080","","2000.8999999994412","27.65","img/117/4/2/bw/001.png","","","natural"
"","","","","","animation","191","1277344","0.0-191.0","1920x1080","","3655.7999999998137","37.57","img/238/5.5/0.66667/bw/001.png","","","natural"
"","","","","","animation","192","1280486","0.0-192.0","1920x1080","","3140.5999999996275","20.24","img/117/2.5/0.66667/bw/001.png","","","natural"
"","","","","","animation","193","1282576","0.0-193.0","1920x1080","","2088.5999999996275","24.34","img/117/3.5/1/bw/001.png","","","natural"
"","","","","","animation","194","1285619","0.0-194.0","1920x1080","","3042.2999999998137","34.13","img/314/5.5/0.66667/bw/001.png","","","natural"
"","","","","","animation","195","1291036","0.0-195.0","1920x1080","","5415.200000000186","28.97","img/117/4.5/1.5/bw/001.png","","","natural"
"","","","","","animation","196","1298485","0.0-196.0","1920x1080","","7447.9000000003725","47","img/314/4.5/1/bw/001.png","","","natural"
"","","","","","animation","197","1301002","0.0-197.0","1920x1080","","2516","33.33","img/117/4.5/1/bw/001.png","","","natural"
"","","","","","animation","198","1306471","0.0-198.0","1920x1080","","5468.200000000186","25.13","img/117/3.5/0.5/bw/001.png","","","natural"
"","","","","","animation","199","1315728","0.0-199.0","1920x1080","","9253.799999999814","63.62","img/238/2.5/2/bw/001.png","","","natural"
"","","","","","animation","200","1319836","0.0-200.0","1920x1080","","4106.9000000003725","40.21","img/314/5.5/2/bw/001.png","","","natural"
"","","","","","animation","201","1322208","0.0-201.0","1920x1080","","2371","51.19","img/238/2.5/1.5/bw/001.png","","","natural"
"","","","","","animation","202","1325528","0.0-202.0","1920x1080","","3319.100000000559","28.97","img/238/5.5/1/bw/001.png","","","natural"
"","","","","","animation","203","1330855","0.0-203.0","1920x1080","","5326.299999999814","49.74","img/314/2.5/0.66667/bw/001.png","","","natural"
"","","","","","animation","204","1333504","0.0-204.0","1920x1080","","2647","32.28","img/117/3.5/2/bw/001.png","","","natural"
"","","","","","animation","205","1340570","0.0-205.0","1920x1080","","7064.5","32","img/238/2.5/0.66667/bw/001.png","","","natural"
"","","","","","animation","206","1344070","0.0-206.0","1920x1080","","3498.2999999998137","53","img/314/3.5/1.5/bw/001.png","","","natural"
"","","","","","animation","207","1347608","0.0-207.0","1920x1080","","3537","42.99","img/314/4/1.5/bw/001.png","","","natural"
"","","","","","animation","208","1351088","0.0-208.0","1920x1080","","3478.2999999998137","13.36","img/117/4/0.66667/bw/001.png","","","natural"
"","","","","","animation","209","1353836","0.0-209.0","1920x1080","","2747.5","24.07","img/238/4.5/1/bw/001.png","","","natural"
"","","","","","animation","210","1355603","0.0-210.0","1920x1080","","1765.9000000003725","35.85","img/117/4/0.5/bw/001.png","","","natural"
"","","","","","animation","211","1362370","0.0-211.0","1920x1080","","6765.4000000003725","31","img/117/5.5/1/bw/001.png","","","natural"
"","","","","","animation","212","1366160","0.0-212.0","1920x1080","","3789","24.21","img/314/3.5/0.66667/bw/001.png","","","natural"
"","","","","","animation","213","1369586","0.0-213.0","1920x1080","","3425.2000000001863","31","img/117/4.5/2/bw/001.png","","","natural"
"","","","","","animation","214","1372087","0.0-214.0","1920x1080","","2499.5","29.89","img/117/3.5/0.66667/bw/001.png","","","natural"
"","","","","","animation","215","1374970","0.0-215.0","1920x1080","","2880.0999999996275","43.12","img/314/2.5/0.5/bw/001.png","","","natural"
"","","","","","animation","216","1377512","0.0-216.0","1920x1080","","2541.2999999998137","30.82","img/314/5.5/0.5/bw/001.png","","","natural"
"","","","","","animation","217","1382520","0.0-217.0","1920x1080","","5006.700000000186","39.81","img/314/2.5/2/bw/001.png","","","natural"
"","","","","","animation","218","1388653","0.0-218.0","1920x1080","","6131.9000000003725","25.79","img/314/5.5/1.5/bw/001.png","","","natural"
"","","","","","animation","219","1391472","0.0-219.0","1920x1080","","2816.4000000003725","43.12","img/117/3.5/1.5/bw/001.png","","","natural"
"","","","","","animation","220","1398105","0.0-220.0","1920x1080","","6630.799999999814","43.52","img/238/3.5/1/bw/001.png","","","natural"
"","","","","","animation","221","1400505","0.0-221.0","1920x1080","","2398.5","33","img/117/5.5/0.66667/bw/001.png","","","natural"
"","","","","","animation","222","1403187","0.0-222.0","1920x1080","","2681.7000000001863","27.65","img/238/4.5/1.5/bw/001.png","","","natural"
"","","","","","animation","223","1410505","0.0-223.0","1920x1080","","7316.4000000003725","31.75","img/314/4.5/0.5/bw/001.png","","","natural"
"","","","","","animation","224","1414454","0.0-224.0","1920x1080","","3948.2999999998137","26.46","img/238/3.5/1.5/bw/001.png","","","natural"
"","","","","","animation","225","1417921","0.0-225.0","1920x1080","","3465.4000000003725","40.74","img/117/2.5/0.5/bw/001.png","","","natural"
"","","","","","animation","226","1422787","0.0-226.0","1920x1080","","4865.600000000559","33.73","img/238/4/1/bw/001.png","","","natural"
"","","","","","animation","227","1426961","0.0-227.0","1920x1080","","4172.4000000003725","47.35","img/117/2.5/1/bw/001.png","","","natural"
"","","","","","animation","228","1430621","0.0-228.0","1920x1080","","3659","60.19","img/314/2.5/1/bw/001.png","","","natural"
"","","","","","animation","229","1433088","0.0-229.0","1920x1080","","2465.2999999998137","44.97","img/238/4/1.5/bw/001.png","","","natural"
"","","","","","animation","230","1435187","0.0-230.0","1920x1080","","2098.600000000559","30.82","img/314/4.5/1.5/bw/001.png","","","natural"
"","","","","","animation","231","1439161","0.0-231.0","1920x1080","","3972.699999999255","33.86","img/238/4.5/0.5/bw/001.png","","","natural"
"","","","","","animation","232","1442489","0.0-232.0","1920x1080","","3326.4000000003725","26.59","img/117/5.5/0.5/bw/001.png","","","natural"
"","","","","","animation","233","1445221","0.0-233.0","1920x1080","","2731.5","36","img/117/4/1.5/bw/001.png","","","natural"
"","","","","","animation","234","1456588","0.0-234.0","1920x1080","","11364.899999999441","29.63","img/238/3.5/2/bw/001.png","","","natural"
"","","","","","animation","235","1459988","0.0-235.0","1920x1080","","3398.7999999998137","21.96","img/314/4.5/2/bw/001.png","","","natural"
"","","","","","html-button-response","236","1482273","0.0-236.0","1920x1080","","22284","","<div class=""intro"">You are about to view a new series of animations.<br><br></div><div class=""intro"">You will evaluate them based on a different descriptor.<br><br></div><div class=""intro"">Move the slider to indicate how <strong style=""text-transform:capitalize"">INTERESTING</strong> you find each animation.<br><br></div><div class=""intro"">0 = Least Interesting<br></div><div class=""intro"">1 = Most Interesting<br><br></div><div class=""intro"">Remember to use the <strong><em>entire range</em></strong> of the slider to make your ratings.<br></div><div class=""intro"">Please <strong><em>take your time</em></strong> and carefully consider each rating you make.<br><br></div>","0","",""
"","","","","","call-function","237","1482276","0.0-237.0","1920x1080","","","","","","",""
"","","","","","animation","238","1485504","0.0-238.0","1920x1080","","3228","57","img/238/4/2/bw/001.png","","","interesting"
"","","","","","animation","239","1488227","0.0-239.0","1920x1080","","2720.0999999996275","35.85","img/238/5.5/2/bw/001.png","","","interesting"
"","","","","","animation","240","1492193","0.0-240.0","1920x1080","","3964.7000000001863","44.58","img/238/3.5/0.66667/bw/001.png","","","interesting"
"","","","","","animation","241","1494804","0.0-241.0","1920x1080","","2609.199999999255","52.51","img/314/4/2/bw/001.png","","","interesting"
"","","","","","animation","242","1497004","0.0-242.0","1920x1080","","2199.399999999441","27.12","img/238/5.5/1.5/bw/001.png","","","interesting"
"","","","","","animation","243","1509641","0.0-243.0","1920x1080","","12635.200000000186","26","img/314/4.5/1.5/bw/001.png","","","interesting"
"","","","","","animation","244","1516162","0.0-244.0","1920x1080","","6519.700000000186","35","img/314/4/1/bw/001.png","","","interesting"
"","","","","","animation","245","1520377","0.0-245.0","1920x1080","","4213.800000000745","34.92","img/117/4/1/bw/001.png","","","interesting"
"","","","","","animation","246","1525897","0.0-246.0","1920x1080","","5518.5","25","img/238/4.5/1.5/bw/001.png","","","interesting"
"","","","","","animation","247","1538888","0.0-247.0","1920x1080","","12989.700000000186","30","img/238/4.5/0.66667/bw/001.png","","","interesting"
"","","","","","animation","248","1541404","0.0-248.0","1920x1080","","2515.5999999996275","47.09","img/117/3.5/1/bw/001.png","","","interesting"
"","","","","","animation","249","1543577","0.0-249.0","1920x1080","","2171.5","37.83","img/238/3.5/0.5/bw/001.png","","","interesting"
"","","","","","animation","250","1546329","0.0-250.0","1920x1080","","2751.2000000001863","25.66","img/314/5.5/0.5/bw/001.png","","","interesting"
"","","","","","animation","251","1550873","0.0-251.0","1920x1080","","4542.200000000186","44.31","img/238/2.5/0.5/bw/001.png","","","interesting"
"","","","","","animation","252","1554305","0.0-252.0","1920x1080","","3429.4000000003725","50.26","img/314/2.5/1/bw/001.png","","","interesting"
"","","","","","animation","253","1556987","0.0-253.0","1920x1080","","2681.2999999998137","67.06","img/117/4.5/1/bw/001.png","","","interesting"
"","","","","","animation","254","1559145","0.0-254.0","1920x1080","","2156.4000000003725","25","img/238/4.5/1/bw/001.png","","","interesting"
"","","","","","animation","255","1561641","0.0-255.0","1920x1080","","2494.5999999996275","32.28","img/238/4/1.5/bw/001.png","","","interesting"
"","","","","","animation","256","1566241","0.0-256.0","1920x1080","","4598.700000000186","43.78","img/117/4.5/0.5/bw/001.png","","","interesting"
"","","","","","animation","257","1569641","0.0-257.0","1920x1080","","3399.0999999996275","54.76","img/117/4/0.5/bw/001.png","","","interesting"
"","","","","","animation","258","1573388","0.0-258.0","1920x1080","","3746.2999999998137","61.38","img/238/2.5/0.66667/bw/001.png","","","interesting"
"","","","","","animation","259","1576321","0.0-259.0","1920x1080","","2931.899999999441","29.37","img/238/5.5/0.5/bw/001.png","","","interesting"
"","","","","","animation","260","1579656","0.0-260.0","1920x1080","","3334.4000000003725","34.39","img/117/3.5/0.5/bw/001.png","","","interesting"
"","","","","","animation","261","1591393","0.0-261.0","1920x1080","","11735.200000000186","42.20","img/314/3.5/0.66667/bw/001.png","","","interesting"
"","","","","","animation","262","1596921","0.0-262.0","1920x1080","","5526.5999999996275","62.96","img/117/5.5/1.5/bw/001.png","","","interesting"
"","","","","","animation","263","1604776","0.0-263.0","1920x1080","","7854.5","58.20","img/314/5.5/1/bw/001.png","","","interesting"
"","","","","","animation","264","1608561","0.0-264.0","1920x1080","","3782.199999999255","42.72","img/314/3.5/0.5/bw/001.png","","","interesting"
"","","","","","animation","265","1611788","0.0-265.0","1920x1080","","3225","33.99","img/117/2.5/0.5/bw/001.png","","","interesting"
"","","","","","animation","266","1617538","0.0-266.0","1920x1080","","5748.700000000186","36.51","img/238/2.5/2/bw/001.png","","","interesting"
"","","","","","animation","267","1621788","0.0-267.0","1920x1080","","4248.5999999996275","40.48","img/238/2.5/1.5/bw/001.png","","","interesting"
"","","","","","animation","268","1632946","0.0-268.0","1920x1080","","11155.700000000186","45.63","img/117/4.5/1.5/bw/001.png","","","interesting"
"","","","","","animation","269","1646322","0.0-269.0","1920x1080","","13374.600000000559","53","img/314/5.5/0.66667/bw/001.png","","","interesting"
"","","","","","animation","270","1657041","0.0-270.0","1920x1080","","10718.300000000745","26.19","img/314/2.5/0.66667/bw/001.png","","","interesting"
"","","","","","animation","271","1660689","0.0-271.0","1920x1080","","3646.5","61","img/314/4.5/1/bw/001.png","","","interesting"
"","","","","","animation","272","1662905","0.0-272.0","1920x1080","","2214","53.57","img/238/3.5/2/bw/001.png","","","interesting"
"","","","","","animation","273","1664805","0.0-273.0","1920x1080","","1898.7000000001863","66.80","img/238/4.5/2/bw/001.png","","","interesting"
"","","","","","animation","274","1669705","0.0-274.0","1920x1080","","4899.100000000559","59.39","img/238/5.5/1/bw/001.png","","","interesting"
"","","","","","animation","275","1674222","0.0-275.0","1920x1080","","4514.5999999996275","26.06","img/314/3.5/1/bw/001.png","","","interesting"
"","","","","","animation","276","1684993","0.0-276.0","1920x1080","","10770.5","57.01","img/314/2.5/1.5/bw/001.png","","","interesting"
"","","","","","animation","277","1687841","0.0-277.0","1920x1080","","2846.5","51.72","img/314/3.5/1.5/bw/001.png","","","interesting"
"","","","","","animation","278","1690361","0.0-278.0","1920x1080","","2518.9000000003725","33.33","img/314/2.5/0.5/bw/001.png","","","interesting"
"","","","","","animation","279","1693313","0.0-279.0","1920x1080","","2950.100000000559","27.65","img/314/4.5/0.5/bw/001.png","","","interesting"
"","","","","","animation","280","1696872","0.0-280.0","1920x1080","","3557.4000000003725","47.75","img/117/2.5/0.66667/bw/001.png","","","interesting"
"","","","","","animation","281","1700289","0.0-281.0","1920x1080","","3415.899999999441","25.13","img/238/3.5/1.5/bw/001.png","","","interesting"
"","","","","","animation","282","1706273","0.0-282.0","1920x1080","","5982.600000000559","23.41","img/117/4/2/bw/001.png","","","interesting"
"","","","","","animation","283","1712530","0.0-283.0","1920x1080","","6255.5","43","img/238/4.5/0.5/bw/001.png","","","interesting"
"","","","","","animation","284","1715839","0.0-284.0","1920x1080","","3303.2000000001863","57.67","img/238/3.5/1/bw/001.png","","","interesting"
"","","","","","animation","285","1718459","0.0-285.0","1920x1080","","2618.7999999998137","53.17","img/238/4/1/bw/001.png","","","interesting"
"","","","","","animation","286","1724122","0.0-286.0","1920x1080","","5662.0999999996275","44.97","img/117/4/1.5/bw/001.png","","","interesting"
"","","","","","animation","287","1727232","0.0-287.0","1920x1080","","3108.7999999998137","54.10","img/117/3.5/1.5/bw/001.png","","","interesting"
"","","","","","animation","288","1734289","0.0-288.0","1920x1080","","7055.799999999814","60","img/117/5.5/0.66667/bw/001.png","","","interesting"
"","","","","","animation","289","1736030","0.0-289.0","1920x1080","","1739.7000000001863","50.00","img/314/2.5/2/bw/001.png","","","interesting"
"","","","","","animation","290","1739139","0.0-290.0","1920x1080","","3107.7999999998137","51.32","img/238/5.5/0.66667/bw/001.png","","","interesting"
"","","","","","animation","291","1742059","0.0-291.0","1920x1080","","2918.5","41.93","img/117/5.5/2/bw/001.png","","","interesting"
"","","","","","animation","292","1744965","0.0-292.0","1920x1080","","2903.899999999441","57.14","img/314/3.5/2/bw/001.png","","","interesting"
"","","","","","animation","293","1748523","0.0-293.0","1920x1080","","3557.0999999996275","39.02","img/314/4/0.66667/bw/001.png","","","interesting"
"","","","","","animation","294","1753059","0.0-294.0","1920x1080","","4535.4000000003725","65","img/314/4/0.5/bw/001.png","","","interesting"
"","","","","","animation","295","1755549","0.0-295.0","1920x1080","","2488.5999999996275","51.19","img/117/4.5/2/bw/001.png","","","interesting"
"","","","","","animation","296","1764329","0.0-296.0","1920x1080","","8778.099999999627","56.75","img/117/2.5/1.5/bw/001.png","","","interesting"
"","","","","","animation","297","1767161","0.0-297.0","1920x1080","","2829.7999999998137","68.25","img/117/4.5/0.66667/bw/001.png","","","interesting"
"","","","","","animation","298","1769697","0.0-298.0","1920x1080","","2533.899999999441","57.28","img/117/5.5/1/bw/001.png","","","interesting"
"","","","","","animation","299","1773110","0.0-299.0","1920x1080","","3412.0999999996275","48","img/314/5.5/2/bw/001.png","","","interesting"
"","","","","","animation","300","1776433","0.0-300.0","1920x1080","","3321.100000000559","41.67","img/238/2.5/1/bw/001.png","","","interesting"
"","","","","","animation","301","1781664","0.0-301.0","1920x1080","","5229.600000000559","58.20","img/117/2.5/1/bw/001.png","","","interesting"
"","","","","","animation","302","1784857","0.0-302.0","1920x1080","","3190.5999999996275","71.30","img/238/4/0.66667/bw/001.png","","","interesting"
"","","","","","animation","303","1787841","0.0-303.0","1920x1080","","2982.2000000001863","73.41","img/117/3.5/2/bw/001.png","","","interesting"
"","","","","","animation","304","1792889","0.0-304.0","1920x1080","","5046.5999999996275","57","img/117/2.5/2/bw/001.png","","","interesting"
"","","","","","animation","305","1795210","0.0-305.0","1920x1080","","2319.7000000001863","64.29","img/117/4/0.66667/bw/001.png","","","interesting"
"","","","","","animation","306","1799105","0.0-306.0","1920x1080","","3892.899999999441","55.95","img/314/4.5/2/bw/001.png","","","interesting"
"","","","","","animation","307","1803937","0.0-307.0","1920x1080","","4831.200000000186","56.48","img/117/5.5/0.5/bw/001.png","","","interesting"
"","","","","","animation","308","1807641","0.0-308.0","1920x1080","","3701.7999999998137","59.52","img/314/4.5/0.66667/bw/001.png","","","interesting"
"","","","","","animation","309","1818457","0.0-309.0","1920x1080","","10814.599999999627","60.98","img/314/5.5/1.5/bw/001.png","","","interesting"
"","","","","","animation","310","1828740","0.0-310.0","1920x1080","","10280.600000000559","62.57","img/117/3.5/0.66667/bw/001.png","","","interesting"
"","","","","","animation","311","1831926","0.0-311.0","1920x1080","","3182.399999999441","68","img/238/4/0.5/bw/001.png","","","interesting"
"","","","","","animation","312","1839641","0.0-312.0","1920x1080","","7713.4000000003725","59","img/314/4/1.5/bw/001.png","","","interesting"
"","","","","","html-button-response","313","1858622","0.0-313.0","1920x1080","","18978.799999999814","","<div class=""intro"">You are about to view a new series of animations.<br><br></div><div class=""intro"">You will evaluate them based on a different descriptor.<br><br></div><div class=""intro"">Move the slider to indicate how <strong style=""text-transform:capitalize"">APPEALING</strong> you find each animation.<br><br></div><div class=""intro"">0 = Least Appealing<br></div><div class=""intro"">1 = Most Appealing<br><br></div><div class=""intro"">Remember to use the <strong><em>entire range</em></strong> of the slider to make your ratings.<br></div><div class=""intro"">Please <strong><em>take your time</em></strong> and carefully consider each rating you make.<br><br></div>","0","",""
"","","","","","call-function","314","1858623","0.0-314.0","1920x1080","","","","","","",""
"","","","","","animation","315","1861905","0.0-315.0","1920x1080","","3282.2000000001863","33.07","img/238/2.5/0.66667/bw/001.png","","","appealing"
"","","","","","animation","316","1864827","0.0-316.0","1920x1080","","2918.4000000003725","23.68","img/238/4/0.5/bw/001.png","","","appealing"
"","","","","","animation","317","1867090","0.0-317.0","1920x1080","","2261.2000000001863","26.32","img/238/4.5/0.5/bw/001.png","","","appealing"
"","","","","","animation","318","1870081","0.0-318.0","1920x1080","","2989.7000000001863","27.65","img/314/2.5/1.5/bw/001.png","","","appealing"
"","","","","","animation","319","1875429","0.0-319.0","1920x1080","","5347.0999999996275","21.43","img/117/4/0.5/bw/001.png","","","appealing"
"","","","","","animation","320","1877861","0.0-320.0","1920x1080","","2429.7999999998137","32.54","img/238/4/0.66667/bw/001.png","","","appealing"
"","","","","","animation","321","1881979","0.0-321.0","1920x1080","","4117.299999999814","25.79","img/238/4/1.5/bw/001.png","","","appealing"
"","","","","","animation","322","1884158","0.0-322.0","1920x1080","","2177.199999999255","39","img/117/5.5/2/bw/001.png","","","appealing"
"","","","","","animation","323","1889297","0.0-323.0","1920x1080","","5137.5999999996275","46.43","img/117/4.5/2/bw/001.png","","","appealing"
"","","","","","animation","324","1903257","0.0-324.0","1920x1080","","13958.700000000186","43","img/314/4.5/2/bw/001.png","","","appealing"
"","","","","","animation","325","1908589","0.0-325.0","1920x1080","","5330.5","38.89","img/314/4/1.5/bw/001.png","","","appealing"
"","","","","","animation","326","1922324","0.0-326.0","1920x1080","","13733.799999999814","35.98","img/314/3.5/1.5/bw/001.png","","","appealing"
"","","","","","animation","327","1931393","0.0-327.0","1920x1080","","9067.899999999441","45.24","img/117/5.5/1.5/bw/001.png","","","appealing"
"","","","","","animation","328","1934950","0.0-328.0","1920x1080","","3555.7000000001863","30.82","img/238/2.5/0.5/bw/001.png","","","appealing"
"","","","","","animation","329","1948444","0.0-329.0","1920x1080","","13492.900000000373","43.52","img/238/5.5/0.5/bw/001.png","","","appealing"
"","","","","","animation","330","1954164","0.0-330.0","1920x1080","","5718.200000000186","32","img/238/4.5/1.5/bw/001.png","","","appealing"
"","","","","","animation","331","1956457","0.0-331.0","1920x1080","","2291.0999999996275","26","img/238/4/2/bw/001.png","","","appealing"
"","","","","","animation","332","1962296","0.0-332.0","1920x1080","","5835.899999999441","44.84","img/238/3.5/0.66667/bw/001.png","","","appealing"
"","","","","","animation","333","1965638","0.0-333.0","1920x1080","","3341.399999999441","52.65","img/314/4/1/bw/001.png","","","appealing"
"","","","","","animation","334","1967755","0.0-334.0","1920x1080","","2113","38.10","img/117/2.5/0.5/bw/001.png","","","appealing"
"","","","","","animation","335","1971313","0.0-335.0","1920x1080","","3557.0999999996275","29.50","img/314/3.5/0.5/bw/001.png","","","appealing"
"","","","","","animation","336","1975211","0.0-336.0","1920x1080","","3896.800000000745","26.19","img/314/4.5/0.66667/bw/001.png","","","appealing"
"","","","","","animation","337","1978041","0.0-337.0","1920x1080","","2826.7000000001863","46.56","img/314/5.5/0.5/bw/001.png","","","appealing"
"","","","","","animation","338","1984377","0.0-338.0","1920x1080","","6334.600000000559","26.85","img/117/5.5/1/bw/001.png","","","appealing"
"","","","","","animation","339","1986856","0.0-339.0","1920x1080","","2478.0999999996275","41.93","img/314/3.5/0.66667/bw/001.png","","","appealing"
"","","","","","animation","340","1993608","0.0-340.0","1920x1080","","6750.9000000003725","41.80","img/314/3.5/2/bw/001.png","","","appealing"
"","","","","","animation","341","1999105","0.0-341.0","1920x1080","","5494.899999999441","53.44","img/314/4/0.5/bw/001.png","","","appealing"
"","","","","","animation","342","2003595","0.0-342.0","1920x1080","","4489.100000000559","32","img/314/5.5/1.5/bw/001.png","","","appealing"
"","","","","","animation","343","2008521","0.0-343.0","1920x1080","","4924.299999999814","44.18","img/238/5.5/0.66667/bw/001.png","","","appealing"
"","","","","","animation","344","2021611","0.0-344.0","1920x1080","","13087.900000000373","42.20","img/117/3.5/0.66667/bw/001.png","","","appealing"
"","","","","","animation","345","2030192","0.0-345.0","1920x1080","","8579.900000000373","33","img/238/2.5/1/bw/001.png","","","appealing"
"","","","","","animation","346","2033162","0.0-346.0","1920x1080","","2969.0999999996275","52","img/238/4.5/0.66667/bw/001.png","","","appealing"
"","","","","","animation","347","2035354","0.0-347.0","1920x1080","","2190.5","42.46","img/238/3.5/0.5/bw/001.png","","","appealing"
"","","","","","animation","348","2041106","0.0-348.0","1920x1080","","5750.899999999441","79","img/314/5.5/2/bw/001.png","","","appealing"
"","","","","","animation","349","2047305","0.0-349.0","1920x1080","","6196.9000000003725","80.16","img/238/5.5/1.5/bw/001.png","","","appealing"
"","","","","","animation","350","2051224","0.0-350.0","1920x1080","","3916.7000000001863","81","img/238/5.5/2/bw/001.png","","","appealing"
"","","","","","animation","351","2054620","0.0-351.0","1920x1080","","3394.7000000001863","61.64","img/117/4/1.5/bw/001.png","","","appealing"
"","","","","","animation","352","2057055","0.0-352.0","1920x1080","","2433.899999999441","40","img/238/2.5/2/bw/001.png","","","appealing"
"","","","","","animation","353","2063881","0.0-353.0","1920x1080","","6824.200000000186","31","img/117/4.5/1.5/bw/001.png","","","appealing"
"","","","","","animation","354","2069671","0.0-354.0","1920x1080","","5788.5","22.88","img/117/3.5/0.5/bw/001.png","","","appealing"
"","","","","","animation","355","2075329","0.0-355.0","1920x1080","","5655.799999999814","31.61","img/117/4/0.66667/bw/001.png","","","appealing"
"","","","","","animation","356","2077732","0.0-356.0","1920x1080","","2401.300000000745","41.80","img/117/3.5/2/bw/001.png","","","appealing"
"","","","","","animation","357","2081312","0.0-357.0","1920x1080","","3578.5","32.28","img/314/2.5/2/bw/001.png","","","appealing"
"","","","","","animation","358","2083903","0.0-358.0","1920x1080","","2590.2000000001863","41.40","img/314/4.5/1/bw/001.png","","","appealing"
"","","","","","animation","359","2086391","0.0-359.0","1920x1080","","2486.5999999996275","31.48","img/314/4.5/0.5/bw/001.png","","","appealing"
"","","","","","animation","360","2089394","0.0-360.0","1920x1080","","3001.7000000001863","29.89","img/238/3.5/1.5/bw/001.png","","","appealing"
"","","","","","animation","361","2091487","0.0-361.0","1920x1080","","2091.2999999998137","33.73","img/117/2.5/1.5/bw/001.png","","","appealing"
"","","","","","animation","362","2093926","0.0-362.0","1920x1080","","2438.100000000559","27.12","img/314/3.5/1/bw/001.png","","","appealing"
"","","","","","animation","363","2095929","0.0-363.0","1920x1080","","2001.699999999255","28.44","img/117/3.5/1.5/bw/001.png","","","appealing"
"","","","","","animation","364","2098070","0.0-364.0","1920x1080","","2139.5999999996275","41.01","img/314/2.5/0.66667/bw/001.png","","","appealing"
"","","","","","animation","365","2100320","0.0-365.0","1920x1080","","2248.7000000001863","62.17","img/314/5.5/1/bw/001.png","","","appealing"
"","","","","","animation","366","2105270","0.0-366.0","1920x1080","","4949","69.58","img/117/5.5/0.66667/bw/001.png","","","appealing"
"","","","","","animation","367","2108204","0.0-367.0","1920x1080","","2931.5999999996275","59","img/117/4.5/1/bw/001.png","","","appealing"
"","","","","","animation","368","2110288","0.0-368.0","1920x1080","","2082.5","47.75","img/238/3.5/1/bw/001.png","","","appealing"
"","","","","","animation","369","2113938","0.0-369.0","1920x1080","","3649.2999999998137","61.38","img/238/4.5/1/bw/001.png","","","appealing"
"","","","","","animation","370","2117242","0.0-370.0","1920x1080","","3301.9000000003725","14.68","img/314/2.5/0.5/bw/001.png","","","appealing"
"","","","","","animation","371","2119803","0.0-371.0","1920x1080","","2560.5","76.98","img/314/5.5/0.66667/bw/001.png","","","appealing"
"","","","","","animation","372","2123207","0.0-372.0","1920x1080","","3402","62.43","img/238/4.5/2/bw/001.png","","","appealing"
"","","","","","animation","373","2126797","0.0-373.0","1920x1080","","3588.5","48.41","img/238/3.5/2/bw/001.png","","","appealing"
"","","","","","animation","374","2130837","0.0-374.0","1920x1080","","4038.7999999998137","36","img/117/4.5/0.5/bw/001.png","","","appealing"
"","","","","","animation","375","2134561","0.0-375.0","1920x1080","","3723.0999999996275","67.99","img/238/5.5/1/bw/001.png","","","appealing"
"","","","","","animation","376","2141410","0.0-376.0","1920x1080","","6847","48.81","img/117/2.5/1/bw/001.png","","","appealing"
"","","","","","animation","377","2143787","0.0-377.0","1920x1080","","2374.2000000001863","35","img/117/2.5/2/bw/001.png","","","appealing"
"","","","","","animation","378","2147075","0.0-378.0","1920x1080","","3287.2000000001863","28.70","img/314/2.5/1/bw/001.png","","","appealing"
"","","","","","animation","379","2151175","0.0-379.0","1920x1080","","4097.4000000003725","33.07","img/117/4/2/bw/001.png","","","appealing"
"","","","","","animation","380","2154401","0.0-380.0","1920x1080","","3224.2999999998137","24.07","img/314/4.5/1.5/bw/001.png","","","appealing"
"","","","","","animation","381","2160221","0.0-381.0","1920x1080","","5817.199999999255","52.91","img/117/4/1/bw/001.png","","","appealing"
"","","","","","animation","382","2163704","0.0-382.0","1920x1080","","3481.7999999998137","69.44","img/117/2.5/0.66667/bw/001.png","","","appealing"
"","","","","","animation","383","2168338","0.0-383.0","1920x1080","","4632.4000000003725","47.22","img/117/4.5/0.66667/bw/001.png","","","appealing"
"","","","","","animation","384","2170988","0.0-384.0","1920x1080","","2648.2999999998137","30.56","img/117/3.5/1/bw/001.png","","","appealing"
"","","","","","animation","385","2175871","0.0-385.0","1920x1080","","4881.799999999814","25","img/238/4/1/bw/001.png","","","appealing"
"","","","","","animation","386","2178704","0.0-386.0","1920x1080","","2831.600000000559","36.64","img/314/4/2/bw/001.png","","","appealing"
"","","","","","animation","387","2184093","0.0-387.0","1920x1080","","5388.299999999814","39.42","img/238/2.5/1.5/bw/001.png","","","appealing"
"","","","","","animation","388","2189664","0.0-388.0","1920x1080","","5568.799999999814","57","img/117/5.5/0.5/bw/001.png","","","appealing"
"","","","","","animation","389","2192439","0.0-389.0","1920x1080","","2772.9000000003725","39.42","img/314/4/0.66667/bw/001.png","","","appealing"
"","","","","","html-button-response","390","2218424","0.0-390.0","1920x1080","","25983.599999999627","","<strong>Study Debriefing</strong><br><p class=""debrief""><strong>Background:</strong> The patterns you rated are called <em>fractals</em>. The term fractal describes a class of irregular curves or shapes for which any suitably chosen part is similar in shape to a given larger or smaller part when magnified or reduced to the same size. Fractal properties are found throughout the natural and manmade world. The series of animations you saw today displayed animated fractal patterns of a varying complexity.</p><p class=""debrief""><strong>Purpose of this study:</strong> We hope to better understand how the perception of static fractals differs from the perception of animated fractals, and how the speed of the animated patterns influences people&apos;s perception of them. Fractals allow us to study the perception of aesthetic properties (e.g. the perceived level of beauty in an image) without using recognizable content, which makes them an excellent tool for studying abstract aesthetic judgement.</p><p class=""debrief""><strong>Your part:</strong> Your participation has helped us to further understand how humans perceive these patterns across different levels of speed and complexity. This research with allow us to better understand how the visual system and brain process our ever-changing visual environments.<p class=""debrief""><strong>Feedback and Further information:</strong> If you have additional questions about this study, please feel free to ask the researcher, Nathan Gonzales-Hess at nhess @ uoregon.edu. If you have any questions concerning your rights as a research participant, please contact Research Compliance Services, 5237 University of Oregon, Eugene, OR 97403, 541-346-2510, or email researchCompliance @ uoregon.edu. You can also email the Human Subjects Coordinator for psychology and linguistics research at hscoord @ uoregon.edu. ","0","",""
"","","","","","html-button-response","391","2220453","0.0-391.0","1920x1080","","2024.2000000001863","","Thank you for participating in this study. <br>Please click below to finish the experiment and submit your responses.<br><br>","0","",""
"true","","","","","fullscreen","392","2221455","0.0-392.0","1920x1080","14:47 20/5/2022","","","","","",""
