"success","timeout","failed_images","failed_audio","failed_video","trial_type","trial_index","time_elapsed","internal_node_id","resolution","timeStamp","rt","response","stimulus","button_pressed","value","descriptor"
"true","false","[]","[]","[]","preload","0","3792","0.0-0.0","1920x1080","","","","","","",""
"true","false","[]","[]","[]","preload","1","7592","0.0-1.0","1920x1080","","","","","","",""
"true","false","[]","[]","[]","preload","2","11145","0.0-2.0","1920x1080","","","","","","",""
"true","","","","","fullscreen","3","37040","0.0-3.0","1920x1080","10:50 23/5/2022","","","","","",""
"","","","","","survey-html-form","4","48501","0.0-4.0","1920x1080","","11460.5","{""age"":""19"",""gender"":""female""}","","","",""
"","","","","","html-button-response","5","105426","0.0-5.0","1920x1080","","56926.80000001192","","<div class=""complex"">You are going to see a series of animations.<br><br></div><div class=""complex"">Move the slider to indicate how <strong style=""text-transform:capitalize"">COMPLEX</strong> you find each animation.<br><br></div><div class=""complex"">0 = Least Complex<br></div><div class=""complex"">1 = Most Complex<br><br></div><div class=""complex"">Remember to use the <strong><em>entire range</em></strong> of the slider to make your ratings.<br></div><div class=""complex"">Please <strong><em>take your time</em></strong> and carefully consider each rating you make.<br><br></div><div class=""complex"">The study has five sections and will take about 45 minutes to complete.<br><br></div>","0","",""
"","","","","","call-function","6","105426","0.0-6.0","1920x1080","","","","","","",""
"","","","","","animation","7","120278","0.0-7.0","1920x1080","","14846.100000023842","32","img/117/5.5/0.5/bw/001.png","","","complex"
"","","","","","animation","8","147605","0.0-8.0","1920x1080","","27325.40000000596","60","img/117/4.5/1.5/bw/001.png","","","complex"
"","","","","","animation","9","152445","0.0-9.0","1920x1080","","4839.200000017881","95","img/238/3.5/0.5/bw/001.png","","","complex"
"","","","","","animation","10","156326","0.0-10.0","1920x1080","","3879.7000000178814","100","img/117/2.5/1/bw/001.png","","","complex"
"","","","","","animation","11","160165","0.0-11.0","1920x1080","","3838.7000000178814","99","img/238/2.5/0.66667/bw/001.png","","","complex"
"","","","","","animation","12","164669","0.0-12.0","1920x1080","","4502.899999976158","78.84","img/117/3.5/1/bw/001.png","","","complex"
"","","","","","animation","13","170173","0.0-13.0","1920x1080","","5503.5","58","img/314/4/2/bw/001.png","","","complex"
"","","","","","animation","14","173237","0.0-14.0","1920x1080","","3063.0999999940395","41.14","img/117/4/2/bw/001.png","","","complex"
"","","","","","animation","15","177094","0.0-15.0","1920x1080","","3855.300000011921","66","img/314/3.5/1/bw/001.png","","","complex"
"","","","","","animation","16","180878","0.0-16.0","1920x1080","","3784","37","img/314/5.5/0.66667/bw/001.png","","","complex"
"","","","","","animation","17","184164","0.0-17.0","1920x1080","","3285.7000000178814","100","img/314/2.5/0.5/bw/001.png","","","complex"
"","","","","","animation","18","187580","0.0-18.0","1920x1080","","3415.300000011921","101.85","img/314/2.5/0.66667/bw/001.png","","","complex"
"","","","","","animation","19","192212","0.0-19.0","1920x1080","","4631.100000023842","52","img/314/4.5/1/bw/001.png","","","complex"
"","","","","","animation","20","195789","0.0-20.0","1920x1080","","3575.4000000059605","25","img/314/5.5/1.5/bw/001.png","","","complex"
"","","","","","animation","21","198780","0.0-21.0","1920x1080","","2990.800000011921","17","img/117/5.5/2/bw/001.png","","","complex"
"","","","","","animation","22","201678","0.0-22.0","1920x1080","","2896.7000000178814","73","img/117/3.5/0.66667/bw/001.png","","","complex"
"","","","","","animation","23","204469","0.0-23.0","1920x1080","","2789.5999999940395","93","img/238/2.5/2/bw/001.png","","","complex"
"","","","","","animation","24","207597","0.0-24.0","1920x1080","","3127.300000011921","102.78","img/314/3.5/0.5/bw/001.png","","","complex"
"","","","","","animation","25","212653","0.0-25.0","1920x1080","","5055.299999982119","46","img/238/4.5/2/bw/001.png","","","complex"
"","","","","","animation","26","215325","0.0-26.0","1920x1080","","2671.399999976158","66","img/238/4/0.5/bw/001.png","","","complex"
"","","","","","animation","27","217580","0.0-27.0","1920x1080","","2255","62.17","img/117/4/1/bw/001.png","","","complex"
"","","","","","animation","28","219853","0.0-28.0","1920x1080","","2271.699999988079","81","img/314/3.5/1.5/bw/001.png","","","complex"
"","","","","","animation","29","224573","0.0-29.0","1920x1080","","4719.5","90","img/117/2.5/1.5/bw/001.png","","","complex"
"","","","","","animation","30","229805","0.0-30.0","1920x1080","","5231.200000017881","43","img/314/4.5/1.5/bw/001.png","","","complex"
"","","","","","animation","31","235173","0.0-31.0","1920x1080","","5367.100000023842","96","img/238/2.5/0.5/bw/001.png","","","complex"
"","","","","","animation","32","240733","0.0-32.0","1920x1080","","5559.0999999940395","70","img/117/2.5/2/bw/001.png","","","complex"
"","","","","","animation","33","245679","0.0-33.0","1920x1080","","4945.199999988079","19","img/314/5.5/2/bw/001.png","","","complex"
"","","","","","animation","34","249701","0.0-34.0","1920x1080","","4021.4000000059605","75","img/314/4/1.5/bw/001.png","","","complex"
"","","","","","animation","35","257062","0.0-35.0","1920x1080","","7359","1","img/238/5.5/2/bw/001.png","","","complex"
"","","","","","animation","36","260205","0.0-36.0","1920x1080","","3142","22.22","img/238/4/2/bw/001.png","","","complex"
"","","","","","animation","37","263269","0.0-37.0","1920x1080","","3063.100000023842","72","img/238/3.5/1/bw/001.png","","","complex"
"","","","","","animation","38","267949","0.0-38.0","1920x1080","","4679","58","img/314/4.5/0.66667/bw/001.png","","","complex"
"","","","","","animation","39","272237","0.0-39.0","1920x1080","","4287.4000000059605","68","img/314/2.5/2/bw/001.png","","","complex"
"","","","","","animation","40","274925","0.0-40.0","1920x1080","","2687.300000011921","26","img/314/5.5/1/bw/001.png","","","complex"
"","","","","","animation","41","278630","0.0-41.0","1920x1080","","3703.7999999821186","43.52","img/117/5.5/0.66667/bw/001.png","","","complex"
"","","","","","animation","42","281517","0.0-42.0","1920x1080","","2886.800000011921","66","img/117/4/0.66667/bw/001.png","","","complex"
"","","","","","animation","43","286245","0.0-43.0","1920x1080","","4727.0999999940395","74","img/238/4/0.66667/bw/001.png","","","complex"
"","","","","","animation","44","295229","0.0-44.0","1920x1080","","8983.300000011921","54","img/238/4.5/1/bw/001.png","","","complex"
"","","","","","animation","45","298406","0.0-45.0","1920x1080","","3176","101.98","img/117/2.5/0.66667/bw/001.png","","","complex"
"","","","","","animation","46","302158","0.0-46.0","1920x1080","","3751.0999999940395","78","img/314/4/1/bw/001.png","","","complex"
"","","","","","animation","47","306158","0.0-47.0","1920x1080","","3999.0999999940395","20","img/238/5.5/0.5/bw/001.png","","","complex"
"","","","","","animation","48","311326","0.0-48.0","1920x1080","","5167","2","img/238/5.5/1/bw/001.png","","","complex"
"","","","","","animation","49","315286","0.0-49.0","1920x1080","","3958.9000000059605","75","img/238/4/1/bw/001.png","","","complex"
"","","","","","animation","50","319413","0.0-50.0","1920x1080","","4126.300000011921","91","img/314/2.5/1/bw/001.png","","","complex"
"","","","","","animation","51","325222","0.0-51.0","1920x1080","","5807.800000011921","70","img/238/2.5/1.5/bw/001.png","","","complex"
"","","","","","animation","52","330414","0.0-52.0","1920x1080","","5191.4000000059605","95","img/314/3.5/0.66667/bw/001.png","","","complex"
"","","","","","animation","53","335597","0.0-53.0","1920x1080","","5182.4000000059605","52","img/238/4.5/1.5/bw/001.png","","","complex"
"","","","","","animation","54","339053","0.0-54.0","1920x1080","","3455.199999988079","79","img/314/2.5/1.5/bw/001.png","","","complex"
"","","","","","animation","55","343422","0.0-55.0","1920x1080","","4367.4000000059605","60","img/314/4/0.5/bw/001.png","","","complex"
"","","","","","animation","56","348253","0.0-56.0","1920x1080","","4830.5","57","img/117/3.5/1.5/bw/001.png","","","complex"
"","","","","","animation","57","354079","0.0-57.0","1920x1080","","5824.300000011921","51","img/117/4.5/0.66667/bw/001.png","","","complex"
"","","","","","animation","58","357654","0.0-58.0","1920x1080","","3574.2000000178814","39","img/117/5.5/1/bw/001.png","","","complex"
"","","","","","animation","59","362118","0.0-59.0","1920x1080","","4463.0999999940395","66","img/238/4.5/0.5/bw/001.png","","","complex"
"","","","","","animation","60","366798","0.0-60.0","1920x1080","","4678.199999988079","72","img/238/3.5/1.5/bw/001.png","","","complex"
"","","","","","animation","61","371654","0.0-61.0","1920x1080","","4855.200000017881","50","img/314/4.5/2/bw/001.png","","","complex"
"","","","","","animation","62","375198","0.0-62.0","1920x1080","","3543.0999999940395","64","img/314/4/0.66667/bw/001.png","","","complex"
"","","","","","animation","63","378982","0.0-63.0","1920x1080","","3783.2999999821186","95","img/117/2.5/0.5/bw/001.png","","","complex"
"","","","","","animation","64","385046","0.0-64.0","1920x1080","","6062.799999982119","71","img/238/4.5/0.66667/bw/001.png","","","complex"
"","","","","","animation","65","389398","0.0-65.0","1920x1080","","4351.9000000059605","57","img/314/3.5/2/bw/001.png","","","complex"
"","","","","","animation","66","392622","0.0-66.0","1920x1080","","3223.199999988079","55","img/117/4/1.5/bw/001.png","","","complex"
"","","","","","animation","67","396006","0.0-67.0","1920x1080","","3383.0999999940395","67","img/117/4/0.5/bw/001.png","","","complex"
"","","","","","animation","68","402463","0.0-68.0","1920x1080","","6456.4000000059605","18","img/238/5.5/0.66667/bw/001.png","","","complex"
"","","","","","animation","69","405534","0.0-69.0","1920x1080","","3069.5","69","img/117/4.5/1/bw/001.png","","","complex"
"","","","","","animation","70","409350","0.0-70.0","1920x1080","","3815","31","img/238/3.5/0.66667/bw/001.png","","","complex"
"","","","","","animation","71","414518","0.0-71.0","1920x1080","","5167.300000011921","15","img/314/5.5/0.5/bw/001.png","","","complex"
"","","","","","animation","72","417581","0.0-72.0","1920x1080","","3062.5","55","img/238/3.5/2/bw/001.png","","","complex"
"","","","","","animation","73","422949","0.0-73.0","1920x1080","","5367.199999988079","63","img/238/4/1.5/bw/001.png","","","complex"
"","","","","","animation","74","426718","0.0-74.0","1920x1080","","3767.300000011921","62","img/117/4.5/2/bw/001.png","","","complex"
"","","","","","animation","75","430134","0.0-75.0","1920x1080","","3414.9000000059605","77","img/117/4.5/0.5/bw/001.png","","","complex"
"","","","","","animation","76","434230","0.0-76.0","1920x1080","","4095.5","84","img/238/2.5/1/bw/001.png","","","complex"
"","","","","","animation","77","443263","0.0-77.0","1920x1080","","9031.90000000596","26","img/238/5.5/1.5/bw/001.png","","","complex"
"","","","","","animation","78","449958","0.0-78.0","1920x1080","","6693.800000011921","15","img/117/5.5/1.5/bw/001.png","","","complex"
"","","","","","animation","79","458190","0.0-79.0","1920x1080","","8231","86","img/117/3.5/0.5/bw/001.png","","","complex"
"","","","","","animation","80","462006","0.0-80.0","1920x1080","","3815.0999999940395","63","img/117/3.5/2/bw/001.png","","","complex"
"","","","","","animation","81","467096","0.0-81.0","1920x1080","","5089.9000000059605","66","img/314/4.5/0.5/bw/001.png","","","complex"
"","","","","","html-button-response","82","498167","0.0-82.0","1920x1080","","31068.19999998808","","<div class=""intro"">You are about to view a new series of animations.<br><br></div><div class=""intro"">You will evaluate them based on a different descriptor.<br><br></div><div class=""intro"">Move the slider to indicate how <strong style=""text-transform:capitalize"">NATURAL</strong> you find each animation.<br><br></div><div class=""intro"">0 = Least Natural<br></div><div class=""intro"">1 = Most Natural<br><br></div><div class=""intro"">Remember to use the <strong><em>entire range</em></strong> of the slider to make your ratings.<br></div><div class=""intro"">Please <strong><em>take your time</em></strong> and carefully consider each rating you make.<br><br></div>","0","",""
"","","","","","call-function","83","498171","0.0-83.0","1920x1080","","","","","","",""
"","","","","","animation","84","506718","0.0-84.0","1920x1080","","8546","18","img/314/2.5/0.5/bw/001.png","","","natural"
"","","","","","animation","85","511181","0.0-85.0","1920x1080","","4462.800000011921","48","img/238/4.5/1.5/bw/001.png","","","natural"
"","","","","","animation","86","514630","0.0-86.0","1920x1080","","3447.300000011921","20","img/314/3.5/2/bw/001.png","","","natural"
"","","","","","animation","87","520158","0.0-87.0","1920x1080","","5527.5","20","img/238/4/2/bw/001.png","","","natural"
"","","","","","animation","88","523558","0.0-88.0","1920x1080","","3398.7999999821186","11","img/238/3.5/2/bw/001.png","","","natural"
"","","","","","animation","89","526662","0.0-89.0","1920x1080","","3103.2999999821186","0","img/314/3.5/1/bw/001.png","","","natural"
"","","","","","animation","90","533358","0.0-90.0","1920x1080","","6694.5999999940395","42.59","img/117/4.5/2/bw/001.png","","","natural"
"","","","","","animation","91","535686","0.0-91.0","1920x1080","","2326.9000000059605","69.97","img/238/5.5/0.66667/bw/001.png","","","natural"
"","","","","","animation","92","538150","0.0-92.0","1920x1080","","2463.0999999940395","43.78","img/117/4/0.66667/bw/001.png","","","natural"
"","","","","","animation","93","544130","0.0-93.0","1920x1080","","5979.199999988079","18","img/117/3.5/1/bw/001.png","","","natural"
"","","","","","animation","94","547797","0.0-94.0","1920x1080","","3666.4000000059605","-1.85","img/117/2.5/2/bw/001.png","","","natural"
"","","","","","animation","95","551113","0.0-95.0","1920x1080","","3314.600000023842","0","img/314/2.5/1.5/bw/001.png","","","natural"
"","","","","","animation","96","555546","0.0-96.0","1920x1080","","4431.4000000059605","79","img/314/5.5/0.66667/bw/001.png","","","natural"
"","","","","","animation","97","559190","0.0-97.0","1920x1080","","3643.0999999940395","64","img/117/5.5/0.5/bw/001.png","","","natural"
"","","","","","animation","98","561930","0.0-98.0","1920x1080","","2738.5999999940395","16","img/314/3.5/0.66667/bw/001.png","","","natural"
"","","","","","animation","99","566006","0.0-99.0","1920x1080","","4075.2999999821186","96","img/238/5.5/2/bw/001.png","","","natural"
"","","","","","animation","100","570295","0.0-100.0","1920x1080","","4288.5","77","img/314/5.5/1/bw/001.png","","","natural"
"","","","","","animation","101","573946","0.0-101.0","1920x1080","","3649.199999988079","15","img/314/2.5/2/bw/001.png","","","natural"
"","","","","","animation","102","576622","0.0-102.0","1920x1080","","2675.600000023842","69","img/117/5.5/1/bw/001.png","","","natural"
"","","","","","animation","103","578886","0.0-103.0","1920x1080","","2262.899999976158","52.65","img/314/5.5/0.5/bw/001.png","","","natural"
"","","","","","animation","104","582950","0.0-104.0","1920x1080","","4063","24","img/117/2.5/1.5/bw/001.png","","","natural"
"","","","","","animation","105","587078","0.0-105.0","1920x1080","","4127.799999982119","68","img/117/4.5/1.5/bw/001.png","","","natural"
"","","","","","animation","106","589654","0.0-106.0","1920x1080","","2574.2999999821186","19","img/238/2.5/1.5/bw/001.png","","","natural"
"","","","","","animation","107","591854","0.0-107.0","1920x1080","","2199.0999999940395","28","img/314/4.5/1.5/bw/001.png","","","natural"
"","","","","","animation","108","596590","0.0-108.0","1920x1080","","4735.300000011921","4","img/117/2.5/1/bw/001.png","","","natural"
"","","","","","animation","109","603614","0.0-109.0","1920x1080","","7022.600000023842","6","img/314/2.5/1/bw/001.png","","","natural"
"","","","","","animation","110","606263","0.0-110.0","1920x1080","","2647.600000023842","2","img/117/3.5/0.66667/bw/001.png","","","natural"
"","","","","","animation","111","609423","0.0-111.0","1920x1080","","3159.2000000178814","0","img/238/2.5/0.5/bw/001.png","","","natural"
"","","","","","animation","112","614071","0.0-112.0","1920x1080","","4646.5999999940395","17","img/238/2.5/2/bw/001.png","","","natural"
"","","","","","animation","113","618039","0.0-113.0","1920x1080","","3967.2000000178814","32","img/314/4/0.5/bw/001.png","","","natural"
"","","","","","animation","114","620751","0.0-114.0","1920x1080","","2711.0999999940395","25","img/238/4/1/bw/001.png","","","natural"
"","","","","","animation","115","622990","0.0-115.0","1920x1080","","2238.7000000178814","21","img/238/3.5/0.66667/bw/001.png","","","natural"
"","","","","","animation","116","625963","0.0-116.0","1920x1080","","2972.2000000178814","50","img/238/4.5/2/bw/001.png","","","natural"
"","","","","","animation","117","628687","0.0-117.0","1920x1080","","2722.5","39.29","img/117/3.5/2/bw/001.png","","","natural"
"","","","","","animation","118","634150","0.0-118.0","1920x1080","","5462.5999999940395","42","img/117/3.5/1.5/bw/001.png","","","natural"
"","","","","","animation","119","636191","0.0-119.0","1920x1080","","2039.5","44","img/117/4.5/0.5/bw/001.png","","","natural"
"","","","","","animation","120","638363","0.0-120.0","1920x1080","","2171.2999999821186","48","img/314/4.5/1/bw/001.png","","","natural"
"","","","","","animation","121","640313","0.0-121.0","1920x1080","","1949.199999988079","53.04","img/238/4.5/1/bw/001.png","","","natural"
"","","","","","animation","122","644374","0.0-122.0","1920x1080","","4060.699999988079","43","img/314/4.5/0.66667/bw/001.png","","","natural"
"","","","","","animation","123","647014","0.0-123.0","1920x1080","","2638.2000000178814","26","img/314/3.5/0.5/bw/001.png","","","natural"
"","","","","","animation","124","651303","0.0-124.0","1920x1080","","4287.5999999940395","8","img/117/2.5/0.5/bw/001.png","","","natural"
"","","","","","animation","125","655687","0.0-125.0","1920x1080","","4383","8","img/238/4/0.5/bw/001.png","","","natural"
"","","","","","animation","126","661230","0.0-126.0","1920x1080","","5542.5999999940395","76","img/314/5.5/2/bw/001.png","","","natural"
"","","","","","animation","127","664330","0.0-127.0","1920x1080","","3098.9000000059605","31","img/238/2.5/0.66667/bw/001.png","","","natural"
"","","","","","animation","128","669687","0.0-128.0","1920x1080","","5356.200000017881","89","img/117/5.5/0.66667/bw/001.png","","","natural"
"","","","","","animation","129","676006","0.0-129.0","1920x1080","","6318.4000000059605","41","img/117/4/2/bw/001.png","","","natural"
"","","","","","animation","130","682646","0.0-130.0","1920x1080","","6638.9000000059605","36","img/314/4/0.66667/bw/001.png","","","natural"
"","","","","","animation","131","685280","0.0-131.0","1920x1080","","2633","31","img/238/3.5/0.5/bw/001.png","","","natural"
"","","","","","animation","132","692198","0.0-132.0","1920x1080","","6917.699999988079","47","img/314/4.5/2/bw/001.png","","","natural"
"","","","","","animation","133","693929","0.0-133.0","1920x1080","","1730.2000000178814","50.66","img/314/5.5/1.5/bw/001.png","","","natural"
"","","","","","animation","134","703230","0.0-134.0","1920x1080","","9299.800000011921","92","img/238/5.5/1.5/bw/001.png","","","natural"
"","","","","","animation","135","706746","0.0-135.0","1920x1080","","3512.4000000059605","37","img/117/4.5/1/bw/001.png","","","natural"
"","","","","","animation","136","711630","0.0-136.0","1920x1080","","4882.800000011921","2","img/238/2.5/1/bw/001.png","","","natural"
"","","","","","animation","137","715446","0.0-137.0","1920x1080","","3815.0999999940395","31","img/238/4/0.66667/bw/001.png","","","natural"
"","","","","","animation","138","717864","0.0-138.0","1920x1080","","2416.199999988079","28","img/238/4.5/0.5/bw/001.png","","","natural"
"","","","","","animation","139","721166","0.0-139.0","1920x1080","","3301.800000011921","30","img/314/4/1.5/bw/001.png","","","natural"
"","","","","","animation","140","726023","0.0-140.0","1920x1080","","4855.4000000059605","31","img/238/4.5/0.66667/bw/001.png","","","natural"
"","","","","","animation","141","727766","0.0-141.0","1920x1080","","1741.9000000059605","46.03","img/117/5.5/1.5/bw/001.png","","","natural"
"","","","","","animation","142","731151","0.0-142.0","1920x1080","","3383.2000000178814","55","img/117/5.5/2/bw/001.png","","","natural"
"","","","","","animation","143","733414","0.0-143.0","1920x1080","","2262.699999988079","44.71","img/314/4/1/bw/001.png","","","natural"
"","","","","","animation","144","736550","0.0-144.0","1920x1080","","3135.199999988079","64","img/238/5.5/1/bw/001.png","","","natural"
"","","","","","animation","145","740703","0.0-145.0","1920x1080","","4150.800000011921","34","img/117/4/0.5/bw/001.png","","","natural"
"","","","","","animation","146","743951","0.0-146.0","1920x1080","","3247.199999988079","15","img/238/3.5/1.5/bw/001.png","","","natural"
"","","","","","animation","147","747330","0.0-147.0","1920x1080","","3377.800000011921","24","img/117/4/1.5/bw/001.png","","","natural"
"","","","","","animation","148","751791","0.0-148.0","1920x1080","","4460.0999999940395","68","img/238/5.5/0.5/bw/001.png","","","natural"
"","","","","","animation","149","754863","0.0-149.0","1920x1080","","3071.300000011921","26","img/314/3.5/1.5/bw/001.png","","","natural"
"","","","","","animation","150","757366","0.0-150.0","1920x1080","","2502.0999999940395","44.97","img/117/4.5/0.66667/bw/001.png","","","natural"
"","","","","","animation","151","763480","0.0-151.0","1920x1080","","6112.300000011921","41","img/314/4/2/bw/001.png","","","natural"
"","","","","","animation","152","767980","0.0-152.0","1920x1080","","4499.199999988079","42.72","img/238/4/1.5/bw/001.png","","","natural"
"","","","","","animation","153","771519","0.0-153.0","1920x1080","","3538.199999988079","11","img/314/2.5/0.66667/bw/001.png","","","natural"
"","","","","","animation","154","774130","0.0-154.0","1920x1080","","2610.0999999940395","25","img/314/4.5/0.5/bw/001.png","","","natural"
"","","","","","animation","155","776423","0.0-155.0","1920x1080","","2291.0999999940395","35","img/238/3.5/1/bw/001.png","","","natural"
"","","","","","animation","156","779703","0.0-156.0","1920x1080","","3279.199999988079","15","img/117/2.5/0.66667/bw/001.png","","","natural"
"","","","","","animation","157","784530","0.0-157.0","1920x1080","","4826.0999999940395","28","img/117/3.5/0.5/bw/001.png","","","natural"
"","","","","","animation","158","789815","0.0-158.0","1920x1080","","5283.5999999940395","29","img/117/4/1/bw/001.png","","","natural"
"","","","","","html-button-response","159","810480","0.0-159.0","1920x1080","","20663.70000001788","","<div class=""intro"">You are about to view a new series of animations.<br><br></div><div class=""intro"">You will evaluate them based on a different descriptor.<br><br></div><div class=""intro"">Move the slider to indicate how <strong style=""text-transform:capitalize"">APPEALING</strong> you find each animation.<br><br></div><div class=""intro"">0 = Least Appealing<br></div><div class=""intro"">1 = Most Appealing<br><br></div><div class=""intro"">Remember to use the <strong><em>entire range</em></strong> of the slider to make your ratings.<br></div><div class=""intro"">Please <strong><em>take your time</em></strong> and carefully consider each rating you make.<br><br></div>","0","",""
"","","","","","call-function","160","810482","0.0-160.0","1920x1080","","","","","","",""
"","","","","","animation","161","816397","0.0-161.0","1920x1080","","5914.4000000059605","54","img/117/5.5/0.5/bw/001.png","","","appealing"
"","","","","","animation","162","821264","0.0-162.0","1920x1080","","4865.899999976158","49.47","img/238/4.5/1.5/bw/001.png","","","appealing"
"","","","","","animation","163","825023","0.0-163.0","1920x1080","","3758.4000000059605","50","img/314/5.5/0.5/bw/001.png","","","appealing"
"","","","","","animation","164","831914","0.0-164.0","1920x1080","","6889.800000011921","12","img/238/2.5/1/bw/001.png","","","appealing"
"","","","","","animation","165","834871","0.0-165.0","1920x1080","","2955.5","39","img/314/4/1.5/bw/001.png","","","appealing"
"","","","","","animation","166","837967","0.0-166.0","1920x1080","","3095.2999999821186","-3.57","img/238/2.5/0.66667/bw/001.png","","","appealing"
"","","","","","animation","167","842247","0.0-167.0","1920x1080","","4278.5999999940395","16","img/117/3.5/0.66667/bw/001.png","","","appealing"
"","","","","","animation","168","846407","0.0-168.0","1920x1080","","4159.299999982119","-7.14","img/238/2.5/1.5/bw/001.png","","","appealing"
"","","","","","animation","169","849255","0.0-169.0","1920x1080","","2846.5","27","img/314/3.5/0.66667/bw/001.png","","","appealing"
"","","","","","animation","170","853671","0.0-170.0","1920x1080","","4415.0999999940395","18","img/117/3.5/1.5/bw/001.png","","","appealing"
"","","","","","animation","171","856997","0.0-171.0","1920x1080","","3324.5","26","img/117/3.5/1/bw/001.png","","","appealing"
"","","","","","animation","172","860997","0.0-172.0","1920x1080","","3998.2999999821186","0","img/238/2.5/2/bw/001.png","","","appealing"
"","","","","","animation","173","867687","0.0-173.0","1920x1080","","6689.0999999940395","57","img/314/4.5/2/bw/001.png","","","appealing"
"","","","","","animation","174","871535","0.0-174.0","1920x1080","","3846.9000000059605","-3.97","img/117/2.5/0.5/bw/001.png","","","appealing"
"","","","","","animation","175","874535","0.0-175.0","1920x1080","","2998.5999999940395","54","img/314/4.5/0.66667/bw/001.png","","","appealing"
"","","","","","animation","176","879148","0.0-176.0","1920x1080","","4612","90","img/238/5.5/1/bw/001.png","","","appealing"
"","","","","","animation","177","882281","0.0-177.0","1920x1080","","3130.5","69","img/117/5.5/0.66667/bw/001.png","","","appealing"
"","","","","","animation","178","886463","0.0-178.0","1920x1080","","4181.0999999940395","-1.85","img/117/2.5/0.66667/bw/001.png","","","appealing"
"","","","","","animation","179","891497","0.0-179.0","1920x1080","","5032.5","98","img/238/5.5/0.66667/bw/001.png","","","appealing"
"","","","","","animation","180","895439","0.0-180.0","1920x1080","","3941.199999988079","76","img/117/5.5/1.5/bw/001.png","","","appealing"
"","","","","","animation","181","897935","0.0-181.0","1920x1080","","2494.5999999940395","57","img/238/4.5/1/bw/001.png","","","appealing"
"","","","","","animation","182","902735","0.0-182.0","1920x1080","","4799.0999999940395","-2.12","img/314/2.5/0.5/bw/001.png","","","appealing"
"","","","","","animation","183","907687","0.0-183.0","1920x1080","","4950.5999999940395","-6.75","img/314/2.5/0.66667/bw/001.png","","","appealing"
"","","","","","animation","184","911335","0.0-184.0","1920x1080","","3646.699999988079","29","img/314/3.5/2/bw/001.png","","","appealing"
"","","","","","animation","185","914983","0.0-185.0","1920x1080","","3646.4000000059605","18","img/117/2.5/1.5/bw/001.png","","","appealing"
"","","","","","animation","186","917364","0.0-186.0","1920x1080","","2379.9000000059605","31","img/238/3.5/0.66667/bw/001.png","","","appealing"
"","","","","","animation","187","928471","0.0-187.0","1920x1080","","11106.59999999404","75","img/238/5.5/2/bw/001.png","","","appealing"
"","","","","","animation","188","937167","0.0-188.0","1920x1080","","8694.59999999404","65","img/238/4.5/0.66667/bw/001.png","","","appealing"
"","","","","","animation","189","945280","0.0-189.0","1920x1080","","8111.799999982119","37","img/117/4/0.66667/bw/001.png","","","appealing"
"","","","","","animation","190","948887","0.0-190.0","1920x1080","","3606.0999999940395","6","img/314/2.5/1/bw/001.png","","","appealing"
"","","","","","animation","191","976980","0.0-191.0","1920x1080","","28091.59999999404","18","img/314/3.5/1/bw/001.png","","","appealing"
"","","","","","animation","192","980552","0.0-192.0","1920x1080","","3570","48","img/117/4.5/1/bw/001.png","","","appealing"
"","","","","","animation","193","983430","0.0-193.0","1920x1080","","2877.5","23","img/238/4/0.5/bw/001.png","","","appealing"
"","","","","","animation","194","992471","0.0-194.0","1920x1080","","9040.09999999404","100","img/314/5.5/2/bw/001.png","","","appealing"
"","","","","","animation","195","1010120","0.0-195.0","1920x1080","","17646","44.58","img/238/4/2/bw/001.png","","","appealing"
"","","","","","animation","196","1016047","0.0-196.0","1920x1080","","5926.300000011921","29","img/238/3.5/1.5/bw/001.png","","","appealing"
"","","","","","animation","197","1023647","0.0-197.0","1920x1080","","7598.800000011921","18","img/117/2.5/2/bw/001.png","","","appealing"
"","","","","","animation","198","1030040","0.0-198.0","1920x1080","","6391.300000011921","68","img/117/5.5/2/bw/001.png","","","appealing"
"","","","","","animation","199","1035280","0.0-199.0","1920x1080","","5239.100000023842","51","img/314/4.5/1.5/bw/001.png","","","appealing"
"","","","","","animation","200","1040797","0.0-200.0","1920x1080","","5515.300000011921","-0.79","img/314/3.5/0.5/bw/001.png","","","appealing"
"","","","","","animation","201","1044547","0.0-201.0","1920x1080","","3749","74","img/117/5.5/1/bw/001.png","","","appealing"
"","","","","","animation","202","1048288","0.0-202.0","1920x1080","","3739.199999988079","17","img/238/3.5/1/bw/001.png","","","appealing"
"","","","","","animation","203","1051697","0.0-203.0","1920x1080","","3408.2999999821186","4","img/117/4/0.5/bw/001.png","","","appealing"
"","","","","","animation","204","1056304","0.0-204.0","1920x1080","","4605","33","img/238/3.5/2/bw/001.png","","","appealing"
"","","","","","animation","205","1060184","0.0-205.0","1920x1080","","3878.699999988079","35","img/117/4.5/1.5/bw/001.png","","","appealing"
"","","","","","animation","206","1065464","0.0-206.0","1920x1080","","5278.799999982119","36","img/117/4.5/0.5/bw/001.png","","","appealing"
"","","","","","animation","207","1069214","0.0-207.0","1920x1080","","3749.0999999940395","31","img/238/4.5/0.5/bw/001.png","","","appealing"
"","","","","","animation","208","1072314","0.0-208.0","1920x1080","","3098","14","img/117/3.5/0.5/bw/001.png","","","appealing"
"","","","","","animation","209","1076514","0.0-209.0","1920x1080","","4198.9000000059605","73","img/314/5.5/1.5/bw/001.png","","","appealing"
"","","","","","animation","210","1079816","0.0-210.0","1920x1080","","3300.4000000059605","23","img/314/4/0.5/bw/001.png","","","appealing"
"","","","","","animation","211","1085048","0.0-211.0","1920x1080","","5230.5999999940395","71","img/314/5.5/1/bw/001.png","","","appealing"
"","","","","","animation","212","1088856","0.0-212.0","1920x1080","","3807.2000000178814","78","img/314/5.5/0.66667/bw/001.png","","","appealing"
"","","","","","animation","213","1091614","0.0-213.0","1920x1080","","2756.7999999821186","16","img/238/3.5/0.5/bw/001.png","","","appealing"
"","","","","","animation","214","1094347","0.0-214.0","1920x1080","","2731.899999976158","26","img/117/4/2/bw/001.png","","","appealing"
"","","","","","animation","215","1097248","0.0-215.0","1920x1080","","2899.2000000178814","22","img/314/4/0.66667/bw/001.png","","","appealing"
"","","","","","animation","216","1102240","0.0-216.0","1920x1080","","4990.9000000059605","2","img/117/2.5/1/bw/001.png","","","appealing"
"","","","","","animation","217","1105232","0.0-217.0","1920x1080","","2990.5","20","img/314/2.5/2/bw/001.png","","","appealing"
"","","","","","animation","218","1108120","0.0-218.0","1920x1080","","2887.2000000178814","75","img/238/5.5/0.5/bw/001.png","","","appealing"
"","","","","","animation","219","1114200","0.0-219.0","1920x1080","","6078.4000000059605","32","img/238/4/1.5/bw/001.png","","","appealing"
"","","","","","animation","220","1117981","0.0-220.0","1920x1080","","3779.699999988079","11","img/238/4/0.66667/bw/001.png","","","appealing"
"","","","","","animation","221","1123314","0.0-221.0","1920x1080","","5332.299999982119","9","img/117/4.5/0.66667/bw/001.png","","","appealing"
"","","","","","animation","222","1128248","0.0-222.0","1920x1080","","4932","23","img/238/4/1/bw/001.png","","","appealing"
"","","","","","animation","223","1132368","0.0-223.0","1920x1080","","4119.4000000059605","1","img/117/4/1/bw/001.png","","","appealing"
"","","","","","animation","224","1135288","0.0-224.0","1920x1080","","2918.5999999940395","20","img/314/4/2/bw/001.png","","","appealing"
"","","","","","animation","225","1139055","0.0-225.0","1920x1080","","3766.5","31","img/117/3.5/2/bw/001.png","","","appealing"
"","","","","","animation","226","1141814","0.0-226.0","1920x1080","","2756.300000011921","43.12","img/314/4.5/1/bw/001.png","","","appealing"
"","","","","","animation","227","1147080","0.0-227.0","1920x1080","","5265.300000011921","25","img/314/3.5/1.5/bw/001.png","","","appealing"
"","","","","","animation","228","1151047","0.0-228.0","1920x1080","","3964.800000011921","-7.54","img/238/2.5/0.5/bw/001.png","","","appealing"
"","","","","","animation","229","1154414","0.0-229.0","1920x1080","","3363.4000000059605","18","img/314/4.5/0.5/bw/001.png","","","appealing"
"","","","","","animation","230","1157015","0.0-230.0","1920x1080","","2600.0999999940395","25","img/117/4.5/2/bw/001.png","","","appealing"
"","","","","","animation","231","1160167","0.0-231.0","1920x1080","","3150.9000000059605","26","img/117/4/1.5/bw/001.png","","","appealing"
"","","","","","animation","232","1164069","0.0-232.0","1920x1080","","3900.7000000178814","81","img/238/5.5/1.5/bw/001.png","","","appealing"
"","","","","","animation","233","1167352","0.0-233.0","1920x1080","","3279.800000011921","59","img/238/4.5/2/bw/001.png","","","appealing"
"","","","","","animation","234","1173072","0.0-234.0","1920x1080","","5718.800000011921","38","img/314/4/1/bw/001.png","","","appealing"
"","","","","","animation","235","1176952","0.0-235.0","1920x1080","","3878.800000011921","26","img/314/2.5/1.5/bw/001.png","","","appealing"
"","","","","","html-button-response","236","1197072","0.0-236.0","1920x1080","","20118.09999999404","","<div class=""intro"">You are about to view a new series of animations.<br><br></div><div class=""intro"">You will evaluate them based on a different descriptor.<br><br></div><div class=""intro"">Move the slider to indicate how <strong style=""text-transform:capitalize"">RELAXING</strong> you find each animation.<br><br></div><div class=""intro"">0 = Least Relaxing<br></div><div class=""intro"">1 = Most Relaxing<br><br></div><div class=""intro"">Remember to use the <strong><em>entire range</em></strong> of the slider to make your ratings.<br></div><div class=""intro"">Please <strong><em>take your time</em></strong> and carefully consider each rating you make.<br><br></div>","0","",""
"","","","","","call-function","237","1197074","0.0-237.0","1920x1080","","","","","","",""
"","","","","","animation","238","1203568","0.0-238.0","1920x1080","","6493.0999999940395","83","img/314/5.5/2/bw/001.png","","","relaxing"
"","","","","","animation","239","1212381","0.0-239.0","1920x1080","","8810.899999976158","82","img/117/5.5/2/bw/001.png","","","relaxing"
"","","","","","animation","240","1223352","0.0-240.0","1920x1080","","10969.59999999404","65","img/314/5.5/1.5/bw/001.png","","","relaxing"
"","","","","","animation","241","1226984","0.0-241.0","1920x1080","","3628.800000011921","30","img/117/4/0.5/bw/001.png","","","relaxing"
"","","","","","animation","242","1230688","0.0-242.0","1920x1080","","3702.300000011921","-7.01","img/314/2.5/0.5/bw/001.png","","","relaxing"
"","","","","","animation","243","1233873","0.0-243.0","1920x1080","","3183","9","img/238/3.5/1/bw/001.png","","","relaxing"
"","","","","","animation","244","1238664","0.0-244.0","1920x1080","","4790.0999999940395","18","img/238/4.5/0.5/bw/001.png","","","relaxing"
"","","","","","animation","245","1242864","0.0-245.0","1920x1080","","4197.300000011921","17","img/117/3.5/1/bw/001.png","","","relaxing"
"","","","","","animation","246","1247369","0.0-246.0","1920x1080","","4503.5999999940395","61","img/314/5.5/1/bw/001.png","","","relaxing"
"","","","","","animation","247","1255081","0.0-247.0","1920x1080","","7710.5999999940395","17","img/314/2.5/1/bw/001.png","","","relaxing"
"","","","","","animation","248","1259416","0.0-248.0","1920x1080","","4333.299999982119","24","img/117/4.5/1/bw/001.png","","","relaxing"
"","","","","","animation","249","1265898","0.0-249.0","1920x1080","","6480","32","img/314/4/1/bw/001.png","","","relaxing"
"","","","","","animation","250","1268568","0.0-250.0","1920x1080","","2668.699999988079","42.59","img/314/4.5/2/bw/001.png","","","relaxing"
"","","","","","animation","251","1272857","0.0-251.0","1920x1080","","4286.899999976158","32","img/238/4/2/bw/001.png","","","relaxing"
"","","","","","animation","252","1275881","0.0-252.0","1920x1080","","3022.5","44","img/117/5.5/1.5/bw/001.png","","","relaxing"
"","","","","","animation","253","1279489","0.0-253.0","1920x1080","","3606.4000000059605","-4.89","img/238/2.5/0.5/bw/001.png","","","relaxing"
"","","","","","animation","254","1282714","0.0-254.0","1920x1080","","3224.4000000059605","14","img/238/3.5/1.5/bw/001.png","","","relaxing"
"","","","","","animation","255","1286648","0.0-255.0","1920x1080","","3931.9000000059605","-1.85","img/117/2.5/0.5/bw/001.png","","","relaxing"
"","","","","","animation","256","1289998","0.0-256.0","1920x1080","","3348.2000000178814","38","img/314/4.5/1/bw/001.png","","","relaxing"
"","","","","","animation","257","1293448","0.0-257.0","1920x1080","","3449.100000023842","29","img/117/5.5/0.66667/bw/001.png","","","relaxing"
"","","","","","animation","258","1296584","0.0-258.0","1920x1080","","3134.600000023842","13","img/238/2.5/2/bw/001.png","","","relaxing"
"","","","","","animation","259","1300148","0.0-259.0","1920x1080","","3562.2000000178814","30","img/117/5.5/1/bw/001.png","","","relaxing"
"","","","","","animation","260","1304200","0.0-260.0","1920x1080","","4051.100000023842","-3.44","img/117/2.5/2/bw/001.png","","","relaxing"
"","","","","","animation","261","1307416","0.0-261.0","1920x1080","","3214.5999999940395","8","img/314/3.5/0.66667/bw/001.png","","","relaxing"
"","","","","","animation","262","1310748","0.0-262.0","1920x1080","","3329.699999988079","-4.10","img/238/2.5/0.66667/bw/001.png","","","relaxing"
"","","","","","animation","263","1314104","0.0-263.0","1920x1080","","3355.300000011921","16","img/314/4.5/0.5/bw/001.png","","","relaxing"
"","","","","","animation","264","1318082","0.0-264.0","1920x1080","","3975.7999999821186","-6.75","img/314/3.5/0.5/bw/001.png","","","relaxing"
"","","","","","animation","265","1321368","0.0-265.0","1920x1080","","3284.699999988079","38","img/314/4/2/bw/001.png","","","relaxing"
"","","","","","animation","266","1324738","0.0-266.0","1920x1080","","3368.0999999940395","45","img/117/5.5/0.5/bw/001.png","","","relaxing"
"","","","","","animation","267","1331337","0.0-267.0","1920x1080","","6597.800000011921","26.59","img/314/3.5/1/bw/001.png","","","relaxing"
"","","","","","animation","268","1335298","0.0-268.0","1920x1080","","3959.399999976158","15","img/238/2.5/1.5/bw/001.png","","","relaxing"
"","","","","","animation","269","1339105","0.0-269.0","1920x1080","","3804.899999976158","58","img/238/5.5/1/bw/001.png","","","relaxing"
"","","","","","animation","270","1342123","0.0-270.0","1920x1080","","3017.2000000178814","39","img/117/4.5/0.5/bw/001.png","","","relaxing"
"","","","","","animation","271","1345032","0.0-271.0","1920x1080","","2907.5","15","img/314/4/0.5/bw/001.png","","","relaxing"
"","","","","","animation","272","1348354","0.0-272.0","1920x1080","","3320","23","img/117/2.5/1.5/bw/001.png","","","relaxing"
"","","","","","animation","273","1351232","0.0-273.0","1920x1080","","2877.0999999940395","5","img/117/3.5/0.66667/bw/001.png","","","relaxing"
"","","","","","animation","274","1354498","0.0-274.0","1920x1080","","3264.2000000178814","8","img/238/4/1/bw/001.png","","","relaxing"
"","","","","","animation","275","1358821","0.0-275.0","1920x1080","","4321.300000011921","22","img/117/3.5/2/bw/001.png","","","relaxing"
"","","","","","animation","276","1363103","0.0-276.0","1920x1080","","4281.100000023842","9","img/238/4.5/0.66667/bw/001.png","","","relaxing"
"","","","","","animation","277","1366569","0.0-277.0","1920x1080","","3460.0999999940395","24","img/314/4.5/1.5/bw/001.png","","","relaxing"
"","","","","","animation","278","1370381","0.0-278.0","1920x1080","","3810.5","29","img/314/4/1.5/bw/001.png","","","relaxing"
"","","","","","animation","279","1377952","0.0-279.0","1920x1080","","7569.300000011921","79","img/238/5.5/2/bw/001.png","","","relaxing"
"","","","","","animation","280","1385781","0.0-280.0","1920x1080","","7826.300000011921","24","img/117/4/2/bw/001.png","","","relaxing"
"","","","","","animation","281","1389216","0.0-281.0","1920x1080","","3431.300000011921","45.11","img/238/5.5/0.5/bw/001.png","","","relaxing"
"","","","","","animation","282","1393653","0.0-282.0","1920x1080","","4435.299999982119","11","img/314/2.5/2/bw/001.png","","","relaxing"
"","","","","","animation","283","1406504","0.0-283.0","1920x1080","","12848.699999988079","16","img/117/4.5/0.66667/bw/001.png","","","relaxing"
"","","","","","animation","284","1410197","0.0-284.0","1920x1080","","3687.100000023842","31","img/117/3.5/1.5/bw/001.png","","","relaxing"
"","","","","","animation","285","1413514","0.0-285.0","1920x1080","","3315.5999999940395","8","img/117/2.5/0.66667/bw/001.png","","","relaxing"
"","","","","","animation","286","1420298","0.0-286.0","1920x1080","","6782.699999988079","9","img/314/2.5/1.5/bw/001.png","","","relaxing"
"","","","","","animation","287","1424851","0.0-287.0","1920x1080","","4551.0999999940395","56","img/238/5.5/1.5/bw/001.png","","","relaxing"
"","","","","","animation","288","1427556","0.0-288.0","1920x1080","","2703.199999988079","29","img/238/4.5/2/bw/001.png","","","relaxing"
"","","","","","animation","289","1434441","0.0-289.0","1920x1080","","6882.799999982119","45.77","img/314/4.5/0.66667/bw/001.png","","","relaxing"
"","","","","","animation","290","1438964","0.0-290.0","1920x1080","","4520.9000000059605","35","img/314/3.5/2/bw/001.png","","","relaxing"
"","","","","","animation","291","1442217","0.0-291.0","1920x1080","","3251.300000011921","18","img/314/4/0.66667/bw/001.png","","","relaxing"
"","","","","","animation","292","1446254","0.0-292.0","1920x1080","","4035.2000000178814","32","img/117/4.5/2/bw/001.png","","","relaxing"
"","","","","","animation","293","1449823","0.0-293.0","1920x1080","","3566.699999988079","20","img/238/4.5/1/bw/001.png","","","relaxing"
"","","","","","animation","294","1453067","0.0-294.0","1920x1080","","3242.800000011921","34","img/238/4/1.5/bw/001.png","","","relaxing"
"","","","","","animation","295","1455998","0.0-295.0","1920x1080","","2929.199999988079","-2.78","img/314/2.5/0.66667/bw/001.png","","","relaxing"
"","","","","","animation","296","1459104","0.0-296.0","1920x1080","","3105.0999999940395","29","img/238/4.5/1.5/bw/001.png","","","relaxing"
"","","","","","animation","297","1467168","0.0-297.0","1920x1080","","8061.300000011921","62","img/238/5.5/0.66667/bw/001.png","","","relaxing"
"","","","","","animation","298","1473416","0.0-298.0","1920x1080","","6246.5999999940395","25","img/117/4/1/bw/001.png","","","relaxing"
"","","","","","animation","299","1478505","0.0-299.0","1920x1080","","5087.699999988079","34","img/314/5.5/0.5/bw/001.png","","","relaxing"
"","","","","","animation","300","1483091","0.0-300.0","1920x1080","","4583.699999988079","40","img/314/5.5/0.66667/bw/001.png","","","relaxing"
"","","","","","animation","301","1487371","0.0-301.0","1920x1080","","4277.9000000059605","32","img/117/4.5/1.5/bw/001.png","","","relaxing"
"","","","","","animation","302","1490647","0.0-302.0","1920x1080","","3274.899999976158","5","img/238/3.5/0.5/bw/001.png","","","relaxing"
"","","","","","animation","303","1494282","0.0-303.0","1920x1080","","3633.4000000059605","1","img/238/3.5/0.66667/bw/001.png","","","relaxing"
"","","","","","animation","304","1498525","0.0-304.0","1920x1080","","4240.5999999940395","1","img/238/4/0.66667/bw/001.png","","","relaxing"
"","","","","","animation","305","1502315","0.0-305.0","1920x1080","","3787.7999999821186","-1.98","img/117/2.5/1/bw/001.png","","","relaxing"
"","","","","","animation","306","1505569","0.0-306.0","1920x1080","","3253.2000000178814","13","img/238/4/0.5/bw/001.png","","","relaxing"
"","","","","","animation","307","1508792","0.0-307.0","1920x1080","","3220.7999999821186","20","img/314/3.5/1.5/bw/001.png","","","relaxing"
"","","","","","animation","308","1511893","0.0-308.0","1920x1080","","3099","6","img/238/2.5/1/bw/001.png","","","relaxing"
"","","","","","animation","309","1517706","0.0-309.0","1920x1080","","5811.699999988079","14","img/117/4/0.66667/bw/001.png","","","relaxing"
"","","","","","animation","310","1521574","0.0-310.0","1920x1080","","3865.199999988079","27","img/238/3.5/2/bw/001.png","","","relaxing"
"","","","","","animation","311","1530987","0.0-311.0","1920x1080","","9410.90000000596","13","img/117/3.5/0.5/bw/001.png","","","relaxing"
"","","","","","animation","312","1534156","0.0-312.0","1920x1080","","3164.4000000059605","22","img/117/4/1.5/bw/001.png","","","relaxing"
"","","","","","html-button-response","313","1553622","0.0-313.0","1920x1080","","19463.70000001788","","<div class=""intro"">You are about to view a new series of animations.<br><br></div><div class=""intro"">You will evaluate them based on a different descriptor.<br><br></div><div class=""intro"">Move the slider to indicate how <strong style=""text-transform:capitalize"">INTERESTING</strong> you find each animation.<br><br></div><div class=""intro"">0 = Least Interesting<br></div><div class=""intro"">1 = Most Interesting<br><br></div><div class=""intro"">Remember to use the <strong><em>entire range</em></strong> of the slider to make your ratings.<br></div><div class=""intro"">Please <strong><em>take your time</em></strong> and carefully consider each rating you make.<br><br></div>","0","",""
"","","","","","call-function","314","1553623","0.0-314.0","1920x1080","","","","","","",""
"","","","","","animation","315","1558781","0.0-315.0","1920x1080","","5157.199999988079","59","img/314/5.5/1/bw/001.png","","","interesting"
"","","","","","animation","316","1567369","0.0-316.0","1920x1080","","8587.199999988079","60","img/238/5.5/2/bw/001.png","","","interesting"
"","","","","","animation","317","1570843","0.0-317.0","1920x1080","","3471.5999999940395","28","img/238/2.5/1.5/bw/001.png","","","interesting"
"","","","","","animation","318","1574388","0.0-318.0","1920x1080","","3542.800000011921","34","img/117/4/2/bw/001.png","","","interesting"
"","","","","","animation","319","1578100","0.0-319.0","1920x1080","","3710.4000000059605","69","img/314/5.5/0.66667/bw/001.png","","","interesting"
"","","","","","animation","320","1581925","0.0-320.0","1920x1080","","3823.2999999821186","36","img/238/4/1.5/bw/001.png","","","interesting"
"","","","","","animation","321","1585737","0.0-321.0","1920x1080","","3810.0999999940395","75","img/117/5.5/0.66667/bw/001.png","","","interesting"
"","","","","","animation","322","1588833","0.0-322.0","1920x1080","","3094.5","7","img/117/2.5/0.66667/bw/001.png","","","interesting"
"","","","","","animation","323","1592173","0.0-323.0","1920x1080","","3338.4000000059605","10","img/314/3.5/0.66667/bw/001.png","","","interesting"
"","","","","","animation","324","1595138","0.0-324.0","1920x1080","","2963.4000000059605","64","img/238/5.5/1.5/bw/001.png","","","interesting"
"","","","","","animation","325","1598367","0.0-325.0","1920x1080","","3226.9000000059605","78","img/117/5.5/1/bw/001.png","","","interesting"
"","","","","","animation","326","1602217","0.0-326.0","1920x1080","","3847.4000000059605","74","img/238/4.5/1.5/bw/001.png","","","interesting"
"","","","","","animation","327","1606067","0.0-327.0","1920x1080","","3848.7999999821186","20","img/117/3.5/1.5/bw/001.png","","","interesting"
"","","","","","animation","328","1610816","0.0-328.0","1920x1080","","4747.5","31","img/314/2.5/2/bw/001.png","","","interesting"
"","","","","","animation","329","1619584","0.0-329.0","1920x1080","","8765.600000023842","89","img/314/4.5/2/bw/001.png","","","interesting"
"","","","","","animation","330","1622545","0.0-330.0","1920x1080","","2958.5999999940395","62.70","img/314/4/1.5/bw/001.png","","","interesting"
"","","","","","animation","331","1627248","0.0-331.0","1920x1080","","4701.199999988079","28","img/238/3.5/0.5/bw/001.png","","","interesting"
"","","","","","animation","332","1631673","0.0-332.0","1920x1080","","4424.299999982119","59","img/238/4.5/2/bw/001.png","","","interesting"
"","","","","","animation","333","1634798","0.0-333.0","1920x1080","","3122.899999976158","23","img/314/2.5/0.5/bw/001.png","","","interesting"
"","","","","","animation","334","1637767","0.0-334.0","1920x1080","","2967.5999999940395","32","img/238/4.5/0.5/bw/001.png","","","interesting"
"","","","","","animation","335","1649525","0.0-335.0","1920x1080","","11756.5","37","img/238/4/0.66667/bw/001.png","","","interesting"
"","","","","","animation","336","1652681","0.0-336.0","1920x1080","","3151.199999988079","34","img/314/4/0.5/bw/001.png","","","interesting"
"","","","","","animation","337","1661306","0.0-337.0","1920x1080","","8623","33","img/314/4.5/0.5/bw/001.png","","","interesting"
"","","","","","animation","338","1669465","0.0-338.0","1920x1080","","8157.200000017881","38","img/117/3.5/0.5/bw/001.png","","","interesting"
"","","","","","animation","339","1674817","0.0-339.0","1920x1080","","5350.299999982119","53","img/314/3.5/1.5/bw/001.png","","","interesting"
"","","","","","animation","340","1679048","0.0-340.0","1920x1080","","4228.0999999940395","40.34","img/117/4/0.5/bw/001.png","","","interesting"
"","","","","","animation","341","1682889","0.0-341.0","1920x1080","","3838.5999999940395","6","img/117/2.5/2/bw/001.png","","","interesting"
"","","","","","animation","342","1686281","0.0-342.0","1920x1080","","3389.899999976158","75","img/314/5.5/0.5/bw/001.png","","","interesting"
"","","","","","animation","343","1689098","0.0-343.0","1920x1080","","2815.7000000178814","65","img/117/4/1/bw/001.png","","","interesting"
"","","","","","animation","344","1692049","0.0-344.0","1920x1080","","2949","62","img/314/4.5/1/bw/001.png","","","interesting"
"","","","","","animation","345","1696057","0.0-345.0","1920x1080","","4006.100000023842","31","img/117/3.5/0.66667/bw/001.png","","","interesting"
"","","","","","animation","346","1702511","0.0-346.0","1920x1080","","6452.800000011921","36","img/238/4/1/bw/001.png","","","interesting"
"","","","","","animation","347","1706233","0.0-347.0","1920x1080","","3719","56","img/238/2.5/2/bw/001.png","","","interesting"
"","","","","","animation","348","1711427","0.0-348.0","1920x1080","","5192.5999999940395","67","img/314/3.5/2/bw/001.png","","","interesting"
"","","","","","animation","349","1721433","0.0-349.0","1920x1080","","10004.700000017881","56","img/314/3.5/1/bw/001.png","","","interesting"
"","","","","","animation","350","1724897","0.0-350.0","1920x1080","","3462.300000011921","44","img/238/3.5/0.66667/bw/001.png","","","interesting"
"","","","","","animation","351","1728193","0.0-351.0","1920x1080","","3294.2000000178814","41.14","img/117/4.5/1/bw/001.png","","","interesting"
"","","","","","animation","352","1731411","0.0-352.0","1920x1080","","3215.7000000178814","57","img/238/5.5/0.5/bw/001.png","","","interesting"
"","","","","","animation","353","1734190","0.0-353.0","1920x1080","","2776.9000000059605","32","img/117/3.5/2/bw/001.png","","","interesting"
"","","","","","animation","354","1738566","0.0-354.0","1920x1080","","4374.299999982119","55","img/314/5.5/2/bw/001.png","","","interesting"
"","","","","","animation","355","1741417","0.0-355.0","1920x1080","","2848.4000000059605","40","img/117/2.5/1/bw/001.png","","","interesting"
"","","","","","animation","356","1746761","0.0-356.0","1920x1080","","5342.5999999940395","75","img/314/5.5/1.5/bw/001.png","","","interesting"
"","","","","","animation","357","1749297","0.0-357.0","1920x1080","","2534.0999999940395","37","img/117/4/0.66667/bw/001.png","","","interesting"
"","","","","","animation","358","1753833","0.0-358.0","1920x1080","","4534.300000011921","35","img/314/2.5/1.5/bw/001.png","","","interesting"
"","","","","","animation","359","1761014","0.0-359.0","1920x1080","","7179.299999982119","40.34","img/238/3.5/2/bw/001.png","","","interesting"
"","","","","","animation","360","1765880","0.0-360.0","1920x1080","","4863","54","img/117/5.5/1.5/bw/001.png","","","interesting"
"","","","","","animation","361","1768692","0.0-361.0","1920x1080","","2807.5999999940395","38","img/314/2.5/0.66667/bw/001.png","","","interesting"
"","","","","","animation","362","1771682","0.0-362.0","1920x1080","","2988.300000011921","34","img/238/3.5/1/bw/001.png","","","interesting"
"","","","","","animation","363","1774480","0.0-363.0","1920x1080","","2796","14","img/117/2.5/1.5/bw/001.png","","","interesting"
"","","","","","animation","364","1776481","0.0-364.0","1920x1080","","1997.9000000059605","11","img/117/2.5/0.5/bw/001.png","","","interesting"
"","","","","","animation","365","1779797","0.0-365.0","1920x1080","","3315.0999999940395","23","img/314/4/0.66667/bw/001.png","","","interesting"
"","","","","","animation","366","1783556","0.0-366.0","1920x1080","","3757.199999988079","27","img/238/3.5/1.5/bw/001.png","","","interesting"
"","","","","","animation","367","1787044","0.0-367.0","1920x1080","","3484","62.57","img/314/4/1/bw/001.png","","","interesting"
"","","","","","animation","368","1790282","0.0-368.0","1920x1080","","3236.699999988079","49.47","img/117/5.5/0.5/bw/001.png","","","interesting"
"","","","","","animation","369","1793369","0.0-369.0","1920x1080","","3085.0999999940395","61","img/117/4.5/1.5/bw/001.png","","","interesting"
"","","","","","animation","370","1795365","0.0-370.0","1920x1080","","1994","57","img/238/4/2/bw/001.png","","","interesting"
"","","","","","animation","371","1797201","0.0-371.0","1920x1080","","1835.199999988079","60","img/314/4/2/bw/001.png","","","interesting"
"","","","","","animation","372","1799165","0.0-372.0","1920x1080","","1962.7999999821186","29","img/117/3.5/1/bw/001.png","","","interesting"
"","","","","","animation","373","1801339","0.0-373.0","1920x1080","","2172.0999999940395","59","img/238/5.5/1/bw/001.png","","","interesting"
"","","","","","animation","374","1803609","0.0-374.0","1920x1080","","2268","30","img/117/4.5/2/bw/001.png","","","interesting"
"","","","","","animation","375","1806217","0.0-375.0","1920x1080","","2606.2000000178814","13","img/238/2.5/1/bw/001.png","","","interesting"
"","","","","","animation","376","1809692","0.0-376.0","1920x1080","","3472.699999988079","23","img/238/4.5/0.66667/bw/001.png","","","interesting"
"","","","","","animation","377","1812281","0.0-377.0","1920x1080","","2587","34","img/238/4/0.5/bw/001.png","","","interesting"
"","","","","","animation","378","1814698","0.0-378.0","1920x1080","","2415.5","37","img/314/4.5/0.66667/bw/001.png","","","interesting"
"","","","","","animation","379","1817401","0.0-379.0","1920x1080","","2702.5","14","img/314/2.5/1/bw/001.png","","","interesting"
"","","","","","animation","380","1820507","0.0-380.0","1920x1080","","3101.699999988079","21","img/117/4.5/0.66667/bw/001.png","","","interesting"
"","","","","","animation","381","1823065","0.0-381.0","1920x1080","","2555.5999999940395","-2.25","img/238/2.5/0.5/bw/001.png","","","interesting"
"","","","","","animation","382","1826731","0.0-382.0","1920x1080","","3664.4000000059605","68","img/238/4.5/1/bw/001.png","","","interesting"
"","","","","","animation","383","1828875","0.0-383.0","1920x1080","","2142.199999988079","54","img/238/5.5/0.66667/bw/001.png","","","interesting"
"","","","","","animation","384","1830925","0.0-384.0","1920x1080","","2048.899999976158","49","img/117/4.5/0.5/bw/001.png","","","interesting"
"","","","","","animation","385","1834470","0.0-385.0","1920x1080","","3544.2999999821186","67","img/314/4.5/1.5/bw/001.png","","","interesting"
"","","","","","animation","386","1836449","0.0-386.0","1920x1080","","1976.800000011921","56","img/117/5.5/2/bw/001.png","","","interesting"
"","","","","","animation","387","1839082","0.0-387.0","1920x1080","","2631.5","11","img/238/2.5/0.66667/bw/001.png","","","interesting"
"","","","","","animation","388","1842001","0.0-388.0","1920x1080","","2918.4000000059605","34","img/314/3.5/0.5/bw/001.png","","","interesting"
"","","","","","animation","389","1844731","0.0-389.0","1920x1080","","2725","35","img/117/4/1.5/bw/001.png","","","interesting"
"","","","","","html-button-response","390","1854986","0.0-390.0","1920x1080","","10252.199999988079","","<strong>Study Debriefing</strong><br><p class=""debrief""><strong>Background:</strong> The patterns you rated are called <em>fractals</em>. The term fractal describes a class of irregular curves or shapes for which any suitably chosen part is similar in shape to a given larger or smaller part when magnified or reduced to the same size. Fractal properties are found throughout the natural and manmade world. The series of animations you saw today displayed animated fractal patterns of a varying complexity.</p><p class=""debrief""><strong>Purpose of this study:</strong> We hope to better understand how the perception of static fractals differs from the perception of animated fractals, and how the speed of the animated patterns influences people&apos;s perception of them. Fractals allow us to study the perception of aesthetic properties (e.g. the perceived level of beauty in an image) without using recognizable content, which makes them an excellent tool for studying abstract aesthetic judgement.</p><p class=""debrief""><strong>Your part:</strong> Your participation has helped us to further understand how humans perceive these patterns across different levels of speed and complexity. This research with allow us to better understand how the visual system and brain process our ever-changing visual environments.<p class=""debrief""><strong>Feedback and Further information:</strong> If you have additional questions about this study, please feel free to ask the researcher, Nathan Gonzales-Hess at nhess @ uoregon.edu. If you have any questions concerning your rights as a research participant, please contact Research Compliance Services, 5237 University of Oregon, Eugene, OR 97403, 541-346-2510, or email researchCompliance @ uoregon.edu. You can also email the Human Subjects Coordinator for psychology and linguistics research at hscoord @ uoregon.edu. ","0","",""
"","","","","","html-button-response","391","1858739","0.0-391.0","1920x1080","","3747.2000000178814","","Thank you for participating in this study. <br>Please click below to finish the experiment and submit your responses.<br><br>","0","",""
"true","","","","","fullscreen","392","1859744","0.0-392.0","1920x1080","11:21 23/5/2022","","","","","",""
