"success","timeout","failed_images","failed_audio","failed_video","trial_type","trial_index","time_elapsed","internal_node_id","resolution","timeStamp","rt","response","stimulus","button_pressed","value","descriptor"
"true","false","[]","[]","[]","preload","0","17434","0.0-0.0","1920x1080","","","","","","",""
"true","false","[]","[]","[]","preload","1","34713","0.0-1.0","1920x1080","","","","","","",""
"true","false","[]","[]","[]","preload","2","52057","0.0-2.0","1920x1080","","","","","","",""
"true","","","","","fullscreen","3","95090","0.0-3.0","1920x1080","12:59 27/5/2022","","","","","",""
"","","","","","survey-html-form","4","106378","0.0-4.0","1920x1080","","11285.799999952316","{""age"":""18"",""gender"":""female""}","","","",""
"","","","","","html-button-response","5","139562","0.0-5.0","1920x1080","","33182.89999997616","","<div class=""complex"">You are going to see a series of animations.<br><br></div><div class=""complex"">Move the slider to indicate how <strong style=""text-transform:capitalize"">COMPLEX</strong> you find each animation.<br><br></div><div class=""complex"">0 = Least Complex<br></div><div class=""complex"">1 = Most Complex<br><br></div><div class=""complex"">Remember to use the <strong><em>entire range</em></strong> of the slider to make your ratings.<br></div><div class=""complex"">Please <strong><em>take your time</em></strong> and carefully consider each rating you make.<br><br></div><div class=""complex"">The study has five sections and will take about 45 minutes to complete.<br><br></div>","0","",""
"","","","","","call-function","6","139562","0.0-6.0","1920x1080","","","","","","",""
"","","","","","animation","7","149490","0.0-7.0","1920x1080","","9924.899999976158","61.90","img/314/3.5/0.5/bw/001.png","","","complex"
"","","","","","animation","8","164122","0.0-8.0","1920x1080","","14631.200000047684","37.96","img/117/4/0.5/bw/001.png","","","complex"
"","","","","","animation","9","167410","0.0-9.0","1920x1080","","3287","18.65","img/314/4/1/bw/001.png","","","complex"
"","","","","","animation","10","173170","0.0-10.0","1920x1080","","5758.799999952316","68.92","img/117/3.5/0.5/bw/001.png","","","complex"
"","","","","","animation","11","180497","0.0-11.0","1920x1080","","7326.800000071526","34","img/314/4.5/1/bw/001.png","","","complex"
"","","","","","animation","12","186577","0.0-12.0","1920x1080","","6078.799999952316","85.05","img/117/2.5/0.5/bw/001.png","","","complex"
"","","","","","animation","13","193690","0.0-13.0","1920x1080","","7109.600000023842","16.80","img/117/5.5/1.5/bw/001.png","","","complex"
"","","","","","animation","14","202002","0.0-14.0","1920x1080","","8308.699999928474","13.89","img/238/5.5/2/bw/001.png","","","complex"
"","","","","","animation","15","205569","0.0-15.0","1920x1080","","3566.9000000953674","26.72","img/238/4.5/0.66667/bw/001.png","","","complex"
"","","","","","animation","16","210794","0.0-16.0","1920x1080","","5224.100000023842","90.34","img/238/2.5/1.5/bw/001.png","","","complex"
"","","","","","animation","17","214873","0.0-17.0","1920x1080","","4078.899999976158","38.62","img/117/5.5/2/bw/001.png","","","complex"
"","","","","","animation","18","218801","0.0-18.0","1920x1080","","3926.899999976158","33.33","img/314/5.5/1.5/bw/001.png","","","complex"
"","","","","","animation","19","222177","0.0-19.0","1920x1080","","3375.2000000476837","30.03","img/238/4.5/1.5/bw/001.png","","","complex"
"","","","","","animation","20","227611","0.0-20.0","1920x1080","","5432.399999976158","95","img/117/2.5/1/bw/001.png","","","complex"
"","","","","","animation","21","233577","0.0-21.0","1920x1080","","5965.799999952316","83.86","img/117/3.5/0.66667/bw/001.png","","","complex"
"","","","","","animation","22","240058","0.0-22.0","1920x1080","","6479.700000047684","41","img/314/4.5/1.5/bw/001.png","","","complex"
"","","","","","animation","23","242626","0.0-23.0","1920x1080","","2567.0999999046326","45.37","img/117/4.5/0.66667/bw/001.png","","","complex"
"","","","","","animation","24","246505","0.0-24.0","1920x1080","","3878.9000000953674","64.55","img/314/3.5/2/bw/001.png","","","complex"
"","","","","","animation","25","252594","0.0-25.0","1920x1080","","6087.899999976158","32","img/314/4/2/bw/001.png","","","complex"
"","","","","","animation","26","256273","0.0-26.0","1920x1080","","3678.5","4","img/238/5.5/1/bw/001.png","","","complex"
"","","","","","animation","27","258745","0.0-27.0","1920x1080","","2470.6999999284744","92.33","img/314/2.5/1/bw/001.png","","","complex"
"","","","","","animation","28","262017","0.0-28.0","1920x1080","","3271.2999999523163","98","img/238/2.5/0.5/bw/001.png","","","complex"
"","","","","","animation","29","264369","0.0-29.0","1920x1080","","2351.4000000953674","78.70","img/117/3.5/2/bw/001.png","","","complex"
"","","","","","animation","30","269578","0.0-30.0","1920x1080","","5207.700000047684","57.80","img/238/3.5/1.5/bw/001.png","","","complex"
"","","","","","animation","31","271994","0.0-31.0","1920x1080","","2415.5","29.23","img/117/5.5/0.66667/bw/001.png","","","complex"
"","","","","","animation","32","277873","0.0-32.0","1920x1080","","5878.5","99","img/238/2.5/0.66667/bw/001.png","","","complex"
"","","","","","animation","33","280617","0.0-33.0","1920x1080","","2743.399999976158","32.28","img/117/4.5/2/bw/001.png","","","complex"
"","","","","","animation","34","284097","0.0-34.0","1920x1080","","3478.7999999523163","95","img/314/2.5/1.5/bw/001.png","","","complex"
"","","","","","animation","35","291953","0.0-35.0","1920x1080","","7855.699999928474","44.71","img/117/4/1/bw/001.png","","","complex"
"","","","","","animation","36","297881","0.0-36.0","1920x1080","","5926.899999976158","94.58","img/238/2.5/1/bw/001.png","","","complex"
"","","","","","animation","37","300681","0.0-37.0","1920x1080","","2799","71.69","img/238/3.5/2/bw/001.png","","","complex"
"","","","","","animation","38","305081","0.0-38.0","1920x1080","","4399.100000023842","45.50","img/238/4.5/1/bw/001.png","","","complex"
"","","","","","animation","39","308601","0.0-39.0","1920x1080","","3519.5","54.23","img/117/3.5/1.5/bw/001.png","","","complex"
"","","","","","animation","40","312011","0.0-40.0","1920x1080","","3408.7000000476837","62.57","img/238/3.5/1/bw/001.png","","","complex"
"","","","","","animation","41","318914","0.0-41.0","1920x1080","","6901.899999976158","40.87","img/314/4.5/0.66667/bw/001.png","","","complex"
"","","","","","animation","42","323305","0.0-42.0","1920x1080","","4390.899999976158","30.95","img/117/4/1.5/bw/001.png","","","complex"
"","","","","","animation","43","328449","0.0-43.0","1920x1080","","5142.899999976158","39.55","img/314/3.5/1/bw/001.png","","","complex"
"","","","","","animation","44","331089","0.0-44.0","1920x1080","","2638.8000000715256","30.42","img/238/4/1/bw/001.png","","","complex"
"","","","","","animation","45","335106","0.0-45.0","1920x1080","","4015.3000000715256","61.51","img/117/3.5/1/bw/001.png","","","complex"
"","","","","","animation","46","342418","0.0-46.0","1920x1080","","7311.199999928474","36.11","img/238/4.5/0.5/bw/001.png","","","complex"
"","","","","","animation","47","347586","0.0-47.0","1920x1080","","5167.199999928474","97","img/117/2.5/0.66667/bw/001.png","","","complex"
"","","","","","animation","48","355657","0.0-48.0","1920x1080","","8070.799999952316","34.13","img/314/5.5/0.5/bw/001.png","","","complex"
"","","","","","animation","49","364729","0.0-49.0","1920x1080","","9070.700000047684","51.32","img/238/4/1.5/bw/001.png","","","complex"
"","","","","","animation","50","367402","0.0-50.0","1920x1080","","2671.5","60.71","img/238/3.5/0.5/bw/001.png","","","complex"
"","","","","","animation","51","376812","0.0-51.0","1920x1080","","9409","28.17","img/238/5.5/0.66667/bw/001.png","","","complex"
"","","","","","animation","52","383427","0.0-52.0","1920x1080","","6614.700000047684","46.30","img/314/4/1.5/bw/001.png","","","complex"
"","","","","","animation","53","390266","0.0-53.0","1920x1080","","6837.600000023842","69","img/314/3.5/0.66667/bw/001.png","","","complex"
"","","","","","animation","54","395178","0.0-54.0","1920x1080","","4911.700000047684","47.22","img/117/4.5/1/bw/001.png","","","complex"
"","","","","","animation","55","400618","0.0-55.0","1920x1080","","5438.899999976158","21","img/238/5.5/0.5/bw/001.png","","","complex"
"","","","","","animation","56","405845","0.0-56.0","1920x1080","","5225.800000071526","95","img/314/2.5/0.66667/bw/001.png","","","complex"
"","","","","","animation","57","408929","0.0-57.0","1920x1080","","3083.600000023842","39.55","img/117/4.5/1.5/bw/001.png","","","complex"
"","","","","","animation","58","413722","0.0-58.0","1920x1080","","4790.699999928474","98","img/238/2.5/2/bw/001.png","","","complex"
"","","","","","animation","59","417045","0.0-59.0","1920x1080","","3322.1999999284744","27.65","img/314/5.5/2/bw/001.png","","","complex"
"","","","","","animation","60","423986","0.0-60.0","1920x1080","","6940.399999976158","59","img/238/4/0.5/bw/001.png","","","complex"
"","","","","","animation","61","426730","0.0-61.0","1920x1080","","2742.8000000715256","34.79","img/117/5.5/0.5/bw/001.png","","","complex"
"","","","","","animation","62","430690","0.0-62.0","1920x1080","","3959.5","53.84","img/238/3.5/0.66667/bw/001.png","","","complex"
"","","","","","animation","63","435779","0.0-63.0","1920x1080","","5088","46.83","img/314/4.5/0.5/bw/001.png","","","complex"
"","","","","","animation","64","439228","0.0-64.0","1920x1080","","3447.899999976158","98","img/314/2.5/2/bw/001.png","","","complex"
"","","","","","animation","65","442211","0.0-65.0","1920x1080","","2982.100000023842","99","img/117/2.5/1.5/bw/001.png","","","complex"
"","","","","","animation","66","446186","0.0-66.0","1920x1080","","3974.0999999046326","14.15","img/238/5.5/1.5/bw/001.png","","","complex"
"","","","","","animation","67","450106","0.0-67.0","1920x1080","","3919.2999999523163","21.03","img/117/5.5/1/bw/001.png","","","complex"
"","","","","","animation","68","454012","0.0-68.0","1920x1080","","3904.6999999284744","21.43","img/314/5.5/1/bw/001.png","","","complex"
"","","","","","animation","69","463818","0.0-69.0","1920x1080","","9805.199999928474","47.35","img/314/4/0.66667/bw/001.png","","","complex"
"","","","","","animation","70","469897","0.0-70.0","1920x1080","","6078.800000071526","97","img/314/2.5/0.5/bw/001.png","","","complex"
"","","","","","animation","71","477602","0.0-71.0","1920x1080","","7703.399999976158","72","img/117/4/2/bw/001.png","","","complex"
"","","","","","animation","72","483434","0.0-72.0","1920x1080","","5830.799999952316","65.08","img/238/4/2/bw/001.png","","","complex"
"","","","","","animation","73","487834","0.0-73.0","1920x1080","","4399.299999952316","50.00","img/117/4/0.66667/bw/001.png","","","complex"
"","","","","","animation","74","493212","0.0-74.0","1920x1080","","5377","34.66","img/238/4.5/2/bw/001.png","","","complex"
"","","","","","animation","75","496354","0.0-75.0","1920x1080","","3141.100000023842","42.99","img/314/4.5/2/bw/001.png","","","complex"
"","","","","","animation","76","500245","0.0-76.0","1920x1080","","3890.3000000715256","54.63","img/117/4.5/0.5/bw/001.png","","","complex"
"","","","","","animation","77","505650","0.0-77.0","1920x1080","","5403.300000071526","88.76","img/117/2.5/2/bw/001.png","","","complex"
"","","","","","animation","78","509570","0.0-78.0","1920x1080","","3919.3000000715256","78.31","img/314/4/0.5/bw/001.png","","","complex"
"","","","","","animation","79","512633","0.0-79.0","1920x1080","","3062.899999976158","85.71","img/314/3.5/1.5/bw/001.png","","","complex"
"","","","","","animation","80","517849","0.0-80.0","1920x1080","","5215.100000023842","59.92","img/238/4/0.66667/bw/001.png","","","complex"
"","","","","","animation","81","521145","0.0-81.0","1920x1080","","3294.600000023842","35.71","img/314/5.5/0.66667/bw/001.png","","","complex"
"","","","","","html-button-response","82","543586","0.0-82.0","1920x1080","","22439.800000071526","","<div class=""intro"">You are about to view a new series of animations.<br><br></div><div class=""intro"">You will evaluate them based on a different descriptor.<br><br></div><div class=""intro"">Move the slider to indicate how <strong style=""text-transform:capitalize"">RELAXING</strong> you find each animation.<br><br></div><div class=""intro"">0 = Least Relaxing<br></div><div class=""intro"">1 = Most Relaxing<br><br></div><div class=""intro"">Remember to use the <strong><em>entire range</em></strong> of the slider to make your ratings.<br></div><div class=""intro"">Please <strong><em>take your time</em></strong> and carefully consider each rating you make.<br><br></div>","0","",""
"","","","","","call-function","83","543588","0.0-83.0","1920x1080","","","","","","",""
"","","","","","animation","84","554337","0.0-84.0","1920x1080","","10748.799999952316","4.76","img/238/3.5/0.5/bw/001.png","","","relaxing"
"","","","","","animation","85","564905","0.0-85.0","1920x1080","","10566.899999976158","47.49","img/314/4.5/0.5/bw/001.png","","","relaxing"
"","","","","","animation","86","575538","0.0-86.0","1920x1080","","10630.399999976158","11.64","img/238/3.5/0.66667/bw/001.png","","","relaxing"
"","","","","","animation","87","585490","0.0-87.0","1920x1080","","9951","45.24","img/117/4.5/1/bw/001.png","","","relaxing"
"","","","","","animation","88","589979","0.0-88.0","1920x1080","","4487.400000095367","0","img/238/2.5/0.66667/bw/001.png","","","relaxing"
"","","","","","animation","89","594811","0.0-89.0","1920x1080","","4830.700000047684","32.54","img/314/3.5/1/bw/001.png","","","relaxing"
"","","","","","animation","90","598538","0.0-90.0","1920x1080","","3726.7000000476837","0","img/314/2.5/0.5/bw/001.png","","","relaxing"
"","","","","","animation","91","603954","0.0-91.0","1920x1080","","5414.600000023842","54.37","img/238/4/1.5/bw/001.png","","","relaxing"
"","","","","","animation","92","611962","0.0-92.0","1920x1080","","8006.200000047684","70.11","img/238/5.5/1/bw/001.png","","","relaxing"
"","","","","","animation","93","617562","0.0-93.0","1920x1080","","5599.5","77.65","img/238/5.5/0.5/bw/001.png","","","relaxing"
"","","","","","animation","94","620106","0.0-94.0","1920x1080","","2542.2999999523163","3.17","img/117/2.5/1.5/bw/001.png","","","relaxing"
"","","","","","animation","95","626306","0.0-95.0","1920x1080","","6198.899999976158","65.87","img/314/4.5/2/bw/001.png","","","relaxing"
"","","","","","animation","96","630262","0.0-96.0","1920x1080","","3955.2000000476837","85.85","img/314/5.5/1/bw/001.png","","","relaxing"
"","","","","","animation","97","637162","0.0-97.0","1920x1080","","6898.400000095367","2","img/314/2.5/1/bw/001.png","","","relaxing"
"","","","","","animation","98","643578","0.0-98.0","1920x1080","","6415.5","16.01","img/238/3.5/1/bw/001.png","","","relaxing"
"","","","","","animation","99","657978","0.0-99.0","1920x1080","","14398.800000071526","79.50","img/117/5.5/1/bw/001.png","","","relaxing"
"","","","","","animation","100","662538","0.0-100.0","1920x1080","","4559.399999976158","42","img/117/4.5/0.5/bw/001.png","","","relaxing"
"","","","","","animation","101","666044","0.0-101.0","1920x1080","","3505.2999999523163","54.76","img/314/4.5/1.5/bw/001.png","","","relaxing"
"","","","","","animation","102","671461","0.0-102.0","1920x1080","","5415.399999976158","61.51","img/314/4/2/bw/001.png","","","relaxing"
"","","","","","animation","103","674178","0.0-103.0","1920x1080","","2715.6999999284744","5.16","img/314/2.5/1.5/bw/001.png","","","relaxing"
"","","","","","animation","104","679402","0.0-104.0","1920x1080","","5223.5","50.66","img/117/5.5/0.5/bw/001.png","","","relaxing"
"","","","","","animation","105","683898","0.0-105.0","1920x1080","","4494.5","22","img/314/3.5/0.66667/bw/001.png","","","relaxing"
"","","","","","animation","106","687034","0.0-106.0","1920x1080","","3135.5","4.23","img/314/2.5/0.66667/bw/001.png","","","relaxing"
"","","","","","animation","107","689893","0.0-107.0","1920x1080","","2858.600000023842","1.32","img/238/2.5/0.5/bw/001.png","","","relaxing"
"","","","","","animation","108","699076","0.0-108.0","1920x1080","","9182.299999952316","58.33","img/238/4.5/1.5/bw/001.png","","","relaxing"
"","","","","","animation","109","707665","0.0-109.0","1920x1080","","8588.400000095367","10.58","img/117/2.5/2/bw/001.png","","","relaxing"
"","","","","","animation","110","712859","0.0-110.0","1920x1080","","5193.299999952316","40.21","img/314/4/1/bw/001.png","","","relaxing"
"","","","","","animation","111","717671","0.0-111.0","1920x1080","","4810.899999976158","2.51","img/117/3.5/0.5/bw/001.png","","","relaxing"
"","","","","","animation","112","725105","0.0-112.0","1920x1080","","7432.799999952316","11.38","img/314/4/0.5/bw/001.png","","","relaxing"
"","","","","","animation","113","729010","0.0-113.0","1920x1080","","3903.4000000953674","3.04","img/238/2.5/1/bw/001.png","","","relaxing"
"","","","","","animation","114","735553","0.0-114.0","1920x1080","","6542.700000047684","33.99","img/314/3.5/1.5/bw/001.png","","","relaxing"
"","","","","","animation","115","738676","0.0-115.0","1920x1080","","3122.2999999523163","3.31","img/117/2.5/0.66667/bw/001.png","","","relaxing"
"","","","","","animation","116","741322","0.0-116.0","1920x1080","","2644.7000000476837","1.32","img/117/2.5/1/bw/001.png","","","relaxing"
"","","","","","animation","117","744897","0.0-117.0","1920x1080","","3573.7000000476837","18.52","img/314/4/0.66667/bw/001.png","","","relaxing"
"","","","","","animation","118","747961","0.0-118.0","1920x1080","","3062.6999999284744","2.12","img/238/2.5/1.5/bw/001.png","","","relaxing"
"","","","","","animation","119","758882","0.0-119.0","1920x1080","","10919.299999952316","45.11","img/238/4/2/bw/001.png","","","relaxing"
"","","","","","animation","120","764710","0.0-120.0","1920x1080","","5827.5","65.87","img/117/5.5/1.5/bw/001.png","","","relaxing"
"","","","","","animation","121","768293","0.0-121.0","1920x1080","","3582.0999999046326","76.85","img/238/5.5/1.5/bw/001.png","","","relaxing"
"","","","","","animation","122","775066","0.0-122.0","1920x1080","","6771.300000071526","67.06","img/117/5.5/0.66667/bw/001.png","","","relaxing"
"","","","","","animation","123","782202","0.0-123.0","1920x1080","","7135.199999928474","78.44","img/314/5.5/1.5/bw/001.png","","","relaxing"
"","","","","","animation","124","788622","0.0-124.0","1920x1080","","6418.700000047684","70.63","img/314/5.5/0.66667/bw/001.png","","","relaxing"
"","","","","","animation","125","793802","0.0-125.0","1920x1080","","5178.5","46.96","img/117/4/0.66667/bw/001.png","","","relaxing"
"","","","","","animation","126","799162","0.0-126.0","1920x1080","","5358.600000023842","22.22","img/238/2.5/2/bw/001.png","","","relaxing"
"","","","","","animation","127","805211","0.0-127.0","1920x1080","","6048.100000023842","37.83","img/117/4/1/bw/001.png","","","relaxing"
"","","","","","animation","128","839477","0.0-128.0","1920x1080","","34265.300000071526","46.83","img/238/4.5/1/bw/001.png","","","relaxing"
"","","","","","animation","129","846546","0.0-129.0","1920x1080","","7067.899999976158","43.65","img/238/4.5/0.66667/bw/001.png","","","relaxing"
"","","","","","animation","130","853594","0.0-130.0","1920x1080","","7047.399999976158","19.97","img/117/3.5/1.5/bw/001.png","","","relaxing"
"","","","","","animation","131","860461","0.0-131.0","1920x1080","","6865.400000095367","19.05","img/117/3.5/0.66667/bw/001.png","","","relaxing"
"","","","","","animation","132","869050","0.0-132.0","1920x1080","","8588.599999904633","8.73","img/314/2.5/2/bw/001.png","","","relaxing"
"","","","","","animation","133","875076","0.0-133.0","1920x1080","","6025.800000071526","74","img/238/5.5/2/bw/001.png","","","relaxing"
"","","","","","animation","134","881729","0.0-134.0","1920x1080","","6652.100000023842","32.67","img/117/3.5/1/bw/001.png","","","relaxing"
"","","","","","animation","135","887929","0.0-135.0","1920x1080","","6199.199999928474","42.86","img/314/4.5/1/bw/001.png","","","relaxing"
"","","","","","animation","136","910509","0.0-136.0","1920x1080","","22578.799999952316","31.75","img/117/4/2/bw/001.png","","","relaxing"
"","","","","","animation","137","915585","0.0-137.0","1920x1080","","5075.200000047684","82","img/314/5.5/2/bw/001.png","","","relaxing"
"","","","","","animation","138","921443","0.0-138.0","1920x1080","","5856","60.32","img/314/5.5/0.5/bw/001.png","","","relaxing"
"","","","","","animation","139","932497","0.0-139.0","1920x1080","","11054","84.39","img/238/4.5/2/bw/001.png","","","relaxing"
"","","","","","animation","140","938314","0.0-140.0","1920x1080","","5814.899999976158","21.16","img/117/4/0.5/bw/001.png","","","relaxing"
"","","","","","animation","141","946850","0.0-141.0","1920x1080","","8535","78.44","img/117/5.5/2/bw/001.png","","","relaxing"
"","","","","","animation","142","958818","0.0-142.0","1920x1080","","11967","20.11","img/314/3.5/2/bw/001.png","","","relaxing"
"","","","","","animation","143","970602","0.0-143.0","1920x1080","","11782","27.91","img/238/4/0.66667/bw/001.png","","","relaxing"
"","","","","","animation","144","975586","0.0-144.0","1920x1080","","4982.899999976158","30.29","img/117/4.5/0.66667/bw/001.png","","","relaxing"
"","","","","","animation","145","978634","0.0-145.0","1920x1080","","3047","16.53","img/238/4/0.5/bw/001.png","","","relaxing"
"","","","","","animation","146","982044","0.0-146.0","1920x1080","","3408.6999999284744","39.55","img/117/4.5/1.5/bw/001.png","","","relaxing"
"","","","","","animation","147","991770","0.0-147.0","1920x1080","","9724.700000047684","22.35","img/238/4/1/bw/001.png","","","relaxing"
"","","","","","animation","148","998418","0.0-148.0","1920x1080","","6646.700000047684","18.65","img/238/4.5/0.5/bw/001.png","","","relaxing"
"","","","","","animation","149","1004178","0.0-149.0","1920x1080","","5758.400000095367","0","img/117/2.5/0.5/bw/001.png","","","relaxing"
"","","","","","animation","150","1014443","0.0-150.0","1920x1080","","10264","30.56","img/238/3.5/1.5/bw/001.png","","","relaxing"
"","","","","","animation","151","1018114","0.0-151.0","1920x1080","","3670","78.57","img/238/5.5/0.66667/bw/001.png","","","relaxing"
"","","","","","animation","152","1028727","0.0-152.0","1920x1080","","10611.700000047684","33.73","img/314/4.5/0.66667/bw/001.png","","","relaxing"
"","","","","","animation","153","1037010","0.0-153.0","1920x1080","","8279.100000023842","50.66","img/314/4/1.5/bw/001.png","","","relaxing"
"","","","","","animation","154","1041780","0.0-154.0","1920x1080","","4769.100000023842","15.48","img/314/3.5/0.5/bw/001.png","","","relaxing"
"","","","","","animation","155","1045493","0.0-155.0","1920x1080","","3712.100000023842","34.26","img/238/3.5/2/bw/001.png","","","relaxing"
"","","","","","animation","156","1050510","0.0-156.0","1920x1080","","5015.800000071526","72.09","img/117/4.5/2/bw/001.png","","","relaxing"
"","","","","","animation","157","1054618","0.0-157.0","1920x1080","","4107.600000023842","49.74","img/117/4/1.5/bw/001.png","","","relaxing"
"","","","","","animation","158","1059250","0.0-158.0","1920x1080","","4630.799999952316","35.45","img/117/3.5/2/bw/001.png","","","relaxing"
"","","","","","html-button-response","159","1082364","0.0-159.0","1920x1080","","23111.899999976158","","<div class=""intro"">You are about to view a new series of animations.<br><br></div><div class=""intro"">You will evaluate them based on a different descriptor.<br><br></div><div class=""intro"">Move the slider to indicate how <strong style=""text-transform:capitalize"">APPEALING</strong> you find each animation.<br><br></div><div class=""intro"">0 = Least Appealing<br></div><div class=""intro"">1 = Most Appealing<br><br></div><div class=""intro"">Remember to use the <strong><em>entire range</em></strong> of the slider to make your ratings.<br></div><div class=""intro"">Please <strong><em>take your time</em></strong> and carefully consider each rating you make.<br><br></div>","0","",""
"","","","","","call-function","160","1082366","0.0-160.0","1920x1080","","","","","","",""
"","","","","","animation","161","1093466","0.0-161.0","1920x1080","","11099.200000047684","52","img/117/3.5/1/bw/001.png","","","appealing"
"","","","","","animation","162","1100260","0.0-162.0","1920x1080","","6792.199999928474","69.44","img/117/4.5/0.5/bw/001.png","","","appealing"
"","","","","","animation","163","1105034","0.0-163.0","1920x1080","","4773.900000095367","77.91","img/238/4.5/1.5/bw/001.png","","","appealing"
"","","","","","animation","164","1111362","0.0-164.0","1920x1080","","6326.699999928474","41.01","img/314/4/2/bw/001.png","","","appealing"
"","","","","","animation","165","1123560","0.0-165.0","1920x1080","","12196.300000071526","29.63","img/314/3.5/1.5/bw/001.png","","","appealing"
"","","","","","animation","166","1132643","0.0-166.0","1920x1080","","9081.700000047684","45","img/117/2.5/1/bw/001.png","","","appealing"
"","","","","","animation","167","1144915","0.0-167.0","1920x1080","","12270.899999976158","16.40","img/238/3.5/2/bw/001.png","","","appealing"
"","","","","","animation","168","1149692","0.0-168.0","1920x1080","","4776.899999976158","4.10","img/238/2.5/1/bw/001.png","","","appealing"
"","","","","","animation","169","1153493","0.0-169.0","1920x1080","","3799.3000000715256","67.99","img/314/4.5/2/bw/001.png","","","appealing"
"","","","","","animation","170","1159043","0.0-170.0","1920x1080","","5548.600000023842","81.35","img/117/5.5/2/bw/001.png","","","appealing"
"","","","","","animation","171","1168562","0.0-171.0","1920x1080","","9518.5","54.76","img/238/4.5/2/bw/001.png","","","appealing"
"","","","","","animation","172","1176602","0.0-172.0","1920x1080","","8039","42.33","img/314/3.5/0.66667/bw/001.png","","","appealing"
"","","","","","animation","173","1182582","0.0-173.0","1920x1080","","5978.600000023842","97","img/314/5.5/2/bw/001.png","","","appealing"
"","","","","","animation","174","1188876","0.0-174.0","1920x1080","","6292.200000047684","26.85","img/314/3.5/2/bw/001.png","","","appealing"
"","","","","","animation","175","1194509","0.0-175.0","1920x1080","","5632.199999928474","49.74","img/117/3.5/1.5/bw/001.png","","","appealing"
"","","","","","animation","176","1196986","0.0-176.0","1920x1080","","2476.1999999284744","12.30","img/117/2.5/0.5/bw/001.png","","","appealing"
"","","","","","animation","177","1204442","0.0-177.0","1920x1080","","7455.200000047684","41.80","img/314/4/0.5/bw/001.png","","","appealing"
"","","","","","animation","178","1207218","0.0-178.0","1920x1080","","2774.5","9.26","img/314/2.5/1/bw/001.png","","","appealing"
"","","","","","animation","179","1212650","0.0-179.0","1920x1080","","5430.699999928474","16.80","img/117/2.5/1.5/bw/001.png","","","appealing"
"","","","","","animation","180","1220309","0.0-180.0","1920x1080","","7657.799999952316","58.73","img/117/4/0.66667/bw/001.png","","","appealing"
"","","","","","animation","181","1225466","0.0-181.0","1920x1080","","5156.199999928474","38.76","img/238/4/0.66667/bw/001.png","","","appealing"
"","","","","","animation","182","1232250","0.0-182.0","1920x1080","","6783.100000023842","84.92","img/314/5.5/0.5/bw/001.png","","","appealing"
"","","","","","animation","183","1250883","0.0-183.0","1920x1080","","18630.699999928474","41.27","img/238/4/1/bw/001.png","","","appealing"
"","","","","","animation","184","1263481","0.0-184.0","1920x1080","","12597.600000023842","29.50","img/238/3.5/0.5/bw/001.png","","","appealing"
"","","","","","animation","185","1265859","0.0-185.0","1920x1080","","2376.399999976158","66.01","img/238/4.5/0.5/bw/001.png","","","appealing"
"","","","","","animation","186","1270460","0.0-186.0","1920x1080","","4599.399999976158","47.09","img/314/3.5/0.5/bw/001.png","","","appealing"
"","","","","","animation","187","1275034","0.0-187.0","1920x1080","","4573.5","12.43","img/314/2.5/0.66667/bw/001.png","","","appealing"
"","","","","","animation","188","1278898","0.0-188.0","1920x1080","","3862.5","5.56","img/238/2.5/2/bw/001.png","","","appealing"
"","","","","","animation","189","1283359","0.0-189.0","1920x1080","","4459.300000071526","77.12","img/117/5.5/1/bw/001.png","","","appealing"
"","","","","","animation","190","1288962","0.0-190.0","1920x1080","","5601.800000071526","70.77","img/238/4.5/1/bw/001.png","","","appealing"
"","","","","","animation","191","1294309","0.0-191.0","1920x1080","","5345.899999976158","58.86","img/238/4/0.5/bw/001.png","","","appealing"
"","","","","","animation","192","1300325","0.0-192.0","1920x1080","","6015","48","img/117/3.5/0.66667/bw/001.png","","","appealing"
"","","","","","animation","193","1305418","0.0-193.0","1920x1080","","5091.399999976158","55.03","img/117/4/0.5/bw/001.png","","","appealing"
"","","","","","animation","194","1309330","0.0-194.0","1920x1080","","3910.7999999523163","18.52","img/238/2.5/0.5/bw/001.png","","","appealing"
"","","","","","animation","195","1314418","0.0-195.0","1920x1080","","5086.399999976158","68.39","img/314/4/1.5/bw/001.png","","","appealing"
"","","","","","animation","196","1320866","0.0-196.0","1920x1080","","6446.700000047684","79.89","img/238/5.5/0.5/bw/001.png","","","appealing"
"","","","","","animation","197","1331075","0.0-197.0","1920x1080","","10208.100000023842","73.94","img/238/4/2/bw/001.png","","","appealing"
"","","","","","animation","198","1337026","0.0-198.0","1920x1080","","5948.899999976158","60.19","img/117/3.5/2/bw/001.png","","","appealing"
"","","","","","animation","199","1347530","0.0-199.0","1920x1080","","10503.399999976158","67.86","img/117/4/2/bw/001.png","","","appealing"
"","","","","","animation","200","1361393","0.0-200.0","1920x1080","","13862.600000023842","50.40","img/238/4/1.5/bw/001.png","","","appealing"
"","","","","","animation","201","1366358","0.0-201.0","1920x1080","","4963.299999952316","30","img/117/3.5/0.5/bw/001.png","","","appealing"
"","","","","","animation","202","1372775","0.0-202.0","1920x1080","","6415.799999952316","54.50","img/314/4.5/0.66667/bw/001.png","","","appealing"
"","","","","","animation","203","1376258","0.0-203.0","1920x1080","","3481.7000000476837","5.82","img/238/2.5/1.5/bw/001.png","","","appealing"
"","","","","","animation","204","1387525","0.0-204.0","1920x1080","","11265.299999952316","51.98","img/117/4.5/1/bw/001.png","","","appealing"
"","","","","","animation","205","1392042","0.0-205.0","1920x1080","","4515.299999952316","15.34","img/314/2.5/2/bw/001.png","","","appealing"
"","","","","","animation","206","1402330","0.0-206.0","1920x1080","","10287","64.42","img/117/4.5/2/bw/001.png","","","appealing"
"","","","","","animation","207","1409825","0.0-207.0","1920x1080","","7493.700000047684","76.46","img/238/5.5/1/bw/001.png","","","appealing"
"","","","","","animation","208","1420160","0.0-208.0","1920x1080","","10333.099999904633","76.32","img/314/5.5/1.5/bw/001.png","","","appealing"
"","","","","","animation","209","1426326","0.0-209.0","1920x1080","","6164.600000023842","30.56","img/314/4.5/1/bw/001.png","","","appealing"
"","","","","","animation","210","1429315","0.0-210.0","1920x1080","","2987.8000000715256","3.84","img/238/2.5/0.66667/bw/001.png","","","appealing"
"","","","","","animation","211","1444666","0.0-211.0","1920x1080","","15350.299999952316","16.80","img/117/4/1.5/bw/001.png","","","appealing"
"","","","","","animation","212","1487658","0.0-212.0","1920x1080","","42991.199999928474","41.80","img/314/4.5/0.5/bw/001.png","","","appealing"
"","","","","","animation","213","1494042","0.0-213.0","1920x1080","","6382.600000023842","34.66","img/117/4.5/0.66667/bw/001.png","","","appealing"
"","","","","","animation","214","1496978","0.0-214.0","1920x1080","","2934.3000000715256","85.45","img/238/5.5/1.5/bw/001.png","","","appealing"
"","","","","","animation","215","1504008","0.0-215.0","1920x1080","","7028.600000023842","30.03","img/238/3.5/1.5/bw/001.png","","","appealing"
"","","","","","animation","216","1506898","0.0-216.0","1920x1080","","2888.6999999284744","10.98","img/117/2.5/0.66667/bw/001.png","","","appealing"
"","","","","","animation","217","1511125","0.0-217.0","1920x1080","","4225.399999976158","44.58","img/238/4.5/0.66667/bw/001.png","","","appealing"
"","","","","","animation","218","1518594","0.0-218.0","1920x1080","","7466.699999928474","13","img/314/2.5/1.5/bw/001.png","","","appealing"
"","","","","","animation","219","1521775","0.0-219.0","1920x1080","","3179.6999999284744","69.44","img/117/5.5/1.5/bw/001.png","","","appealing"
"","","","","","animation","220","1527825","0.0-220.0","1920x1080","","6048.799999952316","75.26","img/314/4.5/1.5/bw/001.png","","","appealing"
"","","","","","animation","221","1532378","0.0-221.0","1920x1080","","4551.700000047684","39.55","img/238/3.5/0.66667/bw/001.png","","","appealing"
"","","","","","animation","222","1538058","0.0-222.0","1920x1080","","5679","47.22","img/314/3.5/1/bw/001.png","","","appealing"
"","","","","","animation","223","1541941","0.0-223.0","1920x1080","","3882.3000000715256","61.11","img/117/4.5/1.5/bw/001.png","","","appealing"
"","","","","","animation","224","1546491","0.0-224.0","1920x1080","","4548.800000071526","97","img/314/5.5/0.66667/bw/001.png","","","appealing"
"","","","","","animation","225","1550514","0.0-225.0","1920x1080","","4021.0999999046326","13.23","img/314/2.5/0.5/bw/001.png","","","appealing"
"","","","","","animation","226","1554098","0.0-226.0","1920x1080","","3582.6999999284744","86","img/117/5.5/0.66667/bw/001.png","","","appealing"
"","","","","","animation","227","1556875","0.0-227.0","1920x1080","","2775.600000023842","81.75","img/117/5.5/0.5/bw/001.png","","","appealing"
"","","","","","animation","228","1561794","0.0-228.0","1920x1080","","4917.799999952316","31.48","img/117/4/1/bw/001.png","","","appealing"
"","","","","","animation","229","1567594","0.0-229.0","1920x1080","","5798.5","13.49","img/117/2.5/2/bw/001.png","","","appealing"
"","","","","","animation","230","1574958","0.0-230.0","1920x1080","","7362.900000095367","96","img/238/5.5/2/bw/001.png","","","appealing"
"","","","","","animation","231","1586546","0.0-231.0","1920x1080","","11586.799999952316","50.40","img/314/4/0.66667/bw/001.png","","","appealing"
"","","","","","animation","232","1590525","0.0-232.0","1920x1080","","3977.3000000715256","90.48","img/314/5.5/1/bw/001.png","","","appealing"
"","","","","","animation","233","1600066","0.0-233.0","1920x1080","","9539.800000071526","99","img/238/5.5/0.66667/bw/001.png","","","appealing"
"","","","","","animation","234","1605530","0.0-234.0","1920x1080","","5459","30.95","img/238/3.5/1/bw/001.png","","","appealing"
"","","","","","animation","235","1611458","0.0-235.0","1920x1080","","5926.699999928474","39.68","img/314/4/1/bw/001.png","","","appealing"
"","","","","","html-button-response","236","1632163","0.0-236.0","1920x1080","","20702.700000047684","","<div class=""intro"">You are about to view a new series of animations.<br><br></div><div class=""intro"">You will evaluate them based on a different descriptor.<br><br></div><div class=""intro"">Move the slider to indicate how <strong style=""text-transform:capitalize"">INTERESTING</strong> you find each animation.<br><br></div><div class=""intro"">0 = Least Interesting<br></div><div class=""intro"">1 = Most Interesting<br><br></div><div class=""intro"">Remember to use the <strong><em>entire range</em></strong> of the slider to make your ratings.<br></div><div class=""intro"">Please <strong><em>take your time</em></strong> and carefully consider each rating you make.<br><br></div>","0","",""
"","","","","","call-function","237","1632164","0.0-237.0","1920x1080","","","","","","",""
"","","","","","animation","238","1639498","0.0-238.0","1920x1080","","7333.099999904633","53.70","img/238/2.5/2/bw/001.png","","","interesting"
"","","","","","animation","239","1642908","0.0-239.0","1920x1080","","3408.600000023842","96","img/314/5.5/1/bw/001.png","","","interesting"
"","","","","","animation","240","1647762","0.0-240.0","1920x1080","","4852.899999976158","88.36","img/117/5.5/0.66667/bw/001.png","","","interesting"
"","","","","","animation","241","1651441","0.0-241.0","1920x1080","","3678","59.66","img/314/3.5/0.66667/bw/001.png","","","interesting"
"","","","","","animation","242","1654609","0.0-242.0","1920x1080","","3167.2999999523163","20.37","img/117/2.5/0.5/bw/001.png","","","interesting"
"","","","","","animation","243","1661057","0.0-243.0","1920x1080","","6446.800000071526","56.61","img/314/4/1/bw/001.png","","","interesting"
"","","","","","animation","244","1665024","0.0-244.0","1920x1080","","3964.5","10.98","img/117/2.5/0.66667/bw/001.png","","","interesting"
"","","","","","animation","245","1668624","0.0-245.0","1920x1080","","3598.600000023842","95","img/314/5.5/2/bw/001.png","","","interesting"
"","","","","","animation","246","1672914","0.0-246.0","1920x1080","","4288.399999976158","73.94","img/238/4.5/0.5/bw/001.png","","","interesting"
"","","","","","animation","247","1676807","0.0-247.0","1920x1080","","3892.3000000715256","20.63","img/314/2.5/1.5/bw/001.png","","","interesting"
"","","","","","animation","248","1679224","0.0-248.0","1920x1080","","2415.5","4.89","img/314/2.5/0.66667/bw/001.png","","","interesting"
"","","","","","animation","249","1681908","0.0-249.0","1920x1080","","2682.399999976158","13.36","img/117/2.5/1/bw/001.png","","","interesting"
"","","","","","animation","250","1687758","0.0-250.0","1920x1080","","5848.699999928474","87.83","img/117/5.5/2/bw/001.png","","","interesting"
"","","","","","animation","251","1700257","0.0-251.0","1920x1080","","12498.600000023842","72.49","img/238/4.5/1.5/bw/001.png","","","interesting"
"","","","","","animation","252","1702891","0.0-252.0","1920x1080","","2632.2000000476837","65.08","img/238/4/0.5/bw/001.png","","","interesting"
"","","","","","animation","253","1706157","0.0-253.0","1920x1080","","3265.2000000476837","75.13","img/314/4.5/2/bw/001.png","","","interesting"
"","","","","","animation","254","1709957","0.0-254.0","1920x1080","","3798.899999976158","32.14","img/117/3.5/1/bw/001.png","","","interesting"
"","","","","","animation","255","1717946","0.0-255.0","1920x1080","","7987","40.21","img/117/4.5/0.5/bw/001.png","","","interesting"
"","","","","","animation","256","1722426","0.0-256.0","1920x1080","","4477.700000047684","59","img/238/3.5/1.5/bw/001.png","","","interesting"
"","","","","","animation","257","1728325","0.0-257.0","1920x1080","","5896.899999976158","93","img/238/5.5/1/bw/001.png","","","interesting"
"","","","","","animation","258","1735594","0.0-258.0","1920x1080","","7267.800000071526","84.13","img/117/5.5/1/bw/001.png","","","interesting"
"","","","","","animation","259","1740497","0.0-259.0","1920x1080","","4902.100000023842","32.01","img/314/2.5/2/bw/001.png","","","interesting"
"","","","","","animation","260","1743458","0.0-260.0","1920x1080","","2959.1999999284744","5.29","img/314/2.5/0.5/bw/001.png","","","interesting"
"","","","","","animation","261","1754346","0.0-261.0","1920x1080","","10886.799999952316","26.19","img/238/4/0.66667/bw/001.png","","","interesting"
"","","","","","animation","262","1761410","0.0-262.0","1920x1080","","7062.399999976158","11.77","img/238/2.5/1.5/bw/001.png","","","interesting"
"","","","","","animation","263","1769699","0.0-263.0","1920x1080","","8287","35.71","img/117/4.5/0.66667/bw/001.png","","","interesting"
"","","","","","animation","264","1777124","0.0-264.0","1920x1080","","7424.400000095367","49.74","img/117/4.5/1.5/bw/001.png","","","interesting"
"","","","","","animation","265","1781610","0.0-265.0","1920x1080","","4484.300000071526","59.26","img/117/4/0.5/bw/001.png","","","interesting"
"","","","","","animation","266","1784698","0.0-266.0","1920x1080","","3086.7999999523163","66.93","img/117/4.5/1/bw/001.png","","","interesting"
"","","","","","animation","267","1789607","0.0-267.0","1920x1080","","4907.5","77.12","img/314/5.5/0.66667/bw/001.png","","","interesting"
"","","","","","animation","268","1794794","0.0-268.0","1920x1080","","5184.599999904633","82.14","img/117/5.5/1.5/bw/001.png","","","interesting"
"","","","","","animation","269","1819987","0.0-269.0","1920x1080","","25191.699999928474","21.56","img/314/2.5/1/bw/001.png","","","interesting"
"","","","","","animation","270","1822724","0.0-270.0","1920x1080","","2733.399999976158","41.40","img/117/4/1.5/bw/001.png","","","interesting"
"","","","","","animation","271","1828490","0.0-271.0","1920x1080","","5765.5","50","img/314/3.5/1.5/bw/001.png","","","interesting"
"","","","","","animation","272","1833746","0.0-272.0","1920x1080","","5254.100000023842","80.82","img/117/4.5/2/bw/001.png","","","interesting"
"","","","","","animation","273","1840674","0.0-273.0","1920x1080","","6926.600000023842","53","img/238/3.5/0.5/bw/001.png","","","interesting"
"","","","","","animation","274","1843642","0.0-274.0","1920x1080","","2966.3000000715256","38.36","img/117/2.5/2/bw/001.png","","","interesting"
"","","","","","animation","275","1848074","0.0-275.0","1920x1080","","4431.100000023842","19.31","img/238/2.5/0.66667/bw/001.png","","","interesting"
"","","","","","animation","276","1856357","0.0-276.0","1920x1080","","8280.799999952316","49","img/117/3.5/1.5/bw/001.png","","","interesting"
"","","","","","animation","277","1860557","0.0-277.0","1920x1080","","4198.899999976158","27","img/238/2.5/1/bw/001.png","","","interesting"
"","","","","","animation","278","1865808","0.0-278.0","1920x1080","","5248.600000023842","80.69","img/314/5.5/1.5/bw/001.png","","","interesting"
"","","","","","animation","279","1870391","0.0-279.0","1920x1080","","4581.600000023842","96","img/238/5.5/2/bw/001.png","","","interesting"
"","","","","","animation","280","1874674","0.0-280.0","1920x1080","","4281.5","62.43","img/238/3.5/2/bw/001.png","","","interesting"
"","","","","","animation","281","1888930","0.0-281.0","1920x1080","","14253.600000023842","57.80","img/117/3.5/2/bw/001.png","","","interesting"
"","","","","","animation","282","1899410","0.0-282.0","1920x1080","","10478.700000047684","46.83","img/314/4/0.66667/bw/001.png","","","interesting"
"","","","","","animation","283","1936380","0.0-283.0","1920x1080","","36967.60000002384","53.17","img/117/4/2/bw/001.png","","","interesting"
"","","","","","animation","284","1939442","0.0-284.0","1920x1080","","3060.2999999523163","56.61","img/314/3.5/2/bw/001.png","","","interesting"
"","","","","","animation","285","1942842","0.0-285.0","1920x1080","","3398.6999999284744","78.70","img/314/4.5/1.5/bw/001.png","","","interesting"
"","","","","","animation","286","1946426","0.0-286.0","1920x1080","","3582.100000023842","42.86","img/117/3.5/0.5/bw/001.png","","","interesting"
"","","","","","animation","287","1952074","0.0-287.0","1920x1080","","5646.5","78.84","img/238/4.5/1/bw/001.png","","","interesting"
"","","","","","animation","288","1960501","0.0-288.0","1920x1080","","8423.5","39.55","img/314/3.5/0.5/bw/001.png","","","interesting"
"","","","","","animation","289","1980117","0.0-289.0","1920x1080","","19614.5","46.83","img/314/4.5/0.5/bw/001.png","","","interesting"
"","","","","","animation","290","1983307","0.0-290.0","1920x1080","","3188.7000000476837","31.88","img/238/3.5/1/bw/001.png","","","interesting"
"","","","","","animation","291","1986524","0.0-291.0","1920x1080","","3215.600000023842","79.50","img/238/5.5/1.5/bw/001.png","","","interesting"
"","","","","","animation","292","1995807","0.0-292.0","1920x1080","","9281.899999976158","51.59","img/314/4/2/bw/001.png","","","interesting"
"","","","","","animation","293","1998458","0.0-293.0","1920x1080","","2649.2999999523163","68.12","img/117/4/0.66667/bw/001.png","","","interesting"
"","","","","","animation","294","2001773","0.0-294.0","1920x1080","","3313.5","82.14","img/238/4.5/2/bw/001.png","","","interesting"
"","","","","","animation","295","2006884","0.0-295.0","1920x1080","","5110.200000047684","32.94","img/117/3.5/0.66667/bw/001.png","","","interesting"
"","","","","","animation","296","2010607","0.0-296.0","1920x1080","","3721.399999976158","40.87","img/117/4/1/bw/001.png","","","interesting"
"","","","","","animation","297","2014274","0.0-297.0","1920x1080","","3665.1999999284744","71.69","img/238/4.5/0.66667/bw/001.png","","","interesting"
"","","","","","animation","298","2018294","0.0-298.0","1920x1080","","4018.2000000476837","90.74","img/117/5.5/0.5/bw/001.png","","","interesting"
"","","","","","animation","299","2026930","0.0-299.0","1920x1080","","8635.5","6","img/117/2.5/1.5/bw/001.png","","","interesting"
"","","","","","animation","300","2030994","0.0-300.0","1920x1080","","4062.3000000715256","34.66","img/238/4/1/bw/001.png","","","interesting"
"","","","","","animation","301","2034877","0.0-301.0","1920x1080","","3881.5","77.25","img/238/5.5/0.5/bw/001.png","","","interesting"
"","","","","","animation","302","2038041","0.0-302.0","1920x1080","","3161.9000000953674","43.78","img/238/3.5/0.66667/bw/001.png","","","interesting"
"","","","","","animation","303","2041064","0.0-303.0","1920x1080","","3022.2000000476837","60.98","img/238/4/2/bw/001.png","","","interesting"
"","","","","","animation","304","2044107","0.0-304.0","1920x1080","","3042","1.98","img/238/2.5/0.5/bw/001.png","","","interesting"
"","","","","","animation","305","2051274","0.0-305.0","1920x1080","","7164.799999952316","44","img/314/4.5/1/bw/001.png","","","interesting"
"","","","","","animation","306","2054898","0.0-306.0","1920x1080","","3622.100000023842","54.50","img/238/4/1.5/bw/001.png","","","interesting"
"","","","","","animation","307","2058807","0.0-307.0","1920x1080","","3907.9000000953674","74.87","img/314/4.5/0.66667/bw/001.png","","","interesting"
"","","","","","animation","308","2078490","0.0-308.0","1920x1080","","19682.5","35.32","img/314/3.5/1/bw/001.png","","","interesting"
"","","","","","animation","309","2084290","0.0-309.0","1920x1080","","5798.300000071526","70.77","img/238/5.5/0.66667/bw/001.png","","","interesting"
"","","","","","animation","310","2089767","0.0-310.0","1920x1080","","5475.5","58.33","img/314/4/1.5/bw/001.png","","","interesting"
"","","","","","animation","311","2095642","0.0-311.0","1920x1080","","5873.5","76.06","img/314/5.5/0.5/bw/001.png","","","interesting"
"","","","","","animation","312","2099273","0.0-312.0","1920x1080","","3630.2999999523163","45.11","img/314/4/0.5/bw/001.png","","","interesting"
"","","","","","html-button-response","313","2121994","0.0-313.0","1920x1080","","22719.299999952316","","<div class=""intro"">You are about to view a new series of animations.<br><br></div><div class=""intro"">You will evaluate them based on a different descriptor.<br><br></div><div class=""intro"">Move the slider to indicate how <strong style=""text-transform:capitalize"">NATURAL</strong> you find each animation.<br><br></div><div class=""intro"">0 = Least Natural<br></div><div class=""intro"">1 = Most Natural<br><br></div><div class=""intro"">Remember to use the <strong><em>entire range</em></strong> of the slider to make your ratings.<br></div><div class=""intro"">Please <strong><em>take your time</em></strong> and carefully consider each rating you make.<br><br></div>","0","",""
"","","","","","call-function","314","2121998","0.0-314.0","1920x1080","","","","","","",""
"","","","","","animation","315","2125357","0.0-315.0","1920x1080","","3358.2000000476837","42.72","img/314/3.5/2/bw/001.png","","","natural"
"","","","","","animation","316","2129090","0.0-316.0","1920x1080","","3732","41.14","img/314/3.5/1/bw/001.png","","","natural"
"","","","","","animation","317","2132290","0.0-317.0","1920x1080","","3198.100000023842","98","img/117/5.5/1.5/bw/001.png","","","natural"
"","","","","","animation","318","2136108","0.0-318.0","1920x1080","","3816.3000000715256","64","img/117/4.5/0.5/bw/001.png","","","natural"
"","","","","","animation","319","2140461","0.0-319.0","1920x1080","","4350.799999952316","88.62","img/117/5.5/2/bw/001.png","","","natural"
"","","","","","animation","320","2144551","0.0-320.0","1920x1080","","4086.7000000476837","21.16","img/117/2.5/0.66667/bw/001.png","","","natural"
"","","","","","animation","321","2148724","0.0-321.0","1920x1080","","4171","70.77","img/238/4.5/0.66667/bw/001.png","","","natural"
"","","","","","animation","322","2154357","0.0-322.0","1920x1080","","5632.399999976158","76.72","img/117/4.5/1/bw/001.png","","","natural"
"","","","","","animation","323","2158407","0.0-323.0","1920x1080","","4048.2000000476837","32.54","img/238/3.5/1/bw/001.png","","","natural"
"","","","","","animation","324","2161862","0.0-324.0","1920x1080","","3453.399999976158","98","img/238/5.5/2/bw/001.png","","","natural"
"","","","","","animation","325","2177323","0.0-325.0","1920x1080","","15459.5","70.24","img/314/4.5/1.5/bw/001.png","","","natural"
"","","","","","animation","326","2179562","0.0-326.0","1920x1080","","2237.399999976158","40.48","img/238/3.5/0.5/bw/001.png","","","natural"
"","","","","","animation","327","2182178","0.0-327.0","1920x1080","","2614.600000023842","99","img/314/5.5/0.66667/bw/001.png","","","natural"
"","","","","","animation","328","2186060","0.0-328.0","1920x1080","","3880.3000000715256","50.79","img/117/4/0.66667/bw/001.png","","","natural"
"","","","","","animation","329","2188824","0.0-329.0","1920x1080","","2762.100000023842","72","img/117/5.5/1/bw/001.png","","","natural"
"","","","","","animation","330","2193950","0.0-330.0","1920x1080","","5125","66.67","img/314/4.5/1/bw/001.png","","","natural"
"","","","","","animation","331","2200061","0.0-331.0","1920x1080","","6109.5","57.01","img/238/4.5/0.5/bw/001.png","","","natural"
"","","","","","animation","332","2204150","0.0-332.0","1920x1080","","4087.399999976158","75.66","img/238/4/1.5/bw/001.png","","","natural"
"","","","","","animation","333","2211057","0.0-333.0","1920x1080","","6906","58.86","img/314/4/2/bw/001.png","","","natural"
"","","","","","animation","334","2214750","0.0-334.0","1920x1080","","3690.899999976158","37.04","img/238/4/0.5/bw/001.png","","","natural"
"","","","","","animation","335","2218730","0.0-335.0","1920x1080","","3978.7000000476837","48.02","img/314/4/1.5/bw/001.png","","","natural"
"","","","","","animation","336","2231091","0.0-336.0","1920x1080","","12358.299999952316","53.70","img/238/4.5/2/bw/001.png","","","natural"
"","","","","","animation","337","2234358","0.0-337.0","1920x1080","","3266.100000023842","15.74","img/238/2.5/0.66667/bw/001.png","","","natural"
"","","","","","animation","338","2241514","0.0-338.0","1920x1080","","7153.799999952316","35.85","img/238/4/0.66667/bw/001.png","","","natural"
"","","","","","animation","339","2244490","0.0-339.0","1920x1080","","2974.7000000476837","36.90","img/238/4/1/bw/001.png","","","natural"
"","","","","","animation","340","2253242","0.0-340.0","1920x1080","","8749.899999976158","74.47","img/117/5.5/0.5/bw/001.png","","","natural"
"","","","","","animation","341","2258380","0.0-341.0","1920x1080","","5135.100000023842","57.01","img/117/4/1.5/bw/001.png","","","natural"
"","","","","","animation","342","2262678","0.0-342.0","1920x1080","","4295.700000047684","5.03","img/314/2.5/0.5/bw/001.png","","","natural"
"","","","","","animation","343","2265226","0.0-343.0","1920x1080","","2546.399999976158","11.64","img/238/2.5/1.5/bw/001.png","","","natural"
"","","","","","animation","344","2267898","0.0-344.0","1920x1080","","2665.6999999284744","23.15","img/117/3.5/0.66667/bw/001.png","","","natural"
"","","","","","animation","345","2271123","0.0-345.0","1920x1080","","3223.8000000715256","9.92","img/117/2.5/2/bw/001.png","","","natural"
"","","","","","animation","346","2276173","0.0-346.0","1920x1080","","5048.700000047684","45.11","img/117/4/1/bw/001.png","","","natural"
"","","","","","animation","347","2279574","0.0-347.0","1920x1080","","3399.2999999523163","98","img/314/5.5/1.5/bw/001.png","","","natural"
"","","","","","animation","348","2283342","0.0-348.0","1920x1080","","3766.4000000953674","34.39","img/238/3.5/2/bw/001.png","","","natural"
"","","","","","animation","349","2287573","0.0-349.0","1920x1080","","4225.699999928474","60.71","img/238/4.5/1.5/bw/001.png","","","natural"
"","","","","","animation","350","2290173","0.0-350.0","1920x1080","","2598.2999999523163","48.94","img/117/3.5/1/bw/001.png","","","natural"
"","","","","","animation","351","2295258","0.0-351.0","1920x1080","","5083.899999976158","61.24","img/238/4/2/bw/001.png","","","natural"
"","","","","","animation","352","2299227","0.0-352.0","1920x1080","","3966.2000000476837","76.85","img/238/5.5/0.5/bw/001.png","","","natural"
"","","","","","animation","353","2302734","0.0-353.0","1920x1080","","3505.5","31","img/238/3.5/0.66667/bw/001.png","","","natural"
"","","","","","animation","354","2313383","0.0-354.0","1920x1080","","10648.399999976158","43.39","img/117/4.5/1.5/bw/001.png","","","natural"
"","","","","","animation","355","2317446","0.0-355.0","1920x1080","","4061.1999999284744","88.36","img/238/5.5/1/bw/001.png","","","natural"
"","","","","","animation","356","2337323","0.0-356.0","1920x1080","","19875.600000023842","42.20","img/314/3.5/1.5/bw/001.png","","","natural"
"","","","","","animation","357","2339594","0.0-357.0","1920x1080","","2269.2000000476837","70.50","img/314/4.5/0.66667/bw/001.png","","","natural"
"","","","","","animation","358","2347490","0.0-358.0","1920x1080","","7894.5","50","img/117/3.5/1.5/bw/001.png","","","natural"
"","","","","","animation","359","2354327","0.0-359.0","1920x1080","","6834.600000023842","95","img/314/5.5/2/bw/001.png","","","natural"
"","","","","","animation","360","2362159","0.0-360.0","1920x1080","","7829.399999976158","82.80","img/314/4.5/2/bw/001.png","","","natural"
"","","","","","animation","361","2369373","0.0-361.0","1920x1080","","7210.799999952316","75","img/314/4.5/0.5/bw/001.png","","","natural"
"","","","","","animation","362","2372524","0.0-362.0","1920x1080","","3149.3000000715256","15.61","img/314/2.5/1.5/bw/001.png","","","natural"
"","","","","","animation","363","2376890","0.0-363.0","1920x1080","","4364.899999976158","53.97","img/117/4.5/2/bw/001.png","","","natural"
"","","","","","animation","364","2380690","0.0-364.0","1920x1080","","3798.600000023842","8","img/117/2.5/1.5/bw/001.png","","","natural"
"","","","","","animation","365","2384722","0.0-365.0","1920x1080","","4030.6999999284744","3.97","img/238/2.5/2/bw/001.png","","","natural"
"","","","","","animation","366","2393690","0.0-366.0","1920x1080","","8966.199999928474","1.59","img/238/2.5/0.5/bw/001.png","","","natural"
"","","","","","animation","367","2396906","0.0-367.0","1920x1080","","3213.6999999284744","43.39","img/314/4/1/bw/001.png","","","natural"
"","","","","","animation","368","2399693","0.0-368.0","1920x1080","","2786.5999999046326","8.33","img/314/2.5/1/bw/001.png","","","natural"
"","","","","","animation","369","2403794","0.0-369.0","1920x1080","","4099.5","37.30","img/117/4/0.5/bw/001.png","","","natural"
"","","","","","animation","370","2410415","0.0-370.0","1920x1080","","6619.100000023842","23.41","img/117/3.5/0.5/bw/001.png","","","natural"
"","","","","","animation","371","2413622","0.0-371.0","1920x1080","","3206.3000000715256","41.53","img/314/4/0.66667/bw/001.png","","","natural"
"","","","","","animation","372","2415890","0.0-372.0","1920x1080","","2266","53.17","img/238/4.5/1/bw/001.png","","","natural"
"","","","","","animation","373","2420274","0.0-373.0","1920x1080","","4382.700000047684","29.63","img/314/4/0.5/bw/001.png","","","natural"
"","","","","","animation","374","2426440","0.0-374.0","1920x1080","","6164.899999976158","86","img/314/5.5/1/bw/001.png","","","natural"
"","","","","","animation","375","2430413","0.0-375.0","1920x1080","","3972","22.49","img/314/3.5/0.66667/bw/001.png","","","natural"
"","","","","","animation","376","2433573","0.0-376.0","1920x1080","","3158.1999999284744","16.80","img/314/3.5/0.5/bw/001.png","","","natural"
"","","","","","animation","377","2435789","0.0-377.0","1920x1080","","2214.6999999284744","8.99","img/117/2.5/1/bw/001.png","","","natural"
"","","","","","animation","378","2449810","0.0-378.0","1920x1080","","14019.199999928474","86.24","img/238/5.5/1.5/bw/001.png","","","natural"
"","","","","","animation","379","2452390","0.0-379.0","1920x1080","","2578","72.62","img/117/5.5/0.66667/bw/001.png","","","natural"
"","","","","","animation","380","2456556","0.0-380.0","1920x1080","","4164.899999976158","16.53","img/314/2.5/0.66667/bw/001.png","","","natural"
"","","","","","animation","381","2459651","0.0-381.0","1920x1080","","3093.600000023842","9.79","img/117/2.5/0.5/bw/001.png","","","natural"
"","","","","","animation","382","2463194","0.0-382.0","1920x1080","","3540.7000000476837","12.57","img/314/2.5/2/bw/001.png","","","natural"
"","","","","","animation","383","2475906","0.0-383.0","1920x1080","","12711.100000023842","31.22","img/238/3.5/1.5/bw/001.png","","","natural"
"","","","","","animation","384","2479143","0.0-384.0","1920x1080","","3235","38.89","img/117/3.5/2/bw/001.png","","","natural"
"","","","","","animation","385","2483606","0.0-385.0","1920x1080","","4460","58.20","img/238/5.5/0.66667/bw/001.png","","","natural"
"","","","","","animation","386","2489090","0.0-386.0","1920x1080","","5482.300000071526","48","img/117/4.5/0.66667/bw/001.png","","","natural"
"","","","","","animation","387","2495426","0.0-387.0","1920x1080","","6334.299999952316","66.67","img/314/5.5/0.5/bw/001.png","","","natural"
"","","","","","animation","388","2498356","0.0-388.0","1920x1080","","2928.5","51.85","img/117/4/2/bw/001.png","","","natural"
"","","","","","animation","389","2500906","0.0-389.0","1920x1080","","2548.399999976158","7.80","img/238/2.5/1/bw/001.png","","","natural"
"","","","","","html-button-response","390","2531834","0.0-390.0","1920x1080","","30925.400000095367","","<strong>Study Debriefing</strong><br><p class=""debrief""><strong>Background:</strong> The patterns you rated are called <em>fractals</em>. The term fractal describes a class of irregular curves or shapes for which any suitably chosen part is similar in shape to a given larger or smaller part when magnified or reduced to the same size. Fractal properties are found throughout the natural and manmade world. The series of animations you saw today displayed animated fractal patterns of a varying complexity.</p><p class=""debrief""><strong>Purpose of this study:</strong> We hope to better understand how the perception of static fractals differs from the perception of animated fractals, and how the speed of the animated patterns influences people&apos;s perception of them. Fractals allow us to study the perception of aesthetic properties (e.g. the perceived level of beauty in an image) without using recognizable content, which makes them an excellent tool for studying abstract aesthetic judgement.</p><p class=""debrief""><strong>Your part:</strong> Your participation has helped us to further understand how humans perceive these patterns across different levels of speed and complexity. This research with allow us to better understand how the visual system and brain process our ever-changing visual environments.<p class=""debrief""><strong>Feedback and Further information:</strong> If you have additional questions about this study, please feel free to ask the researcher, Nathan Gonzales-Hess at nhess @ uoregon.edu. If you have any questions concerning your rights as a research participant, please contact Research Compliance Services, 5237 University of Oregon, Eugene, OR 97403, 541-346-2510, or email researchCompliance @ uoregon.edu. You can also email the Human Subjects Coordinator for psychology and linguistics research at hscoord @ uoregon.edu. ","0","",""
"","","","","","html-button-response","391","2537213","0.0-391.0","1920x1080","","5373.799999952316","","Thank you for participating in this study. <br>Please click below to finish the experiment and submit your responses.<br><br>","0","",""
"true","","","","","fullscreen","392","2538223","0.0-392.0","1920x1080","13:40 27/5/2022","","","","","",""
