"success","timeout","failed_images","failed_audio","failed_video","trial_type","trial_index","time_elapsed","internal_node_id","resolution","timeStamp","rt","response","stimulus","button_pressed","value","descriptor"
"true","false","[]","[]","[]","preload","0","4890","0.0-0.0","1920x1080","","","","","","",""
"true","false","[]","[]","[]","preload","1","11064","0.0-1.0","1920x1080","","","","","","",""
"true","false","[]","[]","[]","preload","2","17112","0.0-2.0","1920x1080","","","","","","",""
"true","","","","","fullscreen","3","533232","0.0-3.0","1920x1080","12:24 20/10/2022","","","","","",""
"","","","","","survey-html-form","4","540880","0.0-4.0","1920x1080","","7643.799999999814","{""age"":""19"",""gender"":""Female""}","","","",""
"","","","","","html-button-response","5","604848","0.0-5.0","1920x1080","","63966.89999999991","","<div class=""complex"">You are going to see a series of animations.<br><br></div><div class=""complex"">Move the slider to indicate how <strong style=""text-transform:capitalize"">COMPLEX</strong> you find each animation.<br><br></div><div class=""complex"">0 = Least Complex<br></div><div class=""complex"">1 = Most Complex<br><br></div><div class=""complex"">Remember to use the <strong><em>entire range</em></strong> of the slider to make your ratings.<br></div><div class=""complex"">Please <strong><em>take your time</em></strong> and carefully consider each rating you make.<br><br></div><div class=""complex"">The study has five sections and will take about 45 minutes to complete.<br><br></div>","0","",""
"","","","","","call-function","6","604849","0.0-6.0","1920x1080","","","","","","",""
"","","","","","animation","7","615480","0.0-7.0","1920x1080","","10630.399999999907","23.94","img/117/4.5/1/bw/001.png","","","complex"
"","","","","","animation","8","641632","0.0-8.0","1920x1080","","26151.30000000028","34.39","img/238/4/1.5/bw/001.png","","","complex"
"","","","","","animation","9","645280","0.0-9.0","1920x1080","","3646.899999999907","87.70","img/314/2.5/1.5/bw/001.png","","","complex"
"","","","","","animation","10","649928","0.0-10.0","1920x1080","","4646.9000000003725","64.15","img/314/3.5/1/bw/001.png","","","complex"
"","","","","","animation","11","653304","0.0-11.0","1920x1080","","3376.100000000093","67.06","img/238/3.5/1.5/bw/001.png","","","complex"
"","","","","","animation","12","660192","0.0-12.0","1920x1080","","6886.899999999907","94","img/238/3.5/0.5/bw/001.png","","","complex"
"","","","","","animation","13","664240","0.0-13.0","1920x1080","","4047.2999999998137","100","img/314/2.5/0.5/bw/001.png","","","complex"
"","","","","","animation","14","668416","0.0-14.0","1920x1080","","4175.600000000093","6.88","img/117/4.5/1.5/bw/001.png","","","complex"
"","","","","","animation","15","672744","0.0-15.0","1920x1080","","4326.899999999907","53.04","img/314/5.5/0.5/bw/001.png","","","complex"
"","","","","","animation","16","678807","0.0-16.0","1920x1080","","6063","63","img/238/3.5/1/bw/001.png","","","complex"
"","","","","","animation","17","687752","0.0-17.0","1920x1080","","8943.899999999907","39.02","img/117/4.5/0.5/bw/001.png","","","complex"
"","","","","","animation","18","691352","0.0-18.0","1920x1080","","3599.0999999996275","59.79","img/117/4/0.5/bw/001.png","","","complex"
"","","","","","animation","19","696408","0.0-19.0","1920x1080","","5055.0999999996275","29.10","img/238/4/1/bw/001.png","","","complex"
"","","","","","animation","20","700464","0.0-20.0","1920x1080","","4055","43.25","img/314/4.5/0.66667/bw/001.png","","","complex"
"","","","","","animation","21","705712","0.0-21.0","1920x1080","","5247","86","img/238/2.5/1/bw/001.png","","","complex"
"","","","","","animation","22","709656","0.0-22.0","1920x1080","","3943.3000000002794","67.20","img/314/3.5/0.66667/bw/001.png","","","complex"
"","","","","","animation","23","713848","0.0-23.0","1920x1080","","4191.5","38.76","img/117/4.5/0.66667/bw/001.png","","","complex"
"","","","","","animation","24","720512","0.0-24.0","1920x1080","","6662.5","9.92","img/238/5.5/0.66667/bw/001.png","","","complex"
"","","","","","animation","25","725374","0.0-25.0","1920x1080","","4863.5","16.67","img/238/4/0.66667/bw/001.png","","","complex"
"","","","","","animation","26","729878","0.0-26.0","1920x1080","","4503.100000000093","25.53","img/314/4.5/1/bw/001.png","","","complex"
"","","","","","animation","27","732942","0.0-27.0","1920x1080","","3063","33.20","img/117/4/0.66667/bw/001.png","","","complex"
"","","","","","animation","28","737653","0.0-28.0","1920x1080","","4710.799999999814","89.15","img/238/2.5/2/bw/001.png","","","complex"
"","","","","","animation","29","741190","0.0-29.0","1920x1080","","3534.899999999907","85.05","img/117/3.5/2/bw/001.png","","","complex"
"","","","","","animation","30","745269","0.0-30.0","1920x1080","","4079","85.98","img/314/2.5/2/bw/001.png","","","complex"
"","","","","","animation","31","750126","0.0-31.0","1920x1080","","4855.5","2.78","img/238/5.5/2/bw/001.png","","","complex"
"","","","","","animation","32","753838","0.0-32.0","1920x1080","","3711","19.44","img/238/4.5/0.66667/bw/001.png","","","complex"
"","","","","","animation","33","756958","0.0-33.0","1920x1080","","3119.399999999907","79.50","img/117/3.5/0.5/bw/001.png","","","complex"
"","","","","","animation","34","762110","0.0-34.0","1920x1080","","5151.299999999814","37.17","img/314/4.5/0.5/bw/001.png","","","complex"
"","","","","","animation","35","766237","0.0-35.0","1920x1080","","4126.899999999907","85.32","img/238/2.5/0.66667/bw/001.png","","","complex"
"","","","","","animation","36","770390","0.0-36.0","1920x1080","","4151.299999999814","82.01","img/238/3.5/2/bw/001.png","","","complex"
"","","","","","animation","37","774542","0.0-37.0","1920x1080","","4151.299999999814","4","img/314/5.5/1.5/bw/001.png","","","complex"
"","","","","","animation","38","780286","0.0-38.0","1920x1080","","5742.899999999907","76","img/314/3.5/2/bw/001.png","","","complex"
"","","","","","animation","39","784355","0.0-39.0","1920x1080","","4071.399999999907","8.60","img/117/5.5/1.5/bw/001.png","","","complex"
"","","","","","animation","40","787907","0.0-40.0","1920x1080","","3551.0999999996275","87.17","img/117/2.5/0.66667/bw/001.png","","","complex"
"","","","","","animation","41","791674","0.0-41.0","1920x1080","","3767.100000000093","9.52","img/238/5.5/0.5/bw/001.png","","","complex"
"","","","","","animation","42","795618","0.0-42.0","1920x1080","","3942.3000000002794","95","img/238/2.5/1.5/bw/001.png","","","complex"
"","","","","","animation","43","798707","0.0-43.0","1920x1080","","3087.0999999996275","23.94","img/238/4/2/bw/001.png","","","complex"
"","","","","","animation","44","801666","0.0-44.0","1920x1080","","2958.7999999998137","31.48","img/117/4/1/bw/001.png","","","complex"
"","","","","","animation","45","804466","0.0-45.0","1920x1080","","2799.2999999998137","72.75","img/314/3.5/0.5/bw/001.png","","","complex"
"","","","","","animation","46","807338","0.0-46.0","1920x1080","","2871.2999999998137","30.03","img/238/4.5/2/bw/001.png","","","complex"
"","","","","","animation","47","812332","0.0-47.0","1920x1080","","4993.199999999721","17.72","img/314/5.5/2/bw/001.png","","","complex"
"","","","","","animation","48","816859","0.0-48.0","1920x1080","","4525.200000000186","13.36","img/238/5.5/1.5/bw/001.png","","","complex"
"","","","","","animation","49","820322","0.0-49.0","1920x1080","","3462.5","90.74","img/314/2.5/0.66667/bw/001.png","","","complex"
"","","","","","animation","50","823995","0.0-50.0","1920x1080","","3671.2999999998137","22.49","img/314/5.5/0.66667/bw/001.png","","","complex"
"","","","","","animation","51","826779","0.0-51.0","1920x1080","","2783.5","68.78","img/117/3.5/0.66667/bw/001.png","","","complex"
"","","","","","animation","52","829706","0.0-52.0","1920x1080","","2926.600000000093","32.67","img/314/5.5/1/bw/001.png","","","complex"
"","","","","","animation","53","832770","0.0-53.0","1920x1080","","3063.100000000093","72.49","img/238/3.5/0.66667/bw/001.png","","","complex"
"","","","","","animation","54","836386","0.0-54.0","1920x1080","","3614.399999999907","67.20","img/117/3.5/1/bw/001.png","","","complex"
"","","","","","animation","55","839082","0.0-55.0","1920x1080","","2694.7999999998137","81.75","img/238/2.5/0.5/bw/001.png","","","complex"
"","","","","","animation","56","843811","0.0-56.0","1920x1080","","4727.799999999814","81.08","img/314/4.5/2/bw/001.png","","","complex"
"","","","","","animation","57","846398","0.0-57.0","1920x1080","","2583.2000000001863","91.67","img/117/2.5/1.5/bw/001.png","","","complex"
"","","","","","animation","58","849494","0.0-58.0","1920x1080","","3095.100000000093","5","img/238/5.5/1/bw/001.png","","","complex"
"","","","","","animation","59","851870","0.0-59.0","1920x1080","","2375.6999999997206","88.62","img/314/2.5/1/bw/001.png","","","complex"
"","","","","","animation","60","855062","0.0-60.0","1920x1080","","3191","63.23","img/238/4.5/0.5/bw/001.png","","","complex"
"","","","","","animation","61","858366","0.0-61.0","1920x1080","","3303","61.38","img/314/3.5/1.5/bw/001.png","","","complex"
"","","","","","animation","62","860805","0.0-62.0","1920x1080","","2438.5999999996275","47.88","img/117/5.5/1/bw/001.png","","","complex"
"","","","","","animation","63","862878","0.0-63.0","1920x1080","","2071.399999999907","48.54","img/117/4.5/2/bw/001.png","","","complex"
"","","","","","animation","64","865536","0.0-64.0","1920x1080","","2656.899999999907","51.59","img/238/4.5/1.5/bw/001.png","","","complex"
"","","","","","animation","65","869030","0.0-65.0","1920x1080","","3493.399999999907","67.59","img/117/3.5/1.5/bw/001.png","","","complex"
"","","","","","animation","66","871637","0.0-66.0","1920x1080","","2606.600000000093","83.47","img/117/2.5/1/bw/001.png","","","complex"
"","","","","","animation","67","873926","0.0-67.0","1920x1080","","2287.399999999907","25.79","img/117/5.5/0.5/bw/001.png","","","complex"
"","","","","","animation","68","876654","0.0-68.0","1920x1080","","2727.100000000093","98","img/117/2.5/0.5/bw/001.png","","","complex"
"","","","","","animation","69","882710","0.0-69.0","1920x1080","","6054.600000000093","59","img/314/4/2/bw/001.png","","","complex"
"","","","","","animation","70","885941","0.0-70.0","1920x1080","","3230.7000000001863","60.05","img/238/4.5/1/bw/001.png","","","complex"
"","","","","","animation","71","888471","0.0-71.0","1920x1080","","2528.399999999907","65","img/314/4/0.5/bw/001.png","","","complex"
"","","","","","animation","72","891503","0.0-72.0","1920x1080","","3031.8000000002794","45.90","img/117/4/1.5/bw/001.png","","","complex"
"","","","","","animation","73","894319","0.0-73.0","1920x1080","","2814.7999999998137","45.50","img/238/4/0.5/bw/001.png","","","complex"
"","","","","","animation","74","897720","0.0-74.0","1920x1080","","3400","91.14","img/117/2.5/2/bw/001.png","","","complex"
"","","","","","animation","75","902782","0.0-75.0","1920x1080","","5060.600000000093","44.31","img/314/4/1.5/bw/001.png","","","complex"
"","","","","","animation","76","906181","0.0-76.0","1920x1080","","3398.5","40","img/314/4.5/1.5/bw/001.png","","","complex"
"","","","","","animation","77","909103","0.0-77.0","1920x1080","","2921.100000000093","42.46","img/314/4/0.66667/bw/001.png","","","complex"
"","","","","","animation","78","912885","0.0-78.0","1920x1080","","3781.600000000093","28.84","img/117/5.5/2/bw/001.png","","","complex"
"","","","","","animation","79","915245","0.0-79.0","1920x1080","","2358.399999999907","74.60","img/314/4/1/bw/001.png","","","complex"
"","","","","","animation","80","919437","0.0-80.0","1920x1080","","4190.5","50.53","img/117/4/2/bw/001.png","","","complex"
"","","","","","animation","81","922621","0.0-81.0","1920x1080","","3183.3000000002794","38.49","img/117/5.5/0.66667/bw/001.png","","","complex"
"","","","","","html-button-response","82","947606","0.0-82.0","1920x1080","","24983.30000000028","","<div class=""intro"">You are about to view a new series of animations.<br><br></div><div class=""intro"">You will evaluate them based on a different descriptor.<br><br></div><div class=""intro"">Move the slider to indicate how <strong style=""text-transform:capitalize"">RELAXING</strong> you find each animation.<br><br></div><div class=""intro"">0 = Least Relaxing<br></div><div class=""intro"">1 = Most Relaxing<br><br></div><div class=""intro"">Remember to use the <strong><em>entire range</em></strong> of the slider to make your ratings.<br></div><div class=""intro"">Please <strong><em>take your time</em></strong> and carefully consider each rating you make.<br><br></div>","0","",""
"","","","","","call-function","83","947608","0.0-83.0","1920x1080","","","","","","",""
"","","","","","animation","84","952293","0.0-84.0","1920x1080","","4683.800000000279","74.21","img/238/5.5/0.66667/bw/001.png","","","relaxing"
"","","","","","animation","85","956285","0.0-85.0","1920x1080","","3990.8000000002794","-2.12","img/117/2.5/0.66667/bw/001.png","","","relaxing"
"","","","","","animation","86","961709","0.0-86.0","1920x1080","","5423","88.76","img/238/5.5/1/bw/001.png","","","relaxing"
"","","","","","animation","87","964936","0.0-87.0","1920x1080","","3230.5999999996275","0.79","img/238/2.5/1/bw/001.png","","","relaxing"
"","","","","","animation","88","982216","0.0-88.0","1920x1080","","17278.5","57.41","img/238/4.5/2/bw/001.png","","","relaxing"
"","","","","","animation","89","986680","0.0-89.0","1920x1080","","4463.5","31.75","img/314/4/0.5/bw/001.png","","","relaxing"
"","","","","","animation","90","994120","0.0-90.0","1920x1080","","7439.100000000559","70.77","img/238/3.5/1.5/bw/001.png","","","relaxing"
"","","","","","animation","91","997584","0.0-91.0","1920x1080","","3462.7999999998137","58.73","img/117/3.5/1.5/bw/001.png","","","relaxing"
"","","","","","animation","92","1001224","0.0-92.0","1920x1080","","3639.2000000001863","61","img/314/4/1.5/bw/001.png","","","relaxing"
"","","","","","animation","93","1006800","0.0-93.0","1920x1080","","5574.700000000186","74.60","img/238/4/1.5/bw/001.png","","","relaxing"
"","","","","","animation","94","1011208","0.0-94.0","1920x1080","","4407.600000000559","78.57","img/314/4.5/1/bw/001.png","","","relaxing"
"","","","","","animation","95","1016352","0.0-95.0","1920x1080","","5142.300000000745","76.46","img/314/3.5/2/bw/001.png","","","relaxing"
"","","","","","animation","96","1022000","0.0-96.0","1920x1080","","5646.9000000003725","59.52","img/117/5.5/0.5/bw/001.png","","","relaxing"
"","","","","","animation","97","1026900","0.0-97.0","1920x1080","","4896.4000000003725","14.81","img/117/3.5/1/bw/001.png","","","relaxing"
"","","","","","animation","98","1030283","0.0-98.0","1920x1080","","3382.2000000001863","0.53","img/314/2.5/1/bw/001.png","","","relaxing"
"","","","","","animation","99","1037100","0.0-99.0","1920x1080","","6815.299999999814","30","img/117/3.5/0.66667/bw/001.png","","","relaxing"
"","","","","","animation","100","1040218","0.0-100.0","1920x1080","","3117.2000000001863","2.25","img/314/2.5/1.5/bw/001.png","","","relaxing"
"","","","","","animation","101","1045334","0.0-101.0","1920x1080","","5114.200000000186","58.07","img/314/4.5/1.5/bw/001.png","","","relaxing"
"","","","","","animation","102","1048300","0.0-102.0","1920x1080","","2965.300000000745","0.40","img/238/2.5/0.5/bw/001.png","","","relaxing"
"","","","","","animation","103","1053834","0.0-103.0","1920x1080","","5533.5","57","img/117/4.5/1/bw/001.png","","","relaxing"
"","","","","","animation","104","1057050","0.0-104.0","1920x1080","","3214.7000000001863","31.08","img/117/3.5/0.5/bw/001.png","","","relaxing"
"","","","","","animation","105","1062466","0.0-105.0","1920x1080","","5415","78.84","img/117/3.5/2/bw/001.png","","","relaxing"
"","","","","","animation","106","1065250","0.0-106.0","1920x1080","","2783.2000000001863","80.82","img/117/4/1/bw/001.png","","","relaxing"
"","","","","","animation","107","1068627","0.0-107.0","1920x1080","","3375.600000000559","7.41","img/314/2.5/0.5/bw/001.png","","","relaxing"
"","","","","","animation","108","1071967","0.0-108.0","1920x1080","","3338.9000000003725","15.34","img/238/2.5/0.66667/bw/001.png","","","relaxing"
"","","","","","animation","109","1077323","0.0-109.0","1920x1080","","5354.700000000186","99","img/238/4/2/bw/001.png","","","relaxing"
"","","","","","animation","110","1079782","0.0-110.0","1920x1080","","2458.2000000001863","0","img/314/2.5/0.66667/bw/001.png","","","relaxing"
"","","","","","animation","111","1084379","0.0-111.0","1920x1080","","4587.4000000003725","89.02","img/117/5.5/0.66667/bw/001.png","","","relaxing"
"","","","","","animation","112","1088003","0.0-112.0","1920x1080","","3623.4000000003725","41","img/117/4.5/0.5/bw/001.png","","","relaxing"
"","","","","","animation","113","1091835","0.0-113.0","1920x1080","","3830.7000000001863","38","img/117/4/0.66667/bw/001.png","","","relaxing"
"","","","","","animation","114","1096915","0.0-114.0","1920x1080","","5078.9000000003725","67.33","img/117/4.5/1.5/bw/001.png","","","relaxing"
"","","","","","animation","115","1099308","0.0-115.0","1920x1080","","2391.399999999441","19.31","img/238/4/0.5/bw/001.png","","","relaxing"
"","","","","","animation","116","1102563","0.0-116.0","1920x1080","","3254.100000000559","8.20","img/117/2.5/2/bw/001.png","","","relaxing"
"","","","","","animation","117","1106947","0.0-117.0","1920x1080","","4382.700000000186","85.58","img/238/4.5/1/bw/001.png","","","relaxing"
"","","","","","animation","118","1111125","0.0-118.0","1920x1080","","4176.5999999996275","36","img/314/4/0.66667/bw/001.png","","","relaxing"
"","","","","","animation","119","1114235","0.0-119.0","1920x1080","","3109.2999999998137","9","img/238/2.5/2/bw/001.png","","","relaxing"
"","","","","","animation","120","1117435","0.0-120.0","1920x1080","","3198.899999999441","89.81","img/117/4/1.5/bw/001.png","","","relaxing"
"","","","","","animation","121","1120427","0.0-121.0","1920x1080","","2990.5","79.89","img/117/5.5/1/bw/001.png","","","relaxing"
"","","","","","animation","122","1124524","0.0-122.0","1920x1080","","4096.299999999814","51.72","img/314/4.5/0.5/bw/001.png","","","relaxing"
"","","","","","animation","123","1128931","0.0-123.0","1920x1080","","4406.399999999441","74.47","img/314/5.5/0.5/bw/001.png","","","relaxing"
"","","","","","animation","124","1135660","0.0-124.0","1920x1080","","6728","43.12","img/238/4.5/0.66667/bw/001.png","","","relaxing"
"","","","","","animation","125","1139563","0.0-125.0","1920x1080","","3901.600000000559","95","img/314/4/2/bw/001.png","","","relaxing"
"","","","","","animation","126","1145234","0.0-126.0","1920x1080","","5671.100000000559","86.24","img/117/5.5/1.5/bw/001.png","","","relaxing"
"","","","","","animation","127","1148682","0.0-127.0","1920x1080","","3446.800000000745","4.76","img/314/3.5/0.5/bw/001.png","","","relaxing"
"","","","","","animation","128","1153330","0.0-128.0","1920x1080","","4646.5999999996275","76.98","img/314/4/1/bw/001.png","","","relaxing"
"","","","","","animation","129","1158089","0.0-129.0","1920x1080","","4758.600000000559","72.88","img/238/3.5/2/bw/001.png","","","relaxing"
"","","","","","animation","130","1163818","0.0-130.0","1920x1080","","5727.600000000559","66","img/314/5.5/2/bw/001.png","","","relaxing"
"","","","","","animation","131","1167098","0.0-131.0","1920x1080","","3279","63.49","img/314/4.5/2/bw/001.png","","","relaxing"
"","","","","","animation","132","1171618","0.0-132.0","1920x1080","","4518.5","26.19","img/238/5.5/0.5/bw/001.png","","","relaxing"
"","","","","","animation","133","1175324","0.0-133.0","1920x1080","","3704.2000000001863","19.71","img/238/3.5/0.66667/bw/001.png","","","relaxing"
"","","","","","animation","134","1185190","0.0-134.0","1920x1080","","9864.800000000745","28","img/238/4.5/0.5/bw/001.png","","","relaxing"
"","","","","","animation","135","1187994","0.0-135.0","1920x1080","","2801.2999999998137","4.89","img/117/2.5/1.5/bw/001.png","","","relaxing"
"","","","","","animation","136","1194898","0.0-136.0","1920x1080","","6903.100000000559","77","img/314/5.5/1.5/bw/001.png","","","relaxing"
"","","","","","animation","137","1198362","0.0-137.0","1920x1080","","3463","85.71","img/238/4/1/bw/001.png","","","relaxing"
"","","","","","animation","138","1205611","0.0-138.0","1920x1080","","7243.5","75","img/314/3.5/0.66667/bw/001.png","","","relaxing"
"","","","","","animation","139","1210214","0.0-139.0","1920x1080","","4602.399999999441","84.79","img/314/3.5/1.5/bw/001.png","","","relaxing"
"","","","","","animation","140","1215582","0.0-140.0","1920x1080","","5367","94","img/238/5.5/2/bw/001.png","","","relaxing"
"","","","","","animation","141","1218670","0.0-141.0","1920x1080","","3086.4000000003725","9.92","img/117/2.5/0.5/bw/001.png","","","relaxing"
"","","","","","animation","142","1221614","0.0-142.0","1920x1080","","2942.699999999255","71.56","img/314/5.5/0.66667/bw/001.png","","","relaxing"
"","","","","","animation","143","1224312","0.0-143.0","1920x1080","","2696.100000000559","34.52","img/238/3.5/0.5/bw/001.png","","","relaxing"
"","","","","","animation","144","1227118","0.0-144.0","1920x1080","","2805.9000000003725","2.91","img/117/2.5/1/bw/001.png","","","relaxing"
"","","","","","animation","145","1232014","0.0-145.0","1920x1080","","4894.5999999996275","99","img/117/4/2/bw/001.png","","","relaxing"
"","","","","","animation","146","1235995","0.0-146.0","1920x1080","","3979.4000000003725","68.12","img/314/3.5/1/bw/001.png","","","relaxing"
"","","","","","animation","147","1239302","0.0-147.0","1920x1080","","3306.5999999996275","33","img/117/4/0.5/bw/001.png","","","relaxing"
"","","","","","animation","148","1245454","0.0-148.0","1920x1080","","6151","45.50","img/238/4/0.66667/bw/001.png","","","relaxing"
"","","","","","animation","149","1249078","0.0-149.0","1920x1080","","3622.5999999996275","100","img/238/5.5/1.5/bw/001.png","","","relaxing"
"","","","","","animation","150","1252714","0.0-150.0","1920x1080","","3634.4000000003725","1.32","img/238/2.5/1.5/bw/001.png","","","relaxing"
"","","","","","animation","151","1258382","0.0-151.0","1920x1080","","5666.600000000559","60.32","img/117/4.5/2/bw/001.png","","","relaxing"
"","","","","","animation","152","1262918","0.0-152.0","1920x1080","","4535.0999999996275","74.60","img/238/4.5/1.5/bw/001.png","","","relaxing"
"","","","","","animation","153","1265662","0.0-153.0","1920x1080","","2741.9000000003725","38.36","img/117/4.5/0.66667/bw/001.png","","","relaxing"
"","","","","","animation","154","1268671","0.0-154.0","1920x1080","","3007.4000000003725","88.36","img/314/5.5/1/bw/001.png","","","relaxing"
"","","","","","animation","155","1271662","0.0-155.0","1920x1080","","2990.399999999441","84.52","img/117/5.5/2/bw/001.png","","","relaxing"
"","","","","","animation","156","1274214","0.0-156.0","1920x1080","","2550","74.47","img/314/4.5/0.66667/bw/001.png","","","relaxing"
"","","","","","animation","157","1277961","0.0-157.0","1920x1080","","3745.600000000559","7","img/314/2.5/2/bw/001.png","","","relaxing"
"","","","","","animation","158","1280894","0.0-158.0","1920x1080","","2932.2999999998137","19.58","img/238/3.5/1/bw/001.png","","","relaxing"
"","","","","","html-button-response","159","1356589","0.0-159.0","1920x1080","","75687.69999999925","","<div class=""intro"">You are about to view a new series of animations.<br><br></div><div class=""intro"">You will evaluate them based on a different descriptor.<br><br></div><div class=""intro"">Move the slider to indicate how <strong style=""text-transform:capitalize"">NATURAL</strong> you find each animation.<br><br></div><div class=""intro"">0 = Least Natural<br></div><div class=""intro"">1 = Most Natural<br><br></div><div class=""intro"">Remember to use the <strong><em>entire range</em></strong> of the slider to make your ratings.<br></div><div class=""intro"">Please <strong><em>take your time</em></strong> and carefully consider each rating you make.<br><br></div>","0","",""
"","","","","","call-function","160","1356593","0.0-160.0","1920x1080","","","","","","",""
"","","","","","animation","161","1363450","0.0-161.0","1920x1080","","6856.200000000186","30.82","img/238/4/1/bw/001.png","","","natural"
"","","","","","animation","162","1368233","0.0-162.0","1920x1080","","4781.5","72.88","img/314/4.5/1/bw/001.png","","","natural"
"","","","","","animation","163","1372525","0.0-163.0","1920x1080","","4290.4000000003725","75.93","img/238/4.5/0.5/bw/001.png","","","natural"
"","","","","","animation","164","1378200","0.0-164.0","1920x1080","","5674.5","85.45","img/314/4/1/bw/001.png","","","natural"
"","","","","","animation","165","1382653","0.0-165.0","1920x1080","","4451.100000000559","16","img/314/4.5/0.5/bw/001.png","","","natural"
"","","","","","animation","166","1389466","0.0-166.0","1920x1080","","6815.0999999996275","61","img/238/5.5/0.5/bw/001.png","","","natural"
"","","","","","animation","167","1392499","0.0-167.0","1920x1080","","3032.5999999996275","0","img/314/2.5/0.66667/bw/001.png","","","natural"
"","","","","","animation","168","1396214","0.0-168.0","1920x1080","","3713.5","66.01","img/117/3.5/0.5/bw/001.png","","","natural"
"","","","","","animation","169","1399914","0.0-169.0","1920x1080","","3698.0999999996275","71.03","img/117/4/0.66667/bw/001.png","","","natural"
"","","","","","animation","170","1403474","0.0-170.0","1920x1080","","3559.2000000001863","8.20","img/117/3.5/1/bw/001.png","","","natural"
"","","","","","animation","171","1407397","0.0-171.0","1920x1080","","3921.2999999998137","58.86","img/117/5.5/0.66667/bw/001.png","","","natural"
"","","","","","animation","172","1411706","0.0-172.0","1920x1080","","4307.799999999814","32.54","img/117/3.5/0.66667/bw/001.png","","","natural"
"","","","","","animation","173","1417531","0.0-173.0","1920x1080","","5823.4000000003725","37.17","img/117/5.5/1/bw/001.png","","","natural"
"","","","","","animation","174","1421114","0.0-174.0","1920x1080","","3581.5999999996275","8.47","img/238/2.5/0.66667/bw/001.png","","","natural"
"","","","","","animation","175","1423380","0.0-175.0","1920x1080","","2264.899999999441","11.11","img/117/2.5/1.5/bw/001.png","","","natural"
"","","","","","animation","176","1426634","0.0-176.0","1920x1080","","3252.5","3.70","img/117/2.5/2/bw/001.png","","","natural"
"","","","","","animation","177","1431114","0.0-177.0","1920x1080","","4478.9000000003725","70.37","img/117/3.5/2/bw/001.png","","","natural"
"","","","","","animation","178","1435506","0.0-178.0","1920x1080","","4391.100000000559","36.38","img/314/3.5/1/bw/001.png","","","natural"
"","","","","","animation","179","1439370","0.0-179.0","1920x1080","","3862.2999999998137","80.29","img/238/5.5/1.5/bw/001.png","","","natural"
"","","","","","animation","180","1442398","0.0-180.0","1920x1080","","3026.399999999441","78.17","img/314/4/1.5/bw/001.png","","","natural"
"","","","","","animation","181","1445266","0.0-181.0","1920x1080","","2866.399999999441","74.21","img/314/5.5/0.66667/bw/001.png","","","natural"
"","","","","","animation","182","1448299","0.0-182.0","1920x1080","","3031.4000000003725","4.37","img/238/2.5/1/bw/001.png","","","natural"
"","","","","","animation","183","1452241","0.0-183.0","1920x1080","","3941","0.40","img/238/2.5/0.5/bw/001.png","","","natural"
"","","","","","animation","184","1456314","0.0-184.0","1920x1080","","4070.7999999998137","70.37","img/117/5.5/1.5/bw/001.png","","","natural"
"","","","","","animation","185","1460939","0.0-185.0","1920x1080","","4623.200000000186","94.58","img/238/5.5/1/bw/001.png","","","natural"
"","","","","","animation","186","1464181","0.0-186.0","1920x1080","","3240.9000000003725","89.42","img/117/5.5/2/bw/001.png","","","natural"
"","","","","","animation","187","1469264","0.0-187.0","1920x1080","","5081.799999999814","77.25","img/117/4/2/bw/001.png","","","natural"
"","","","","","animation","188","1472831","0.0-188.0","1920x1080","","3565.699999999255","74.47","img/314/4.5/2/bw/001.png","","","natural"
"","","","","","animation","189","1476907","0.0-189.0","1920x1080","","4074.4000000003725","37.96","img/314/3.5/0.5/bw/001.png","","","natural"
"","","","","","animation","190","1481582","0.0-190.0","1920x1080","","4674.200000000186","34.79","img/238/4/0.66667/bw/001.png","","","natural"
"","","","","","animation","191","1485748","0.0-191.0","1920x1080","","4164.199999999255","63.89","img/314/5.5/1/bw/001.png","","","natural"
"","","","","","animation","192","1493219","0.0-192.0","1920x1080","","7469.5","60.85","img/117/4.5/1.5/bw/001.png","","","natural"
"","","","","","animation","193","1499771","0.0-193.0","1920x1080","","6549.5","86","img/117/4/1/bw/001.png","","","natural"
"","","","","","animation","194","1503998","0.0-194.0","1920x1080","","4225.700000000186","76.19","img/238/5.5/0.66667/bw/001.png","","","natural"
"","","","","","animation","195","1506499","0.0-195.0","1920x1080","","2499","27.12","img/314/2.5/1.5/bw/001.png","","","natural"
"","","","","","animation","196","1511949","0.0-196.0","1920x1080","","5449.5999999996275","43.92","img/314/4.5/0.66667/bw/001.png","","","natural"
"","","","","","animation","197","1515848","0.0-197.0","1920x1080","","3897.2999999998137","67.86","img/238/4.5/2/bw/001.png","","","natural"
"","","","","","animation","198","1519723","0.0-198.0","1920x1080","","3874","10.19","img/117/2.5/0.66667/bw/001.png","","","natural"
"","","","","","animation","199","1524553","0.0-199.0","1920x1080","","4828.399999999441","83.73","img/117/4.5/0.66667/bw/001.png","","","natural"
"","","","","","animation","200","1528699","0.0-200.0","1920x1080","","4144.4000000003725","78.04","img/117/5.5/0.5/bw/001.png","","","natural"
"","","","","","animation","201","1533307","0.0-201.0","1920x1080","","4607.100000000559","31","img/314/4/0.5/bw/001.png","","","natural"
"","","","","","animation","202","1537035","0.0-202.0","1920x1080","","3726.4000000003725","43.65","img/238/4.5/0.66667/bw/001.png","","","natural"
"","","","","","animation","203","1542515","0.0-203.0","1920x1080","","5478.700000000186","87.70","img/238/4/1.5/bw/001.png","","","natural"
"","","","","","animation","204","1545867","0.0-204.0","1920x1080","","3349.7999999998137","3","img/117/2.5/1/bw/001.png","","","natural"
"","","","","","animation","205","1548867","0.0-205.0","1920x1080","","2998.7999999998137","0","img/314/2.5/0.5/bw/001.png","","","natural"
"","","","","","animation","206","1551898","0.0-206.0","1920x1080","","3029.600000000559","12.17","img/314/3.5/0.66667/bw/001.png","","","natural"
"","","","","","animation","207","1555598","0.0-207.0","1920x1080","","3699.2999999998137","25.53","img/117/4/0.5/bw/001.png","","","natural"
"","","","","","animation","208","1558190","0.0-208.0","1920x1080","","2590.399999999441","9.92","img/238/2.5/2/bw/001.png","","","natural"
"","","","","","animation","209","1561867","0.0-209.0","1920x1080","","3674.9000000003725","64.42","img/117/4.5/1/bw/001.png","","","natural"
"","","","","","animation","210","1566434","0.0-210.0","1920x1080","","4566.9000000003725","76.06","img/238/5.5/2/bw/001.png","","","natural"
"","","","","","animation","211","1572434","0.0-211.0","1920x1080","","5998.700000000186","49","img/238/4.5/1/bw/001.png","","","natural"
"","","","","","animation","212","1576765","0.0-212.0","1920x1080","","4329.4000000003725","75.53","img/238/4/2/bw/001.png","","","natural"
"","","","","","animation","213","1581914","0.0-213.0","1920x1080","","5147.199999999255","34.26","img/314/4.5/1.5/bw/001.png","","","natural"
"","","","","","animation","214","1589281","0.0-214.0","1920x1080","","7365.4000000003725","100","img/314/5.5/0.5/bw/001.png","","","natural"
"","","","","","animation","215","1592481","0.0-215.0","1920x1080","","3199.399999999441","0","img/238/2.5/1.5/bw/001.png","","","natural"
"","","","","","animation","216","1594802","0.0-216.0","1920x1080","","2319","6.08","img/117/2.5/0.5/bw/001.png","","","natural"
"","","","","","animation","217","1598218","0.0-217.0","1920x1080","","3414.800000000745","63.89","img/314/5.5/1.5/bw/001.png","","","natural"
"","","","","","animation","218","1601786","0.0-218.0","1920x1080","","3566.600000000559","48.02","img/314/4/0.66667/bw/001.png","","","natural"
"","","","","","animation","219","1604380","0.0-219.0","1920x1080","","2593.4000000003725","61.77","img/238/4/0.5/bw/001.png","","","natural"
"","","","","","animation","220","1610106","0.0-220.0","1920x1080","","5724.199999999255","17.59","img/238/3.5/2/bw/001.png","","","natural"
"","","","","","animation","221","1613480","0.0-221.0","1920x1080","","3373.0999999996275","23","img/238/3.5/1.5/bw/001.png","","","natural"
"","","","","","animation","222","1619547","0.0-222.0","1920x1080","","6064.299999999814","79.37","img/117/3.5/1.5/bw/001.png","","","natural"
"","","","","","animation","223","1623649","0.0-223.0","1920x1080","","4101.5999999996275","78.57","img/314/4/2/bw/001.png","","","natural"
"","","","","","animation","224","1626196","0.0-224.0","1920x1080","","2545.5999999996275","38.36","img/238/3.5/0.66667/bw/001.png","","","natural"
"","","","","","animation","225","1628346","0.0-225.0","1920x1080","","2148.7999999998137","32.01","img/314/2.5/2/bw/001.png","","","natural"
"","","","","","animation","226","1630679","0.0-226.0","1920x1080","","2332.600000000559","26.59","img/314/3.5/1.5/bw/001.png","","","natural"
"","","","","","animation","227","1635429","0.0-227.0","1920x1080","","4748.699999999255","88","img/117/4/1.5/bw/001.png","","","natural"
"","","","","","animation","228","1639081","0.0-228.0","1920x1080","","3650.2999999998137","67.46","img/117/4.5/0.5/bw/001.png","","","natural"
"","","","","","animation","229","1643746","0.0-229.0","1920x1080","","4663.9000000003725","89","img/314/3.5/2/bw/001.png","","","natural"
"","","","","","animation","230","1647330","0.0-230.0","1920x1080","","3583.0999999996275","48.02","img/238/3.5/1/bw/001.png","","","natural"
"","","","","","animation","231","1651753","0.0-231.0","1920x1080","","4421.700000000186","40.48","img/238/3.5/0.5/bw/001.png","","","natural"
"","","","","","animation","232","1657396","0.0-232.0","1920x1080","","5641.899999999441","69.84","img/238/4.5/1.5/bw/001.png","","","natural"
"","","","","","animation","233","1661012","0.0-233.0","1920x1080","","3615","74","img/314/5.5/2/bw/001.png","","","natural"
"","","","","","animation","234","1665095","0.0-234.0","1920x1080","","4081.5","3.97","img/314/2.5/1/bw/001.png","","","natural"
"","","","","","animation","235","1669546","0.0-235.0","1920x1080","","4448.700000000186","62.57","img/117/4.5/2/bw/001.png","","","natural"
"","","","","","html-button-response","236","1705075","0.0-236.0","1920x1080","","35518.09999999963","","<div class=""intro"">You are about to view a new series of animations.<br><br></div><div class=""intro"">You will evaluate them based on a different descriptor.<br><br></div><div class=""intro"">Move the slider to indicate how <strong style=""text-transform:capitalize"">APPEALING</strong> you find each animation.<br><br></div><div class=""intro"">0 = Least Appealing<br></div><div class=""intro"">1 = Most Appealing<br><br></div><div class=""intro"">Remember to use the <strong><em>entire range</em></strong> of the slider to make your ratings.<br></div><div class=""intro"">Please <strong><em>take your time</em></strong> and carefully consider each rating you make.<br><br></div>","0","",""
"","","","","","call-function","237","1705079","0.0-237.0","1920x1080","","","","","","",""
"","","","","","animation","238","1711355","0.0-238.0","1920x1080","","6275.300000000745","71","img/238/5.5/0.5/bw/001.png","","","appealing"
"","","","","","animation","239","1715442","0.0-239.0","1920x1080","","4086.100000000559","38.10","img/238/4/1/bw/001.png","","","appealing"
"","","","","","animation","240","1719163","0.0-240.0","1920x1080","","3719.0999999996275","7.94","img/238/2.5/1.5/bw/001.png","","","appealing"
"","","","","","animation","241","1723806","0.0-241.0","1920x1080","","4641.4000000003725","94.05","img/238/4.5/2/bw/001.png","","","appealing"
"","","","","","animation","242","1728272","0.0-242.0","1920x1080","","4464.600000000559","23.02","img/314/2.5/2/bw/001.png","","","appealing"
"","","","","","animation","243","1732705","0.0-243.0","1920x1080","","4431.5","32.80","img/238/3.5/1.5/bw/001.png","","","appealing"
"","","","","","animation","244","1737305","0.0-244.0","1920x1080","","4598.299999999814","24.21","img/117/3.5/0.66667/bw/001.png","","","appealing"
"","","","","","animation","245","1741395","0.0-245.0","1920x1080","","4088.0999999996275","67.72","img/238/4/1.5/bw/001.png","","","appealing"
"","","","","","animation","246","1748154","0.0-246.0","1920x1080","","6765.9000000003725","66.27","img/117/5.5/1.5/bw/001.png","","","appealing"
"","","","","","animation","247","1752563","0.0-247.0","1920x1080","","4406.9000000003725","0.93","img/314/2.5/1.5/bw/001.png","","","appealing"
"","","","","","animation","248","1755714","0.0-248.0","1920x1080","","3148.9000000003725","64","img/117/5.5/0.66667/bw/001.png","","","appealing"
"","","","","","animation","249","1762747","0.0-249.0","1920x1080","","7032","19","img/117/2.5/2/bw/001.png","","","appealing"
"","","","","","animation","250","1766970","0.0-250.0","1920x1080","","4222.4000000003725","28.17","img/314/3.5/2/bw/001.png","","","appealing"
"","","","","","animation","251","1770847","0.0-251.0","1920x1080","","3875.2000000001863","0","img/238/2.5/0.5/bw/001.png","","","appealing"
"","","","","","animation","252","1774780","0.0-252.0","1920x1080","","3932.0999999996275","32.67","img/117/3.5/0.5/bw/001.png","","","appealing"
"","","","","","animation","253","1778113","0.0-253.0","1920x1080","","3331.899999999441","68.25","img/314/5.5/1/bw/001.png","","","appealing"
"","","","","","animation","254","1784565","0.0-254.0","1920x1080","","6449.5","44.44","img/238/4.5/0.66667/bw/001.png","","","appealing"
"","","","","","animation","255","1791698","0.0-255.0","1920x1080","","7132.0999999996275","73","img/314/5.5/0.66667/bw/001.png","","","appealing"
"","","","","","animation","256","1795771","0.0-256.0","1920x1080","","4068.7000000001863","79.50","img/238/4/2/bw/001.png","","","appealing"
"","","","","","animation","257","1800247","0.0-257.0","1920x1080","","4474.700000000186","74.47","img/314/4/0.66667/bw/001.png","","","appealing"
"","","","","","animation","258","1803613","0.0-258.0","1920x1080","","3365.5","7","img/238/2.5/1/bw/001.png","","","appealing"
"","","","","","animation","259","1807818","0.0-259.0","1920x1080","","4203.699999999255","82.28","img/314/4/1/bw/001.png","","","appealing"
"","","","","","animation","260","1811347","0.0-260.0","1920x1080","","3527.5","91.67","img/314/5.5/1.5/bw/001.png","","","appealing"
"","","","","","animation","261","1815847","0.0-261.0","1920x1080","","4498.299999999814","41.27","img/238/4.5/0.5/bw/001.png","","","appealing"
"","","","","","animation","262","1823666","0.0-262.0","1920x1080","","7817.899999999441","35.45","img/238/4/0.5/bw/001.png","","","appealing"
"","","","","","animation","263","1828314","0.0-263.0","1920x1080","","4642.0999999996275","58.07","img/314/3.5/1.5/bw/001.png","","","appealing"
"","","","","","animation","264","1834398","0.0-264.0","1920x1080","","6083.0999999996275","95","img/238/5.5/2/bw/001.png","","","appealing"
"","","","","","animation","265","1837480","0.0-265.0","1920x1080","","3080.300000000745","1.32","img/117/2.5/1.5/bw/001.png","","","appealing"
"","","","","","animation","266","1846602","0.0-266.0","1920x1080","","9120","98","img/238/5.5/1/bw/001.png","","","appealing"
"","","","","","animation","267","1849947","0.0-267.0","1920x1080","","3342.399999999441","85.05","img/117/4.5/0.5/bw/001.png","","","appealing"
"","","","","","animation","268","1853682","0.0-268.0","1920x1080","","3733.9000000003725","29","img/117/3.5/1/bw/001.png","","","appealing"
"","","","","","animation","269","1858402","0.0-269.0","1920x1080","","4719","75","img/314/4.5/1.5/bw/001.png","","","appealing"
"","","","","","animation","270","1866450","0.0-270.0","1920x1080","","8046.200000000186","74.74","img/117/3.5/1.5/bw/001.png","","","appealing"
"","","","","","animation","271","1875170","0.0-271.0","1920x1080","","8718.5","80.69","img/117/4/1.5/bw/001.png","","","appealing"
"","","","","","animation","272","1879871","0.0-272.0","1920x1080","","4699.5","79.89","img/117/3.5/2/bw/001.png","","","appealing"
"","","","","","animation","273","1883432","0.0-273.0","1920x1080","","3558.100000000559","53.44","img/238/4/0.66667/bw/001.png","","","appealing"
"","","","","","animation","274","1888114","0.0-274.0","1920x1080","","4680.5","6.22","img/117/2.5/0.66667/bw/001.png","","","appealing"
"","","","","","animation","275","1893913","0.0-275.0","1920x1080","","5797","64","img/117/5.5/2/bw/001.png","","","appealing"
"","","","","","animation","276","1900163","0.0-276.0","1920x1080","","6249","55","img/238/5.5/1.5/bw/001.png","","","appealing"
"","","","","","animation","277","1903754","0.0-277.0","1920x1080","","3590.100000000559","0","img/117/2.5/0.5/bw/001.png","","","appealing"
"","","","","","animation","278","1908682","0.0-278.0","1920x1080","","4925.600000000559","69.84","img/314/3.5/0.66667/bw/001.png","","","appealing"
"","","","","","animation","279","1913266","0.0-279.0","1920x1080","","4581.9000000003725","57","img/314/4/2/bw/001.png","","","appealing"
"","","","","","animation","280","1917802","0.0-280.0","1920x1080","","4534.5999999996275","51.46","img/238/3.5/0.66667/bw/001.png","","","appealing"
"","","","","","animation","281","1922298","0.0-281.0","1920x1080","","4491.300000000745","76.85","img/314/4.5/0.5/bw/001.png","","","appealing"
"","","","","","animation","282","1925915","0.0-282.0","1920x1080","","3614.0999999996275","2.12","img/314/2.5/0.66667/bw/001.png","","","appealing"
"","","","","","animation","283","1930598","0.0-283.0","1920x1080","","4681.0999999996275","90.08","img/117/4/2/bw/001.png","","","appealing"
"","","","","","animation","284","1934482","0.0-284.0","1920x1080","","3882.2999999998137","89.81","img/117/4/1/bw/001.png","","","appealing"
"","","","","","animation","285","1941082","0.0-285.0","1920x1080","","6598.200000000186","43.12","img/238/4.5/1.5/bw/001.png","","","appealing"
"","","","","","animation","286","1946148","0.0-286.0","1920x1080","","5065.199999999255","33.73","img/117/4/0.5/bw/001.png","","","appealing"
"","","","","","animation","287","1950115","0.0-287.0","1920x1080","","3964.899999999441","79.63","img/238/3.5/2/bw/001.png","","","appealing"
"","","","","","animation","288","1953732","0.0-288.0","1920x1080","","3615.4000000003725","87.17","img/117/4/0.66667/bw/001.png","","","appealing"
"","","","","","animation","289","1956398","0.0-289.0","1920x1080","","2664.600000000559","3.70","img/238/2.5/0.66667/bw/001.png","","","appealing"
"","","","","","animation","290","1963148","0.0-290.0","1920x1080","","6749.699999999255","90.48","img/117/4.5/0.66667/bw/001.png","","","appealing"
"","","","","","animation","291","1968049","0.0-291.0","1920x1080","","4897.200000000186","80.42","img/314/4/1.5/bw/001.png","","","appealing"
"","","","","","animation","292","1972582","0.0-292.0","1920x1080","","4531.9000000003725","88.36","img/314/4.5/0.66667/bw/001.png","","","appealing"
"","","","","","animation","293","1976548","0.0-293.0","1920x1080","","3964.7999999998137","90.34","img/117/4.5/1/bw/001.png","","","appealing"
"","","","","","animation","294","1980565","0.0-294.0","1920x1080","","4014.5","60.98","img/314/4.5/2/bw/001.png","","","appealing"
"","","","","","animation","295","1983900","0.0-295.0","1920x1080","","3333.7999999998137","15.74","img/238/3.5/0.5/bw/001.png","","","appealing"
"","","","","","animation","296","1990614","0.0-296.0","1920x1080","","6713.399999999441","84.79","img/117/4.5/1.5/bw/001.png","","","appealing"
"","","","","","animation","297","1994188","0.0-297.0","1920x1080","","3571.7000000001863","9.52","img/314/3.5/0.5/bw/001.png","","","appealing"
"","","","","","animation","298","1999820","0.0-298.0","1920x1080","","5629.9000000003725","94","img/238/4.5/1/bw/001.png","","","appealing"
"","","","","","animation","299","2003531","0.0-299.0","1920x1080","","3709.7000000001863","23.41","img/238/2.5/2/bw/001.png","","","appealing"
"","","","","","animation","300","2009203","0.0-300.0","1920x1080","","5670.699999999255","82.14","img/238/5.5/0.66667/bw/001.png","","","appealing"
"","","","","","animation","301","2014448","0.0-301.0","1920x1080","","5242.4000000003725","78.84","img/314/5.5/2/bw/001.png","","","appealing"
"","","","","","animation","302","2020331","0.0-302.0","1920x1080","","5882","94.05","img/117/4.5/2/bw/001.png","","","appealing"
"","","","","","animation","303","2023515","0.0-303.0","1920x1080","","3182.5999999996275","2.78","img/314/2.5/1/bw/001.png","","","appealing"
"","","","","","animation","304","2027587","0.0-304.0","1920x1080","","4070.399999999441","76.72","img/238/3.5/1/bw/001.png","","","appealing"
"","","","","","animation","305","2032931","0.0-305.0","1920x1080","","5342.700000000186","78","img/314/4.5/1/bw/001.png","","","appealing"
"","","","","","animation","306","2036456","0.0-306.0","1920x1080","","3523.5999999996275","83.20","img/314/3.5/1/bw/001.png","","","appealing"
"","","","","","animation","307","2039398","0.0-307.0","1920x1080","","2940.100000000559","9.39","img/117/2.5/1/bw/001.png","","","appealing"
"","","","","","animation","308","2044131","0.0-308.0","1920x1080","","4731.4000000003725","66","img/117/5.5/0.5/bw/001.png","","","appealing"
"","","","","","animation","309","2047019","0.0-309.0","1920x1080","","2887.5999999996275","73.15","img/117/5.5/1/bw/001.png","","","appealing"
"","","","","","animation","310","2050019","0.0-310.0","1920x1080","","2998.4000000003725","77.25","img/314/4/0.5/bw/001.png","","","appealing"
"","","","","","animation","311","2053470","0.0-311.0","1920x1080","","3450.100000000559","89.55","img/314/5.5/0.5/bw/001.png","","","appealing"
"","","","","","animation","312","2056187","0.0-312.0","1920x1080","","2715.0999999996275","11.11","img/314/2.5/0.5/bw/001.png","","","appealing"
"","","","","","html-button-response","313","2089407","0.0-313.0","1920x1080","","33217.700000000186","","<div class=""intro"">You are about to view a new series of animations.<br><br></div><div class=""intro"">You will evaluate them based on a different descriptor.<br><br></div><div class=""intro"">Move the slider to indicate how <strong style=""text-transform:capitalize"">INTERESTING</strong> you find each animation.<br><br></div><div class=""intro"">0 = Least Interesting<br></div><div class=""intro"">1 = Most Interesting<br><br></div><div class=""intro"">Remember to use the <strong><em>entire range</em></strong> of the slider to make your ratings.<br></div><div class=""intro"">Please <strong><em>take your time</em></strong> and carefully consider each rating you make.<br><br></div>","0","",""
"","","","","","call-function","314","2089411","0.0-314.0","1920x1080","","","","","","",""
"","","","","","animation","315","2094514","0.0-315.0","1920x1080","","5101.700000000186","30.56","img/238/4.5/1.5/bw/001.png","","","interesting"
"","","","","","animation","316","2100681","0.0-316.0","1920x1080","","6165.100000000559","12.43","img/117/5.5/2/bw/001.png","","","interesting"
"","","","","","animation","317","2105500","0.0-317.0","1920x1080","","4822.199999999255","25.93","img/238/5.5/1.5/bw/001.png","","","interesting"
"","","","","","animation","318","2110526","0.0-318.0","1920x1080","","5023.5","88.36","img/117/3.5/1/bw/001.png","","","interesting"
"","","","","","animation","319","2115259","0.0-319.0","1920x1080","","4730.699999999255","92.72","img/238/4.5/1/bw/001.png","","","interesting"
"","","","","","animation","320","2119651","0.0-320.0","1920x1080","","4388.5","1.59","img/238/2.5/0.5/bw/001.png","","","interesting"
"","","","","","animation","321","2125376","0.0-321.0","1920x1080","","5722.9000000003725","72.09","img/238/3.5/1/bw/001.png","","","interesting"
"","","","","","animation","322","2133775","0.0-322.0","1920x1080","","8397.899999999441","6.75","img/117/2.5/0.5/bw/001.png","","","interesting"
"","","","","","animation","323","2138326","0.0-323.0","1920x1080","","4548.100000000559","0","img/117/2.5/2/bw/001.png","","","interesting"
"","","","","","animation","324","2141359","0.0-324.0","1920x1080","","3031","90.74","img/117/4/0.66667/bw/001.png","","","interesting"
"","","","","","animation","325","2144797","0.0-325.0","1920x1080","","3436.2999999998137","84.39","img/314/4/0.66667/bw/001.png","","","interesting"
"","","","","","animation","326","2149310","0.0-326.0","1920x1080","","4511.700000000186","20.90","img/238/5.5/0.66667/bw/001.png","","","interesting"
"","","","","","animation","327","2153293","0.0-327.0","1920x1080","","3980.7999999998137","17.59","img/314/2.5/2/bw/001.png","","","interesting"
"","","","","","animation","328","2157993","0.0-328.0","1920x1080","","4697","42.06","img/314/3.5/2/bw/001.png","","","interesting"
"","","","","","animation","329","2161287","0.0-329.0","1920x1080","","3292.2000000001863","70.11","img/117/5.5/0.66667/bw/001.png","","","interesting"
"","","","","","animation","330","2165036","0.0-330.0","1920x1080","","3738.0999999996275","36.77","img/117/3.5/2/bw/001.png","","","interesting"
"","","","","","animation","331","2168769","0.0-331.0","1920x1080","","3731.7999999998137","33.99","img/314/5.5/2/bw/001.png","","","interesting"
"","","","","","animation","332","2173119","0.0-332.0","1920x1080","","4348","80.16","img/117/4.5/1.5/bw/001.png","","","interesting"
"","","","","","animation","333","2177535","0.0-333.0","1920x1080","","4414.799999999814","44","img/117/2.5/0.66667/bw/001.png","","","interesting"
"","","","","","animation","334","2182708","0.0-334.0","1920x1080","","5171.5","81.08","img/314/3.5/1/bw/001.png","","","interesting"
"","","","","","animation","335","2185486","0.0-335.0","1920x1080","","2775.9000000003725","68.92","img/117/4/2/bw/001.png","","","interesting"
"","","","","","animation","336","2188224","0.0-336.0","1920x1080","","2737","22.75","img/117/2.5/1/bw/001.png","","","interesting"
"","","","","","animation","337","2193986","0.0-337.0","1920x1080","","5760.0999999996275","30.16","img/314/2.5/1/bw/001.png","","","interesting"
"","","","","","animation","338","2197624","0.0-338.0","1920x1080","","3637.5","67.46","img/314/5.5/0.66667/bw/001.png","","","interesting"
"","","","","","animation","339","2204585","0.0-339.0","1920x1080","","6958.600000000559","83.86","img/117/3.5/1.5/bw/001.png","","","interesting"
"","","","","","animation","340","2209168","0.0-340.0","1920x1080","","4581.5999999996275","58.60","img/314/3.5/0.66667/bw/001.png","","","interesting"
"","","","","","animation","341","2212041","0.0-341.0","1920x1080","","2872","79.50","img/238/4.5/0.5/bw/001.png","","","interesting"
"","","","","","animation","342","2215155","0.0-342.0","1920x1080","","3112.4000000003725","42.20","img/238/4.5/2/bw/001.png","","","interesting"
"","","","","","animation","343","2218602","0.0-343.0","1920x1080","","3444.7000000001863","32.80","img/238/3.5/1.5/bw/001.png","","","interesting"
"","","","","","animation","344","2222786","0.0-344.0","1920x1080","","4182.5","74.60","img/314/4/1/bw/001.png","","","interesting"
"","","","","","animation","345","2228232","0.0-345.0","1920x1080","","5454.5999999996275","69.44","img/314/4.5/1/bw/001.png","","","interesting"
"","","","","","animation","346","2242326","0.0-346.0","1920x1080","","14092.399999999441","75.53","img/117/5.5/1/bw/001.png","","","interesting"
"","","","","","animation","347","2247230","0.0-347.0","1920x1080","","4902.0999999996275","60.71","img/117/5.5/1.5/bw/001.png","","","interesting"
"","","","","","animation","348","2250352","0.0-348.0","1920x1080","","3119.2000000001863","90.48","img/314/4/2/bw/001.png","","","interesting"
"","","","","","animation","349","2253184","0.0-349.0","1920x1080","","2830.199999999255","27.65","img/117/4/0.5/bw/001.png","","","interesting"
"","","","","","animation","350","2257159","0.0-350.0","1920x1080","","3972.899999999441","18.65","img/238/5.5/2/bw/001.png","","","interesting"
"","","","","","animation","351","2260214","0.0-351.0","1920x1080","","3053.2999999998137","30.69","img/314/2.5/0.66667/bw/001.png","","","interesting"
"","","","","","animation","352","2263094","0.0-352.0","1920x1080","","2877.9000000003725","81.35","img/238/4/0.5/bw/001.png","","","interesting"
"","","","","","animation","353","2266542","0.0-353.0","1920x1080","","3446.7000000001863","32.80","img/238/2.5/0.66667/bw/001.png","","","interesting"
"","","","","","animation","354","2269859","0.0-354.0","1920x1080","","3315.4000000003725","7.41","img/314/2.5/1.5/bw/001.png","","","interesting"
"","","","","","animation","355","2273685","0.0-355.0","1920x1080","","3823.7999999998137","60","img/238/4/1.5/bw/001.png","","","interesting"
"","","","","","animation","356","2275980","0.0-356.0","1920x1080","","2292.5999999996275","71.96","img/117/4/1.5/bw/001.png","","","interesting"
"","","","","","animation","357","2278231","0.0-357.0","1920x1080","","2249.600000000559","9.79","img/238/2.5/1/bw/001.png","","","interesting"
"","","","","","animation","358","2281126","0.0-358.0","1920x1080","","2893.4000000003725","79.50","img/238/4.5/0.66667/bw/001.png","","","interesting"
"","","","","","animation","359","2284456","0.0-359.0","1920x1080","","3331","90.21","img/238/5.5/0.5/bw/001.png","","","interesting"
"","","","","","animation","360","2288460","0.0-360.0","1920x1080","","4001.9000000003725","98","img/314/5.5/0.5/bw/001.png","","","interesting"
"","","","","","animation","361","2292190","0.0-361.0","1920x1080","","3727.9000000003725","47.22","img/117/5.5/0.5/bw/001.png","","","interesting"
"","","","","","animation","362","2295590","0.0-362.0","1920x1080","","3398.7000000001863","73","img/117/4.5/0.5/bw/001.png","","","interesting"
"","","","","","animation","363","2298709","0.0-363.0","1920x1080","","3118","75.40","img/117/4.5/0.66667/bw/001.png","","","interesting"
"","","","","","animation","364","2302412","0.0-364.0","1920x1080","","3701.7999999998137","58.20","img/117/3.5/0.66667/bw/001.png","","","interesting"
"","","","","","animation","365","2309640","0.0-365.0","1920x1080","","7226.299999999814","84.66","img/117/3.5/0.5/bw/001.png","","","interesting"
"","","","","","animation","366","2314350","0.0-366.0","1920x1080","","4708.799999999814","91","img/314/3.5/1.5/bw/001.png","","","interesting"
"","","","","","animation","367","2317075","0.0-367.0","1920x1080","","2722.5","20.50","img/238/5.5/1/bw/001.png","","","interesting"
"","","","","","animation","368","2323688","0.0-368.0","1920x1080","","6611.799999999814","42.20","img/238/3.5/0.66667/bw/001.png","","","interesting"
"","","","","","animation","369","2329107","0.0-369.0","1920x1080","","5417.199999999255","83.73","img/314/4/1.5/bw/001.png","","","interesting"
"","","","","","animation","370","2332626","0.0-370.0","1920x1080","","3517.0999999996275","21.43","img/238/4/1/bw/001.png","","","interesting"
"","","","","","animation","371","2337673","0.0-371.0","1920x1080","","5045.700000000186","6.22","img/117/2.5/1.5/bw/001.png","","","interesting"
"","","","","","animation","372","2340957","0.0-372.0","1920x1080","","3281.4000000003725","5.03","img/117/4.5/2/bw/001.png","","","interesting"
"","","","","","animation","373","2350127","0.0-373.0","1920x1080","","9159","55.29","img/314/4.5/2/bw/001.png","","","interesting"
"","","","","","animation","374","2352838","0.0-374.0","1920x1080","","2709.5","64.42","img/314/5.5/1.5/bw/001.png","","","interesting"
"","","","","","animation","375","2355816","0.0-375.0","1920x1080","","2975.800000000745","42.86","img/238/3.5/0.5/bw/001.png","","","interesting"
"","","","","","animation","376","2360599","0.0-376.0","1920x1080","","4781.300000000745","31.08","img/314/4.5/0.5/bw/001.png","","","interesting"
"","","","","","animation","377","2364305","0.0-377.0","1920x1080","","3704.4000000003725","69.31","img/238/4/2/bw/001.png","","","interesting"
"","","","","","animation","378","2367850","0.0-378.0","1920x1080","","3542.800000000745","10.71","img/238/2.5/1.5/bw/001.png","","","interesting"
"","","","","","animation","379","2370766","0.0-379.0","1920x1080","","2914.7999999998137","58.60","img/314/4.5/0.66667/bw/001.png","","","interesting"
"","","","","","animation","380","2373983","0.0-380.0","1920x1080","","3215.2000000001863","48.81","img/314/5.5/1/bw/001.png","","","interesting"
"","","","","","animation","381","2376872","0.0-381.0","1920x1080","","2887.7000000001863","69.97","img/117/4/1/bw/001.png","","","interesting"
"","","","","","animation","382","2381584","0.0-382.0","1920x1080","","4709.5","76.59","img/238/3.5/2/bw/001.png","","","interesting"
"","","","","","animation","383","2386200","0.0-383.0","1920x1080","","4614.200000000186","32.67","img/314/4/0.5/bw/001.png","","","interesting"
"","","","","","animation","384","2388888","0.0-384.0","1920x1080","","2686.899999999441","8.86","img/314/2.5/0.5/bw/001.png","","","interesting"
"","","","","","animation","385","2393199","0.0-385.0","1920x1080","","4309.0999999996275","4.10","img/238/2.5/2/bw/001.png","","","interesting"
"","","","","","animation","386","2396086","0.0-386.0","1920x1080","","2885","40.61","img/314/3.5/0.5/bw/001.png","","","interesting"
"","","","","","animation","387","2400933","0.0-387.0","1920x1080","","4845.4000000003725","59.13","img/117/4.5/1/bw/001.png","","","interesting"
"","","","","","animation","388","2405307","0.0-388.0","1920x1080","","4382.899999999441","31.61","img/238/4/0.66667/bw/001.png","","","interesting"
"","","","","","animation","389","2408023","0.0-389.0","1920x1080","","2715","24.74","img/314/4.5/1.5/bw/001.png","","","interesting"
"","","","","","html-button-response","390","2449104","0.0-390.0","1920x1080","","41078.700000000186","","<strong>Study Debriefing</strong><br><p class=""debrief""><strong>Background:</strong> The patterns you rated are called <em>fractals</em>. The term fractal describes a class of irregular curves or shapes for which any suitably chosen part is similar in shape to a given larger or smaller part when magnified or reduced to the same size. Fractal properties are found throughout the natural and manmade world. The series of animations you saw today displayed animated fractal patterns of a varying complexity.</p><p class=""debrief""><strong>Purpose of this study:</strong> We hope to better understand how the perception of static fractals differs from the perception of animated fractals, and how the speed of the animated patterns influences people&apos;s perception of them. Fractals allow us to study the perception of aesthetic properties (e.g. the perceived level of beauty in an image) without using recognizable content, which makes them an excellent tool for studying abstract aesthetic judgement.</p><p class=""debrief""><strong>Your part:</strong> Your participation has helped us to further understand how humans perceive these patterns across different levels of speed and complexity. This research with allow us to better understand how the visual system and brain process our ever-changing visual environments.<p class=""debrief""><strong>Feedback and Further information:</strong> If you have additional questions about this study, please feel free to ask the researcher, Nathan Gonzales-Hess at nhess @ uoregon.edu. If you have any questions concerning your rights as a research participant, please contact Research Compliance Services, 5237 University of Oregon, Eugene, OR 97403, 541-346-2510, or email researchCompliance @ uoregon.edu. You can also email the Human Subjects Coordinator for psychology and linguistics research at hscoord @ uoregon.edu. ","0","",""
"","","","","","html-button-response","391","2897046","0.0-391.0","1920x1080","","447930.2999999998","","Thank you for participating in this study. <br>Please click below to finish the experiment and submit your responses.<br><br>","0","",""
"true","","","","","fullscreen","392","2898054","0.0-392.0","1920x1080","13:12 20/10/2022","","","","","",""
