"success","timeout","failed_images","failed_audio","failed_video","trial_type","trial_index","time_elapsed","internal_node_id","resolution","timeStamp","rt","response","stimulus","button_pressed","value","descriptor"
"true","false","[]","[]","[]","preload","0","6037","0.0-0.0","1920x1080","","","","","","",""
"true","false","[]","[]","[]","preload","1","12196","0.0-1.0","1920x1080","","","","","","",""
"true","false","[]","[]","[]","preload","2","18153","0.0-2.0","1920x1080","","","","","","",""
"true","","","","","fullscreen","3","281747","0.0-3.0","1920x1080","10:33 21/10/2022","","","","","",""
"","","","","","survey-html-form","4","297705","0.0-4.0","1920x1080","","15953.899999999907","{""age"":""19"",""gender"":""female""}","","","",""
"","","","","","html-button-response","5","366337","0.0-5.0","1920x1080","","68630.79999999981","","<div class=""complex"">You are going to see a series of animations.<br><br></div><div class=""complex"">Move the slider to indicate how <strong style=""text-transform:capitalize"">COMPLEX</strong> you find each animation.<br><br></div><div class=""complex"">0 = Least Complex<br></div><div class=""complex"">1 = Most Complex<br><br></div><div class=""complex"">Remember to use the <strong><em>entire range</em></strong> of the slider to make your ratings.<br></div><div class=""complex"">Please <strong><em>take your time</em></strong> and carefully consider each rating you make.<br><br></div><div class=""complex"">The study has five sections and will take about 45 minutes to complete.<br><br></div>","0","",""
"","","","","","call-function","6","366337","0.0-6.0","1920x1080","","","","","","",""
"","","","","","animation","7","380569","0.0-7.0","1920x1080","","14230.600000000093","67.46","img/314/4/0.5/bw/001.png","","","complex"
"","","","","","animation","8","383888","0.0-8.0","1920x1080","","3318.2000000001863","14.68","img/238/5.5/1/bw/001.png","","","complex"
"","","","","","animation","9","389153","0.0-9.0","1920x1080","","5263.5","23.94","img/314/4/2/bw/001.png","","","complex"
"","","","","","animation","10","397433","0.0-10.0","1920x1080","","8278.899999999907","35.05","img/238/3.5/2/bw/001.png","","","complex"
"","","","","","animation","11","405433","0.0-11.0","1920x1080","","7999.200000000186","56.22","img/314/5.5/0.66667/bw/001.png","","","complex"
"","","","","","animation","12","414401","0.0-12.0","1920x1080","","8967.30000000028","60.98","img/238/5.5/0.66667/bw/001.png","","","complex"
"","","","","","animation","13","420696","0.0-13.0","1920x1080","","6294.799999999814","56.08","img/314/4.5/2/bw/001.png","","","complex"
"","","","","","animation","14","424201","0.0-14.0","1920x1080","","3503.600000000093","77.91","img/117/4.5/0.5/bw/001.png","","","complex"
"","","","","","animation","15","428552","0.0-15.0","1920x1080","","4350.5","90.08","img/117/2.5/1.5/bw/001.png","","","complex"
"","","","","","animation","16","431776","0.0-16.0","1920x1080","","3221.0999999996275","98","img/117/2.5/0.5/bw/001.png","","","complex"
"","","","","","animation","17","434760","0.0-17.0","1920x1080","","2983.399999999907","77.51","img/117/3.5/1/bw/001.png","","","complex"
"","","","","","animation","18","437472","0.0-18.0","1920x1080","","2710.8000000002794","56.48","img/117/5.5/1/bw/001.png","","","complex"
"","","","","","animation","19","441536","0.0-19.0","1920x1080","","4063.5","75","img/238/4.5/0.66667/bw/001.png","","","complex"
"","","","","","animation","20","445688","0.0-20.0","1920x1080","","4150.9000000003725","100","img/238/2.5/1.5/bw/001.png","","","complex"
"","","","","","animation","21","449712","0.0-21.0","1920x1080","","4023.5","100","img/314/2.5/0.5/bw/001.png","","","complex"
"","","","","","animation","22","457160","0.0-22.0","1920x1080","","7447.200000000186","54.89","img/117/4.5/1/bw/001.png","","","complex"
"","","","","","animation","23","462016","0.0-23.0","1920x1080","","4855.200000000186","82.41","img/117/2.5/1/bw/001.png","","","complex"
"","","","","","animation","24","469936","0.0-24.0","1920x1080","","7918.899999999907","59.92","img/238/5.5/0.5/bw/001.png","","","complex"
"","","","","","animation","25","475960","0.0-25.0","1920x1080","","6023.600000000093","72.35","img/314/4.5/1/bw/001.png","","","complex"
"","","","","","animation","26","491272","0.0-26.0","1920x1080","","15310.900000000373","77.38","img/117/4.5/1.5/bw/001.png","","","complex"
"","","","","","animation","27","507584","0.0-27.0","1920x1080","","16311.299999999814","45","img/117/5.5/0.66667/bw/001.png","","","complex"
"","","","","","animation","28","517016","0.0-28.0","1920x1080","","9431.5","52.25","img/238/4/0.66667/bw/001.png","","","complex"
"","","","","","animation","29","522216","0.0-29.0","1920x1080","","5198.899999999907","60.45","img/314/3.5/2/bw/001.png","","","complex"
"","","","","","animation","30","526928","0.0-30.0","1920x1080","","4710.399999999907","88.49","img/238/2.5/1/bw/001.png","","","complex"
"","","","","","animation","31","532888","0.0-31.0","1920x1080","","5959","29.50","img/314/4/0.66667/bw/001.png","","","complex"
"","","","","","animation","32","538585","0.0-32.0","1920x1080","","5696.4000000003725","44.84","img/117/3.5/0.5/bw/001.png","","","complex"
"","","","","","animation","33","542119","0.0-33.0","1920x1080","","3534.100000000093","48.02","img/238/3.5/0.5/bw/001.png","","","complex"
"","","","","","animation","34","545589","0.0-34.0","1920x1080","","3471.7999999998137","43.25","img/314/3.5/1.5/bw/001.png","","","complex"
"","","","","","animation","35","548829","0.0-35.0","1920x1080","","3239.2999999998137","38.76","img/238/4/1/bw/001.png","","","complex"
"","","","","","animation","36","551829","0.0-36.0","1920x1080","","2999.399999999907","49.47","img/238/3.5/1/bw/001.png","","","complex"
"","","","","","animation","37","557509","0.0-37.0","1920x1080","","5678.799999999814","62.04","img/314/2.5/1/bw/001.png","","","complex"
"","","","","","animation","38","563469","0.0-38.0","1920x1080","","5958.899999999907","34.13","img/314/5.5/1/bw/001.png","","","complex"
"","","","","","animation","39","566693","0.0-39.0","1920x1080","","3223.399999999907","42","img/314/4.5/1.5/bw/001.png","","","complex"
"","","","","","animation","40","572533","0.0-40.0","1920x1080","","5839.399999999907","74","img/314/3.5/0.5/bw/001.png","","","complex"
"","","","","","animation","41","576765","0.0-41.0","1920x1080","","4231","67.20","img/117/4/0.66667/bw/001.png","","","complex"
"","","","","","animation","42","580557","0.0-42.0","1920x1080","","3791","82.80","img/238/3.5/0.66667/bw/001.png","","","complex"
"","","","","","animation","43","586998","0.0-43.0","1920x1080","","6440.700000000186","57.01","img/117/3.5/2/bw/001.png","","","complex"
"","","","","","animation","44","593957","0.0-44.0","1920x1080","","6958.0999999996275","50.93","img/238/3.5/1.5/bw/001.png","","","complex"
"","","","","","animation","45","600381","0.0-45.0","1920x1080","","6423","62.96","img/314/3.5/1/bw/001.png","","","complex"
"","","","","","animation","46","605540","0.0-46.0","1920x1080","","5158.899999999907","56.88","img/117/3.5/0.66667/bw/001.png","","","complex"
"","","","","","animation","47","609661","0.0-47.0","1920x1080","","4119.699999999721","23.81","img/238/4/1.5/bw/001.png","","","complex"
"","","","","","animation","48","613077","0.0-48.0","1920x1080","","3415.0999999996275","97","img/238/2.5/0.5/bw/001.png","","","complex"
"","","","","","animation","49","615493","0.0-49.0","1920x1080","","2415.0999999996275","85.85","img/314/2.5/1.5/bw/001.png","","","complex"
"","","","","","animation","50","618445","0.0-50.0","1920x1080","","2951.2000000001863","68.39","img/117/4/2/bw/001.png","","","complex"
"","","","","","animation","51","625964","0.0-51.0","1920x1080","","7518.299999999814","86.64","img/238/2.5/2/bw/001.png","","","complex"
"","","","","","animation","52","640052","0.0-52.0","1920x1080","","14087.5","40.48","img/238/4.5/1/bw/001.png","","","complex"
"","","","","","animation","53","654741","0.0-53.0","1920x1080","","14687.099999999627","73.28","img/314/2.5/2/bw/001.png","","","complex"
"","","","","","animation","54","658508","0.0-54.0","1920x1080","","3767","80.82","img/117/2.5/0.66667/bw/001.png","","","complex"
"","","","","","animation","55","663157","0.0-55.0","1920x1080","","4647.299999999814","57.54","img/117/5.5/1.5/bw/001.png","","","complex"
"","","","","","animation","56","668396","0.0-56.0","1920x1080","","5240.9000000003725","60.32","img/117/5.5/0.5/bw/001.png","","","complex"
"","","","","","animation","57","677242","0.0-57.0","1920x1080","","8845.299999999814","72.62","img/117/2.5/2/bw/001.png","","","complex"
"","","","","","animation","58","679834","0.0-58.0","1920x1080","","2590.600000000093","81.48","img/314/2.5/0.66667/bw/001.png","","","complex"
"","","","","","animation","59","684458","0.0-59.0","1920x1080","","4623.200000000186","87.57","img/117/4/1.5/bw/001.png","","","complex"
"","","","","","animation","60","689547","0.0-60.0","1920x1080","","5087.5999999996275","87.30","img/314/4.5/0.5/bw/001.png","","","complex"
"","","","","","animation","61","691980","0.0-61.0","1920x1080","","2432","64.55","img/314/4/1/bw/001.png","","","complex"
"","","","","","animation","62","696012","0.0-62.0","1920x1080","","4031.5999999996275","68.39","img/314/3.5/0.66667/bw/001.png","","","complex"
"","","","","","animation","63","699596","0.0-63.0","1920x1080","","3583.5","58.47","img/238/4/2/bw/001.png","","","complex"
"","","","","","animation","64","702612","0.0-64.0","1920x1080","","3015","54.10","img/314/5.5/1.5/bw/001.png","","","complex"
"","","","","","animation","65","707306","0.0-65.0","1920x1080","","4692.5999999996275","24.60","img/238/5.5/2/bw/001.png","","","complex"
"","","","","","animation","66","717098","0.0-66.0","1920x1080","","9790.399999999907","87.70","img/238/2.5/0.66667/bw/001.png","","","complex"
"","","","","","animation","67","720002","0.0-67.0","1920x1080","","2902.899999999907","71","img/314/4/1.5/bw/001.png","","","complex"
"","","","","","animation","68","724786","0.0-68.0","1920x1080","","4783.200000000186","29.76","img/314/5.5/2/bw/001.png","","","complex"
"","","","","","animation","69","728729","0.0-69.0","1920x1080","","3942.7999999998137","70.24","img/314/4.5/0.66667/bw/001.png","","","complex"
"","","","","","animation","70","743985","0.0-70.0","1920x1080","","15255","26.72","img/238/4.5/2/bw/001.png","","","complex"
"","","","","","animation","71","749873","0.0-71.0","1920x1080","","5887","48.15","img/117/4/1/bw/001.png","","","complex"
"","","","","","animation","72","761089","0.0-72.0","1920x1080","","11214.700000000186","59.79","img/238/4.5/0.5/bw/001.png","","","complex"
"","","","","","animation","73","764962","0.0-73.0","1920x1080","","3871.4000000003725","54.50","img/238/5.5/1.5/bw/001.png","","","complex"
"","","","","","animation","74","770201","0.0-74.0","1920x1080","","5238.300000000279","67.99","img/117/4.5/2/bw/001.png","","","complex"
"","","","","","animation","75","774865","0.0-75.0","1920x1080","","4662.799999999814","80.16","img/117/4/0.5/bw/001.png","","","complex"
"","","","","","animation","76","778897","0.0-76.0","1920x1080","","4030.899999999907","33.86","img/117/4.5/0.66667/bw/001.png","","","complex"
"","","","","","animation","77","782953","0.0-77.0","1920x1080","","4055.3000000002794","23.41","img/117/5.5/2/bw/001.png","","","complex"
"","","","","","animation","78","798015","0.0-78.0","1920x1080","","15062.899999999907","67","img/117/3.5/1.5/bw/001.png","","","complex"
"","","","","","animation","79","802055","0.0-79.0","1920x1080","","4039.399999999907","64.68","img/238/4.5/1.5/bw/001.png","","","complex"
"","","","","","animation","80","813031","0.0-80.0","1920x1080","","10974.80000000028","58.47","img/238/4/0.5/bw/001.png","","","complex"
"","","","","","animation","81","820726","0.0-81.0","1920x1080","","7694.4000000003725","47.22","img/314/5.5/0.5/bw/001.png","","","complex"
"","","","","","html-button-response","82","840311","0.0-82.0","1920x1080","","19583.100000000093","","<div class=""intro"">You are about to view a new series of animations.<br><br></div><div class=""intro"">You will evaluate them based on a different descriptor.<br><br></div><div class=""intro"">Move the slider to indicate how <strong style=""text-transform:capitalize"">INTERESTING</strong> you find each animation.<br><br></div><div class=""intro"">0 = Least Interesting<br></div><div class=""intro"">1 = Most Interesting<br><br></div><div class=""intro"">Remember to use the <strong><em>entire range</em></strong> of the slider to make your ratings.<br></div><div class=""intro"">Please <strong><em>take your time</em></strong> and carefully consider each rating you make.<br><br></div>","0","",""
"","","","","","call-function","83","840312","0.0-83.0","1920x1080","","","","","","",""
"","","","","","animation","84","846618","0.0-84.0","1920x1080","","6295.799999999814","30.16","img/314/4.5/1.5/bw/001.png","","","interesting"
"","","","","","animation","85","853480","0.0-85.0","1920x1080","","6861.200000000186","56.61","img/238/4.5/1/bw/001.png","","","interesting"
"","","","","","animation","86","858880","0.0-86.0","1920x1080","","5398.9000000003725","21.30","img/314/2.5/1.5/bw/001.png","","","interesting"
"","","","","","animation","87","862351","0.0-87.0","1920x1080","","3470.4000000003725","10.45","img/117/2.5/0.66667/bw/001.png","","","interesting"
"","","","","","animation","88","864736","0.0-88.0","1920x1080","","2384.2999999998137","35.45","img/117/3.5/0.66667/bw/001.png","","","interesting"
"","","","","","animation","89","867055","0.0-89.0","1920x1080","","2318.100000000093","44.97","img/117/4/0.66667/bw/001.png","","","interesting"
"","","","","","animation","90","871496","0.0-90.0","1920x1080","","4439.300000000279","45.77","img/314/3.5/0.5/bw/001.png","","","interesting"
"","","","","","animation","91","876687","0.0-91.0","1920x1080","","5191","54.76","img/314/4.5/0.5/bw/001.png","","","interesting"
"","","","","","animation","92","880535","0.0-92.0","1920x1080","","3846.7000000001863","68.25","img/117/5.5/0.5/bw/001.png","","","interesting"
"","","","","","animation","93","884767","0.0-93.0","1920x1080","","4231.100000000093","78.97","img/238/4.5/2/bw/001.png","","","interesting"
"","","","","","animation","94","892369","0.0-94.0","1920x1080","","7600.399999999907","82.01","img/117/4/2/bw/001.png","","","interesting"
"","","","","","animation","95","895903","0.0-95.0","1920x1080","","3533.3000000002794","11.64","img/238/2.5/1/bw/001.png","","","interesting"
"","","","","","animation","96","900744","0.0-96.0","1920x1080","","4839.399999999907","27.78","img/314/3.5/2/bw/001.png","","","interesting"
"","","","","","animation","97","904824","0.0-97.0","1920x1080","","4079","88.89","img/314/5.5/1/bw/001.png","","","interesting"
"","","","","","animation","98","910093","0.0-98.0","1920x1080","","5271","69.05","img/117/3.5/2/bw/001.png","","","interesting"
"","","","","","animation","99","913805","0.0-99.0","1920x1080","","3710.899999999907","37.43","img/238/2.5/1.5/bw/001.png","","","interesting"
"","","","","","animation","100","917789","0.0-100.0","1920x1080","","3982.899999999907","82.28","img/238/5.5/2/bw/001.png","","","interesting"
"","","","","","animation","101","927100","0.0-101.0","1920x1080","","9310.5","69","img/314/4/1/bw/001.png","","","interesting"
"","","","","","animation","102","933848","0.0-102.0","1920x1080","","6747.200000000186","42.72","img/314/5.5/2/bw/001.png","","","interesting"
"","","","","","animation","103","940789","0.0-103.0","1920x1080","","6939","46.43","img/314/4/2/bw/001.png","","","interesting"
"","","","","","animation","104","947957","0.0-104.0","1920x1080","","7167","24.87","img/238/5.5/0.66667/bw/001.png","","","interesting"
"","","","","","animation","105","953181","0.0-105.0","1920x1080","","5223.5","41.01","img/117/4.5/1/bw/001.png","","","interesting"
"","","","","","animation","106","971115","0.0-106.0","1920x1080","","17934.400000000373","65.61","img/238/5.5/1.5/bw/001.png","","","interesting"
"","","","","","animation","107","978691","0.0-107.0","1920x1080","","7575.4000000003725","66.80","img/314/5.5/0.5/bw/001.png","","","interesting"
"","","","","","animation","108","985491","0.0-108.0","1920x1080","","6798.800000000279","79.10","img/238/4.5/0.66667/bw/001.png","","","interesting"
"","","","","","animation","109","988879","0.0-109.0","1920x1080","","3386.7999999998137","74.34","img/238/4/1.5/bw/001.png","","","interesting"
"","","","","","animation","110","1012939","0.0-110.0","1920x1080","","24059.200000000186","24.74","img/314/5.5/0.66667/bw/001.png","","","interesting"
"","","","","","animation","111","1016523","0.0-111.0","1920x1080","","3582.600000000093","81.75","img/238/3.5/0.66667/bw/001.png","","","interesting"
"","","","","","animation","112","1020029","0.0-112.0","1920x1080","","3505.600000000093","72.09","img/314/4/1.5/bw/001.png","","","interesting"
"","","","","","animation","113","1024707","0.0-113.0","1920x1080","","4676.5","40.48","img/238/3.5/1/bw/001.png","","","interesting"
"","","","","","animation","114","1027845","0.0-114.0","1920x1080","","3137.899999999907","57.67","img/238/3.5/0.5/bw/001.png","","","interesting"
"","","","","","animation","115","1041465","0.0-115.0","1920x1080","","13619.399999999907","30.95","img/238/5.5/0.5/bw/001.png","","","interesting"
"","","","","","animation","116","1050833","0.0-116.0","1920x1080","","9366.799999999814","60.19","img/314/3.5/0.66667/bw/001.png","","","interesting"
"","","","","","animation","117","1056945","0.0-117.0","1920x1080","","6110.600000000093","99","img/314/2.5/1/bw/001.png","","","interesting"
"","","","","","animation","118","1072394","0.0-118.0","1920x1080","","15447.700000000186","67.33","img/117/4/1.5/bw/001.png","","","interesting"
"","","","","","animation","119","1084377","0.0-119.0","1920x1080","","11981.400000000373","75.13","img/238/4/0.66667/bw/001.png","","","interesting"
"","","","","","animation","120","1112974","0.0-120.0","1920x1080","","28591.5","34.26","img/117/2.5/2/bw/001.png","","","interesting"
"","","","","","animation","121","1121215","0.0-121.0","1920x1080","","8239.599999999627","47.22","img/314/4.5/1/bw/001.png","","","interesting"
"","","","","","animation","122","1134134","0.0-122.0","1920x1080","","12918","55.82","img/314/2.5/0.66667/bw/001.png","","","interesting"
"","","","","","animation","123","1140150","0.0-123.0","1920x1080","","6014.600000000559","59.52","img/314/3.5/1.5/bw/001.png","","","interesting"
"","","","","","animation","124","1144915","0.0-124.0","1920x1080","","4764","59.66","img/314/3.5/1/bw/001.png","","","interesting"
"","","","","","animation","125","1150514","0.0-125.0","1920x1080","","5598.0999999996275","69.84","img/117/4.5/0.5/bw/001.png","","","interesting"
"","","","","","animation","126","1159914","0.0-126.0","1920x1080","","9399.099999999627","62.96","img/238/4/0.5/bw/001.png","","","interesting"
"","","","","","animation","127","1167214","0.0-127.0","1920x1080","","7299.5","19.58","img/117/5.5/0.66667/bw/001.png","","","interesting"
"","","","","","animation","128","1170622","0.0-128.0","1920x1080","","3407","77.91","img/117/4/0.5/bw/001.png","","","interesting"
"","","","","","animation","129","1174558","0.0-129.0","1920x1080","","3934.5","36.38","img/117/4.5/2/bw/001.png","","","interesting"
"","","","","","animation","130","1183482","0.0-130.0","1920x1080","","8923.399999999441","3.31","img/238/5.5/1/bw/001.png","","","interesting"
"","","","","","animation","131","1188526","0.0-131.0","1920x1080","","5042.600000000559","44.71","img/117/3.5/0.5/bw/001.png","","","interesting"
"","","","","","animation","132","1191686","0.0-132.0","1920x1080","","3158.7999999998137","33.33","img/314/5.5/1.5/bw/001.png","","","interesting"
"","","","","","animation","133","1207519","0.0-133.0","1920x1080","","15828.299999999814","9.66","img/117/2.5/1/bw/001.png","","","interesting"
"","","","","","animation","134","1216268","0.0-134.0","1920x1080","","8747.700000000186","31.75","img/117/3.5/1/bw/001.png","","","interesting"
"","","","","","animation","135","1220884","0.0-135.0","1920x1080","","4614.799999999814","18.52","img/117/4.5/0.66667/bw/001.png","","","interesting"
"","","","","","animation","136","1224505","0.0-136.0","1920x1080","","3620","40.61","img/117/3.5/1.5/bw/001.png","","","interesting"
"","","","","","animation","137","1231489","0.0-137.0","1920x1080","","6982.5","32.67","img/314/4/0.5/bw/001.png","","","interesting"
"","","","","","animation","138","1235161","0.0-138.0","1920x1080","","3671.5","57.67","img/117/2.5/0.5/bw/001.png","","","interesting"
"","","","","","animation","139","1240337","0.0-139.0","1920x1080","","5174.299999999814","57.41","img/314/4.5/2/bw/001.png","","","interesting"
"","","","","","animation","140","1243857","0.0-140.0","1920x1080","","3519.2000000001863","54.23","img/117/2.5/1.5/bw/001.png","","","interesting"
"","","","","","animation","141","1254009","0.0-141.0","1920x1080","","10151.300000000745","65.34","img/314/4.5/0.66667/bw/001.png","","","interesting"
"","","","","","animation","142","1262919","0.0-142.0","1920x1080","","8907.900000000373","36","img/238/3.5/1.5/bw/001.png","","","interesting"
"","","","","","animation","143","1267568","0.0-143.0","1920x1080","","4648.899999999441","26.85","img/238/2.5/0.5/bw/001.png","","","interesting"
"","","","","","animation","144","1274393","0.0-144.0","1920x1080","","6823.5999999996275","39.42","img/117/5.5/1/bw/001.png","","","interesting"
"","","","","","animation","145","1279035","0.0-145.0","1920x1080","","4641.100000000559","35.98","img/314/4/0.66667/bw/001.png","","","interesting"
"","","","","","animation","146","1282744","0.0-146.0","1920x1080","","3707","41.67","img/117/4/1/bw/001.png","","","interesting"
"","","","","","animation","147","1287267","0.0-147.0","1920x1080","","4521.5999999996275","26","img/238/4/2/bw/001.png","","","interesting"
"","","","","","animation","148","1293360","0.0-148.0","1920x1080","","6092.299999999814","62.96","img/238/2.5/0.66667/bw/001.png","","","interesting"
"","","","","","animation","149","1297192","0.0-149.0","1920x1080","","3831","75.40","img/117/4.5/1.5/bw/001.png","","","interesting"
"","","","","","animation","150","1302160","0.0-150.0","1920x1080","","4966.700000000186","32.54","img/238/4.5/1.5/bw/001.png","","","interesting"
"","","","","","animation","151","1310456","0.0-151.0","1920x1080","","8294.900000000373","50.53","img/117/5.5/1.5/bw/001.png","","","interesting"
"","","","","","animation","152","1316033","0.0-152.0","1920x1080","","5575.299999999814","37.04","img/117/5.5/2/bw/001.png","","","interesting"
"","","","","","animation","153","1323704","0.0-153.0","1920x1080","","7670.699999999255","76.32","img/238/4.5/0.5/bw/001.png","","","interesting"
"","","","","","animation","154","1330859","0.0-154.0","1920x1080","","7150.9000000003725","42.06","img/238/2.5/2/bw/001.png","","","interesting"
"","","","","","animation","155","1333403","0.0-155.0","1920x1080","","2542.2999999998137","32","img/314/2.5/2/bw/001.png","","","interesting"
"","","","","","animation","156","1336219","0.0-156.0","1920x1080","","2815.2999999998137","58.07","img/238/4/1/bw/001.png","","","interesting"
"","","","","","animation","157","1339302","0.0-157.0","1920x1080","","3082.2000000001863","54.37","img/314/2.5/0.5/bw/001.png","","","interesting"
"","","","","","animation","158","1344469","0.0-158.0","1920x1080","","5165.799999999814","70.50","img/238/3.5/2/bw/001.png","","","interesting"
"","","","","","html-button-response","159","1380076","0.0-159.0","1920x1080","","35605.39999999944","","<div class=""intro"">You are about to view a new series of animations.<br><br></div><div class=""intro"">You will evaluate them based on a different descriptor.<br><br></div><div class=""intro"">Move the slider to indicate how <strong style=""text-transform:capitalize"">RELAXING</strong> you find each animation.<br><br></div><div class=""intro"">0 = Least Relaxing<br></div><div class=""intro"">1 = Most Relaxing<br><br></div><div class=""intro"">Remember to use the <strong><em>entire range</em></strong> of the slider to make your ratings.<br></div><div class=""intro"">Please <strong><em>take your time</em></strong> and carefully consider each rating you make.<br><br></div>","0","",""
"","","","","","call-function","160","1380080","0.0-160.0","1920x1080","","","","","","",""
"","","","","","animation","161","1383611","0.0-161.0","1920x1080","","3530.5","12.17","img/314/2.5/0.66667/bw/001.png","","","relaxing"
"","","","","","animation","162","1386329","0.0-162.0","1920x1080","","2710.7999999998137","40.74","img/238/4.5/0.5/bw/001.png","","","relaxing"
"","","","","","animation","163","1388577","0.0-163.0","1920x1080","","2246.7999999998137","86.51","img/238/5.5/2/bw/001.png","","","relaxing"
"","","","","","animation","164","1391649","0.0-164.0","1920x1080","","3071.399999999441","75.40","img/314/5.5/2/bw/001.png","","","relaxing"
"","","","","","animation","165","1396145","0.0-165.0","1920x1080","","4495","70.63","img/117/3.5/1.5/bw/001.png","","","relaxing"
"","","","","","animation","166","1399177","0.0-166.0","1920x1080","","3030.7000000001863","60.05","img/314/5.5/0.66667/bw/001.png","","","relaxing"
"","","","","","animation","167","1407433","0.0-167.0","1920x1080","","8255.400000000373","57.80","img/314/4/1/bw/001.png","","","relaxing"
"","","","","","animation","168","1410865","0.0-168.0","1920x1080","","3431","51.98","img/238/3.5/0.5/bw/001.png","","","relaxing"
"","","","","","animation","169","1413491","0.0-169.0","1920x1080","","2624.4000000003725","49.87","img/238/3.5/2/bw/001.png","","","relaxing"
"","","","","","animation","170","1417713","0.0-170.0","1920x1080","","4221.0999999996275","47.09","img/117/3.5/1/bw/001.png","","","relaxing"
"","","","","","animation","171","1422049","0.0-171.0","1920x1080","","4334.700000000186","82.54","img/314/5.5/1/bw/001.png","","","relaxing"
"","","","","","animation","172","1426209","0.0-172.0","1920x1080","","4158.600000000559","1.98","img/117/2.5/0.5/bw/001.png","","","relaxing"
"","","","","","animation","173","1435297","0.0-173.0","1920x1080","","9087.5","29","img/314/4/2/bw/001.png","","","relaxing"
"","","","","","animation","174","1440458","0.0-174.0","1920x1080","","5159.699999999255","37.57","img/238/4/2/bw/001.png","","","relaxing"
"","","","","","animation","175","1446602","0.0-175.0","1920x1080","","6149.5","12.30","img/117/4/2/bw/001.png","","","relaxing"
"","","","","","animation","176","1451535","0.0-176.0","1920x1080","","4930.9000000003725","27.12","img/117/3.5/2/bw/001.png","","","relaxing"
"","","","","","animation","177","1455301","0.0-177.0","1920x1080","","3765.7000000001863","20.24","img/314/4/0.66667/bw/001.png","","","relaxing"
"","","","","","animation","178","1458794","0.0-178.0","1920x1080","","3492.4000000003725","30.03","img/238/4.5/1.5/bw/001.png","","","relaxing"
"","","","","","animation","179","1464010","0.0-179.0","1920x1080","","5215","23.41","img/238/3.5/1.5/bw/001.png","","","relaxing"
"","","","","","animation","180","1468306","0.0-180.0","1920x1080","","4294.200000000186","0","img/314/2.5/1.5/bw/001.png","","","relaxing"
"","","","","","animation","181","1474306","0.0-181.0","1920x1080","","5998.700000000186","5.69","img/314/4.5/1/bw/001.png","","","relaxing"
"","","","","","animation","182","1477858","0.0-182.0","1920x1080","","3550.5999999996275","60.45","img/238/5.5/0.5/bw/001.png","","","relaxing"
"","","","","","animation","183","1483842","0.0-183.0","1920x1080","","5982.399999999441","62.30","img/238/5.5/0.66667/bw/001.png","","","relaxing"
"","","","","","animation","184","1487968","0.0-184.0","1920x1080","","4124.100000000559","51.85","img/314/3.5/0.66667/bw/001.png","","","relaxing"
"","","","","","animation","185","1491770","0.0-185.0","1920x1080","","3801.5","43.78","img/314/4/0.5/bw/001.png","","","relaxing"
"","","","","","animation","186","1495935","0.0-186.0","1920x1080","","4163.899999999441","33.99","img/117/5.5/0.5/bw/001.png","","","relaxing"
"","","","","","animation","187","1503734","0.0-187.0","1920x1080","","7797.299999999814","16.93","img/238/2.5/0.66667/bw/001.png","","","relaxing"
"","","","","","animation","188","1521837","0.0-188.0","1920x1080","","18099.299999999814","25.93","img/238/4/0.66667/bw/001.png","","","relaxing"
"","","","","","animation","189","1526893","0.0-189.0","1920x1080","","5054.5999999996275","8.73","img/314/2.5/0.5/bw/001.png","","","relaxing"
"","","","","","animation","190","1530597","0.0-190.0","1920x1080","","3703.2999999998137","5.69","img/238/2.5/0.5/bw/001.png","","","relaxing"
"","","","","","animation","191","1536925","0.0-191.0","1920x1080","","6326.4000000003725","2.78","img/117/2.5/0.66667/bw/001.png","","","relaxing"
"","","","","","animation","192","1542445","0.0-192.0","1920x1080","","5518.799999999814","5.16","img/117/2.5/1.5/bw/001.png","","","relaxing"
"","","","","","animation","193","1547471","0.0-193.0","1920x1080","","5024.700000000186","32.67","img/314/4.5/1.5/bw/001.png","","","relaxing"
"","","","","","animation","194","1551789","0.0-194.0","1920x1080","","4316.199999999255","43.12","img/117/5.5/2/bw/001.png","","","relaxing"
"","","","","","animation","195","1555737","0.0-195.0","1920x1080","","3946.699999999255","49.34","img/314/4.5/0.66667/bw/001.png","","","relaxing"
"","","","","","animation","196","1559389","0.0-196.0","1920x1080","","3650.5999999996275","52.91","img/117/5.5/0.66667/bw/001.png","","","relaxing"
"","","","","","animation","197","1563173","0.0-197.0","1920x1080","","3782.5","31.35","img/238/2.5/1/bw/001.png","","","relaxing"
"","","","","","animation","198","1566904","0.0-198.0","1920x1080","","3730.2999999998137","24.60","img/117/2.5/1/bw/001.png","","","relaxing"
"","","","","","animation","199","1571537","0.0-199.0","1920x1080","","4631.200000000186","43.25","img/238/4.5/2/bw/001.png","","","relaxing"
"","","","","","animation","200","1575970","0.0-200.0","1920x1080","","4432.0999999996275","49.74","img/117/4/1.5/bw/001.png","","","relaxing"
"","","","","","animation","201","1580629","0.0-201.0","1920x1080","","4657.5","65.87","img/238/5.5/1/bw/001.png","","","relaxing"
"","","","","","animation","202","1585157","0.0-202.0","1920x1080","","4525.700000000186","57.54","img/117/4.5/1.5/bw/001.png","","","relaxing"
"","","","","","animation","203","1589029","0.0-203.0","1920x1080","","3871.2999999998137","53","img/117/4/1/bw/001.png","","","relaxing"
"","","","","","animation","204","1595173","0.0-204.0","1920x1080","","6141.699999999255","45.90","img/238/4/1/bw/001.png","","","relaxing"
"","","","","","animation","205","1602303","0.0-205.0","1920x1080","","7129.299999999814","21","img/314/2.5/2/bw/001.png","","","relaxing"
"","","","","","animation","206","1607570","0.0-206.0","1920x1080","","5265.299999999814","20.77","img/314/4/1.5/bw/001.png","","","relaxing"
"","","","","","animation","207","1611141","0.0-207.0","1920x1080","","3569.2999999998137","13.76","img/314/3.5/1.5/bw/001.png","","","relaxing"
"","","","","","animation","208","1614787","0.0-208.0","1920x1080","","3642.2999999998137","26.32","img/117/4.5/0.66667/bw/001.png","","","relaxing"
"","","","","","animation","209","1617805","0.0-209.0","1920x1080","","3016.7999999998137","8.07","img/314/2.5/1/bw/001.png","","","relaxing"
"","","","","","animation","210","1620661","0.0-210.0","1920x1080","","2854.7000000001863","20.50","img/117/4.5/1/bw/001.png","","","relaxing"
"","","","","","animation","211","1624237","0.0-211.0","1920x1080","","3574.600000000559","17.06","img/314/3.5/0.5/bw/001.png","","","relaxing"
"","","","","","animation","212","1628802","0.0-212.0","1920x1080","","4565.200000000186","89.55","img/314/5.5/1.5/bw/001.png","","","relaxing"
"","","","","","animation","213","1631802","0.0-213.0","1920x1080","","2999","11.11","img/117/2.5/2/bw/001.png","","","relaxing"
"","","","","","animation","214","1635443","0.0-214.0","1920x1080","","3639.800000000745","45.77","img/117/4.5/2/bw/001.png","","","relaxing"
"","","","","","animation","215","1639685","0.0-215.0","1920x1080","","4240.4000000003725","39.15","img/314/3.5/2/bw/001.png","","","relaxing"
"","","","","","animation","216","1644968","0.0-216.0","1920x1080","","5282.300000000745","32.67","img/117/4/0.66667/bw/001.png","","","relaxing"
"","","","","","animation","217","1656707","0.0-217.0","1920x1080","","11737.900000000373","75","img/238/5.5/1.5/bw/001.png","","","relaxing"
"","","","","","animation","218","1662259","0.0-218.0","1920x1080","","5550.200000000186","73.68","img/314/5.5/0.5/bw/001.png","","","relaxing"
"","","","","","animation","219","1666837","0.0-219.0","1920x1080","","4576.200000000186","80.03","img/117/5.5/1.5/bw/001.png","","","relaxing"
"","","","","","animation","220","1669419","0.0-220.0","1920x1080","","2579.9000000003725","16.80","img/238/3.5/0.66667/bw/001.png","","","relaxing"
"","","","","","animation","221","1672603","0.0-221.0","1920x1080","","3183.2000000001863","21.69","img/314/3.5/1/bw/001.png","","","relaxing"
"","","","","","animation","222","1675352","0.0-222.0","1920x1080","","2747","40","img/314/4.5/2/bw/001.png","","","relaxing"
"","","","","","animation","223","1678827","0.0-223.0","1920x1080","","3474.5","26.46","img/117/4.5/0.5/bw/001.png","","","relaxing"
"","","","","","animation","224","1681702","0.0-224.0","1920x1080","","2872.9000000003725","38.10","img/238/4.5/0.66667/bw/001.png","","","relaxing"
"","","","","","animation","225","1687173","0.0-225.0","1920x1080","","5468.4000000003725","26.85","img/314/4.5/0.5/bw/001.png","","","relaxing"
"","","","","","animation","226","1691219","0.0-226.0","1920x1080","","4045.7000000001863","11.90","img/238/3.5/1/bw/001.png","","","relaxing"
"","","","","","animation","227","1714109","0.0-227.0","1920x1080","","22888.200000000186","46.69","img/117/5.5/1/bw/001.png","","","relaxing"
"","","","","","animation","228","1717109","0.0-228.0","1920x1080","","2998.7000000001863","36.64","img/117/4/0.5/bw/001.png","","","relaxing"
"","","","","","animation","229","1720203","0.0-229.0","1920x1080","","3092.7999999998137","22.75","img/238/2.5/2/bw/001.png","","","relaxing"
"","","","","","animation","230","1723061","0.0-230.0","1920x1080","","2856.7000000001863","32.67","img/238/4/1.5/bw/001.png","","","relaxing"
"","","","","","animation","231","1726153","0.0-231.0","1920x1080","","3090.9000000003725","16.80","img/117/3.5/0.5/bw/001.png","","","relaxing"
"","","","","","animation","232","1729093","0.0-232.0","1920x1080","","2938.2999999998137","40.08","img/238/4/0.5/bw/001.png","","","relaxing"
"","","","","","animation","233","1733389","0.0-233.0","1920x1080","","4294.5","41.27","img/238/4.5/1/bw/001.png","","","relaxing"
"","","","","","animation","234","1737220","0.0-234.0","1920x1080","","3830.7000000001863","7.41","img/238/2.5/1.5/bw/001.png","","","relaxing"
"","","","","","animation","235","1741436","0.0-235.0","1920x1080","","4214.800000000745","15.08","img/117/3.5/0.66667/bw/001.png","","","relaxing"
"","","","","","html-button-response","236","1772131","0.0-236.0","1920x1080","","30687.099999999627","","<div class=""intro"">You are about to view a new series of animations.<br><br></div><div class=""intro"">You will evaluate them based on a different descriptor.<br><br></div><div class=""intro"">Move the slider to indicate how <strong style=""text-transform:capitalize"">NATURAL</strong> you find each animation.<br><br></div><div class=""intro"">0 = Least Natural<br></div><div class=""intro"">1 = Most Natural<br><br></div><div class=""intro"">Remember to use the <strong><em>entire range</em></strong> of the slider to make your ratings.<br></div><div class=""intro"">Please <strong><em>take your time</em></strong> and carefully consider each rating you make.<br><br></div>","0","",""
"","","","","","call-function","237","1772135","0.0-237.0","1920x1080","","","","","","",""
"","","","","","animation","238","1775542","0.0-238.0","1920x1080","","3405.899999999441","20.90","img/238/3.5/0.66667/bw/001.png","","","natural"
"","","","","","animation","239","1778942","0.0-239.0","1920x1080","","3398.699999999255","16.53","img/314/2.5/2/bw/001.png","","","natural"
"","","","","","animation","240","1782299","0.0-240.0","1920x1080","","3355.2999999998137","70.24","img/314/4.5/1/bw/001.png","","","natural"
"","","","","","animation","241","1786826","0.0-241.0","1920x1080","","4526.4000000003725","81.48","img/117/2.5/0.66667/bw/001.png","","","natural"
"","","","","","animation","242","1791192","0.0-242.0","1920x1080","","4364.399999999441","73.02","img/314/5.5/0.5/bw/001.png","","","natural"
"","","","","","animation","243","1795892","0.0-243.0","1920x1080","","4698.199999999255","26.59","img/238/4.5/1/bw/001.png","","","natural"
"","","","","","animation","244","1802359","0.0-244.0","1920x1080","","6466.399999999441","15","img/238/4/0.66667/bw/001.png","","","natural"
"","","","","","animation","245","1810404","0.0-245.0","1920x1080","","8049.299999999814","87.96","img/117/5.5/1/bw/001.png","","","natural"
"","","","","","animation","246","1814341","0.0-246.0","1920x1080","","3935.100000000559","68.12","img/238/5.5/0.5/bw/001.png","","","natural"
"","","","","","animation","247","1823986","0.0-247.0","1920x1080","","9642","65.74","img/117/5.5/1.5/bw/001.png","","","natural"
"","","","","","animation","248","1834957","0.0-248.0","1920x1080","","10969.599999999627","11.51","img/238/5.5/1/bw/001.png","","","natural"
"","","","","","animation","249","1842861","0.0-249.0","1920x1080","","7902.700000000186","73.81","img/117/3.5/1.5/bw/001.png","","","natural"
"","","","","","animation","250","1848236","0.0-250.0","1920x1080","","5373.5999999996275","85.71","img/117/2.5/0.5/bw/001.png","","","natural"
"","","","","","animation","251","1851271","0.0-251.0","1920x1080","","3033.9000000003725","29.50","img/314/5.5/1/bw/001.png","","","natural"
"","","","","","animation","252","1859036","0.0-252.0","1920x1080","","7762.600000000559","66.01","img/314/5.5/0.66667/bw/001.png","","","natural"
"","","","","","animation","253","1863572","0.0-253.0","1920x1080","","4535.200000000186","87.70","img/314/3.5/2/bw/001.png","","","natural"
"","","","","","animation","254","1874259","0.0-254.0","1920x1080","","10678.799999999814","81.88","img/238/5.5/2/bw/001.png","","","natural"
"","","","","","animation","255","1880499","0.0-255.0","1920x1080","","6238.5","40","img/117/2.5/1.5/bw/001.png","","","natural"
"","","","","","animation","256","1902859","0.0-256.0","1920x1080","","22358","65.48","img/314/3.5/1/bw/001.png","","","natural"
"","","","","","animation","257","1908995","0.0-257.0","1920x1080","","6134.5999999996275","98","img/314/5.5/2/bw/001.png","","","natural"
"","","","","","animation","258","1912715","0.0-258.0","1920x1080","","3718.5","74.87","img/117/3.5/2/bw/001.png","","","natural"
"","","","","","animation","259","1916759","0.0-259.0","1920x1080","","4042.2999999998137","72.62","img/238/3.5/1.5/bw/001.png","","","natural"
"","","","","","animation","260","1920776","0.0-260.0","1920x1080","","4015.4000000003725","97","img/314/2.5/1/bw/001.png","","","natural"
"","","","","","animation","261","1933717","0.0-261.0","1920x1080","","12939.899999999441","29.89","img/238/3.5/2/bw/001.png","","","natural"
"","","","","","animation","262","1967594","0.0-262.0","1920x1080","","33844.10000000056","37.30","img/314/4/0.5/bw/001.png","","","natural"
"","","","","","animation","263","1977925","0.0-263.0","1920x1080","","10329.200000000186","72","img/314/4.5/0.5/bw/001.png","","","natural"
"","","","","","animation","264","1981924","0.0-264.0","1920x1080","","3997.5999999996275","64.95","img/314/3.5/0.66667/bw/001.png","","","natural"
"","","","","","animation","265","1985285","0.0-265.0","1920x1080","","3366","89.55","img/314/3.5/1.5/bw/001.png","","","natural"
"","","","","","animation","266","1990569","0.0-266.0","1920x1080","","5282","64.42","img/117/5.5/2/bw/001.png","","","natural"
"","","","","","animation","267","1994789","0.0-267.0","1920x1080","","4219","24.74","img/238/4.5/1.5/bw/001.png","","","natural"
"","","","","","animation","268","1999789","0.0-268.0","1920x1080","","4998.4000000003725","8.33","img/238/4.5/0.5/bw/001.png","","","natural"
"","","","","","animation","269","2003402","0.0-269.0","1920x1080","","3611.9000000003725","3.57","img/314/2.5/1.5/bw/001.png","","","natural"
"","","","","","animation","270","2115742","0.0-270.0","1920x1080","","112337.09999999963","37.43","img/117/3.5/0.66667/bw/001.png","","","natural"
"","","","","","animation","271","2119804","0.0-271.0","1920x1080","","4061","27.65","img/238/3.5/0.5/bw/001.png","","","natural"
"","","","","","animation","272","2124005","0.0-272.0","1920x1080","","4199.9000000003725","81.22","img/238/5.5/0.66667/bw/001.png","","","natural"
"","","","","","animation","273","2130185","0.0-273.0","1920x1080","","6178.4000000003725","39.95","img/238/3.5/1/bw/001.png","","","natural"
"","","","","","animation","274","2134185","0.0-274.0","1920x1080","","3998.9000000003725","45.24","img/314/4/1/bw/001.png","","","natural"
"","","","","","animation","275","2137653","0.0-275.0","1920x1080","","3466.5","61.90","img/238/4.5/2/bw/001.png","","","natural"
"","","","","","animation","276","2144752","0.0-276.0","1920x1080","","7097.5","36","img/238/4/0.5/bw/001.png","","","natural"
"","","","","","animation","277","2152935","0.0-277.0","1920x1080","","8182","67.86","img/314/4.5/0.66667/bw/001.png","","","natural"
"","","","","","animation","278","2157068","0.0-278.0","1920x1080","","4131.5","8.47","img/238/2.5/0.5/bw/001.png","","","natural"
"","","","","","animation","279","2160509","0.0-279.0","1920x1080","","3439.600000000559","27.65","img/117/4/0.66667/bw/001.png","","","natural"
"","","","","","animation","280","2166867","0.0-280.0","1920x1080","","6357.700000000186","72.75","img/314/4.5/1.5/bw/001.png","","","natural"
"","","","","","animation","281","2173767","0.0-281.0","1920x1080","","6897.5999999996275","54","img/117/4.5/1.5/bw/001.png","","","natural"
"","","","","","animation","282","2198940","0.0-282.0","1920x1080","","25171.5","92.59","img/238/2.5/0.66667/bw/001.png","","","natural"
"","","","","","animation","283","2204867","0.0-283.0","1920x1080","","5925.899999999441","99","img/238/5.5/1.5/bw/001.png","","","natural"
"","","","","","animation","284","2208067","0.0-284.0","1920x1080","","3197.7000000001863","60.45","img/314/4/0.66667/bw/001.png","","","natural"
"","","","","","animation","285","2212284","0.0-285.0","1920x1080","","4215.5","82.01","img/238/2.5/2/bw/001.png","","","natural"
"","","","","","animation","286","2217634","0.0-286.0","1920x1080","","5348.100000000559","81.75","img/238/2.5/1.5/bw/001.png","","","natural"
"","","","","","animation","287","2221900","0.0-287.0","1920x1080","","4265.100000000559","70.37","img/117/4/1.5/bw/001.png","","","natural"
"","","","","","animation","288","2224839","0.0-288.0","1920x1080","","2937.5","78.44","img/117/5.5/0.66667/bw/001.png","","","natural"
"","","","","","animation","289","2229204","0.0-289.0","1920x1080","","4363.299999999814","71.69","img/117/5.5/0.5/bw/001.png","","","natural"
"","","","","","animation","290","2236333","0.0-290.0","1920x1080","","7127.0999999996275","15.21","img/117/4/1/bw/001.png","","","natural"
"","","","","","animation","291","2241317","0.0-291.0","1920x1080","","4980.9000000003725","94.58","img/314/5.5/1.5/bw/001.png","","","natural"
"","","","","","animation","292","2245636","0.0-292.0","1920x1080","","4317.9000000003725","36.24","img/117/4.5/0.5/bw/001.png","","","natural"
"","","","","","animation","293","2248900","0.0-293.0","1920x1080","","3261.100000000559","29.63","img/117/3.5/1/bw/001.png","","","natural"
"","","","","","animation","294","2252725","0.0-294.0","1920x1080","","3822.7999999998137","36.64","img/117/4.5/0.66667/bw/001.png","","","natural"
"","","","","","animation","295","2263436","0.0-295.0","1920x1080","","10710.099999999627","21.30","img/238/4/2/bw/001.png","","","natural"
"","","","","","animation","296","2266884","0.0-296.0","1920x1080","","3446.2000000001863","14.68","img/314/4/2/bw/001.png","","","natural"
"","","","","","animation","297","2271984","0.0-297.0","1920x1080","","5097.899999999441","7.14","img/117/3.5/0.5/bw/001.png","","","natural"
"","","","","","animation","298","2275967","0.0-298.0","1920x1080","","3981.600000000559","29.50","img/314/2.5/0.5/bw/001.png","","","natural"
"","","","","","animation","299","2280467","0.0-299.0","1920x1080","","4498.5","29.50","img/314/4.5/2/bw/001.png","","","natural"
"","","","","","animation","300","2284572","0.0-300.0","1920x1080","","4104.100000000559","45.37","img/238/4/1/bw/001.png","","","natural"
"","","","","","animation","301","2289647","0.0-301.0","1920x1080","","5062.0999999996275","15.74","img/117/4/2/bw/001.png","","","natural"
"","","","","","animation","302","2296244","0.0-302.0","1920x1080","","6595.899999999441","75.93","img/238/2.5/1/bw/001.png","","","natural"
"","","","","","animation","303","2299761","0.0-303.0","1920x1080","","3513.9000000003725","67.99","img/117/4.5/2/bw/001.png","","","natural"
"","","","","","animation","304","2303361","0.0-304.0","1920x1080","","3599.2000000001863","65.61","img/117/2.5/2/bw/001.png","","","natural"
"","","","","","animation","305","2330799","0.0-305.0","1920x1080","","27436.39999999944","55.56","img/117/4/0.5/bw/001.png","","","natural"
"","","","","","animation","306","2336599","0.0-306.0","1920x1080","","5798.200000000186","34.39","img/314/4/1.5/bw/001.png","","","natural"
"","","","","","animation","307","2341079","0.0-307.0","1920x1080","","4477.9000000003725","76.72","img/314/2.5/0.66667/bw/001.png","","","natural"
"","","","","","animation","308","2353585","0.0-308.0","1920x1080","","12513.600000000559","26.72","img/238/4/1.5/bw/001.png","","","natural"
"","","","","","animation","309","2358143","0.0-309.0","1920x1080","","4555.800000000745","63","img/238/4.5/0.66667/bw/001.png","","","natural"
"","","","","","animation","310","2361919","0.0-310.0","1920x1080","","3775","40.34","img/314/3.5/0.5/bw/001.png","","","natural"
"","","","","","animation","311","2368119","0.0-311.0","1920x1080","","6198.700000000186","82.94","img/117/2.5/1/bw/001.png","","","natural"
"","","","","","animation","312","2371475","0.0-312.0","1920x1080","","3354.2000000001863","15.21","img/117/4.5/1/bw/001.png","","","natural"
"","","","","","html-button-response","313","2395502","0.0-313.0","1920x1080","","24025.799999999814","","<div class=""intro"">You are about to view a new series of animations.<br><br></div><div class=""intro"">You will evaluate them based on a different descriptor.<br><br></div><div class=""intro"">Move the slider to indicate how <strong style=""text-transform:capitalize"">APPEALING</strong> you find each animation.<br><br></div><div class=""intro"">0 = Least Appealing<br></div><div class=""intro"">1 = Most Appealing<br><br></div><div class=""intro"">Remember to use the <strong><em>entire range</em></strong> of the slider to make your ratings.<br></div><div class=""intro"">Please <strong><em>take your time</em></strong> and carefully consider each rating you make.<br><br></div>","0","",""
"","","","","","call-function","314","2395506","0.0-314.0","1920x1080","","","","","","",""
"","","","","","animation","315","2401335","0.0-315.0","1920x1080","","5829.299999999814","33.07","img/117/3.5/0.5/bw/001.png","","","appealing"
"","","","","","animation","316","2405215","0.0-316.0","1920x1080","","3881.800000000745","24.74","img/238/4.5/0.5/bw/001.png","","","appealing"
"","","","","","animation","317","2409465","0.0-317.0","1920x1080","","4249","13.49","img/117/2.5/0.5/bw/001.png","","","appealing"
"","","","","","animation","318","2412219","0.0-318.0","1920x1080","","2753","76.98","img/117/5.5/0.5/bw/001.png","","","appealing"
"","","","","","animation","319","2417003","0.0-319.0","1920x1080","","4781.9000000003725","67.46","img/238/4.5/1.5/bw/001.png","","","appealing"
"","","","","","animation","320","2419986","0.0-320.0","1920x1080","","2981.9000000003725","32.80","img/314/3.5/0.5/bw/001.png","","","appealing"
"","","","","","animation","321","2423253","0.0-321.0","1920x1080","","3265.2999999998137","52.51","img/314/5.5/1/bw/001.png","","","appealing"
"","","","","","animation","322","2429149","0.0-322.0","1920x1080","","5894.200000000186","26.06","img/314/5.5/1.5/bw/001.png","","","appealing"
"","","","","","animation","323","2440542","0.0-323.0","1920x1080","","11391.799999999814","43.12","img/238/4/1/bw/001.png","","","appealing"
"","","","","","animation","324","2445749","0.0-324.0","1920x1080","","5204.699999999255","16.27","img/117/2.5/1.5/bw/001.png","","","appealing"
"","","","","","animation","325","2448755","0.0-325.0","1920x1080","","3004.699999999255","13.76","img/314/2.5/1.5/bw/001.png","","","appealing"
"","","","","","animation","326","2452457","0.0-326.0","1920x1080","","3699.5","21.43","img/117/4/2/bw/001.png","","","appealing"
"","","","","","animation","327","2455651","0.0-327.0","1920x1080","","3192.600000000559","29.76","img/314/3.5/1/bw/001.png","","","appealing"
"","","","","","animation","328","2458730","0.0-328.0","1920x1080","","3077.5999999996275","38.76","img/314/4/0.5/bw/001.png","","","appealing"
"","","","","","animation","329","2463515","0.0-329.0","1920x1080","","4784.299999999814","6.35","img/238/2.5/0.5/bw/001.png","","","appealing"
"","","","","","animation","330","2466185","0.0-330.0","1920x1080","","2664.899999999441","22.09","img/117/5.5/1.5/bw/001.png","","","appealing"
"","","","","","animation","331","2469269","0.0-331.0","1920x1080","","3082.5999999996275","82.80","img/238/5.5/0.66667/bw/001.png","","","appealing"
"","","","","","animation","332","2471438","0.0-332.0","1920x1080","","2168","15.08","img/117/2.5/1/bw/001.png","","","appealing"
"","","","","","animation","333","2473686","0.0-333.0","1920x1080","","2246.800000000745","53.97","img/314/4/2/bw/001.png","","","appealing"
"","","","","","animation","334","2476763","0.0-334.0","1920x1080","","3075.300000000745","37.43","img/238/4.5/0.66667/bw/001.png","","","appealing"
"","","","","","animation","335","2481508","0.0-335.0","1920x1080","","4743.5999999996275","63.49","img/238/4/0.66667/bw/001.png","","","appealing"
"","","","","","animation","336","2483885","0.0-336.0","1920x1080","","2374.600000000559","35.85","img/314/4.5/0.66667/bw/001.png","","","appealing"
"","","","","","animation","337","2487908","0.0-337.0","1920x1080","","4021.5","22.09","img/238/4/1.5/bw/001.png","","","appealing"
"","","","","","animation","338","2498697","0.0-338.0","1920x1080","","10787.699999999255","28.44","img/314/4.5/2/bw/001.png","","","appealing"
"","","","","","animation","339","2501485","0.0-339.0","1920x1080","","2787","12.70","img/238/3.5/0.66667/bw/001.png","","","appealing"
"","","","","","animation","340","2504969","0.0-340.0","1920x1080","","3482.0999999996275","4","img/314/2.5/0.66667/bw/001.png","","","appealing"
"","","","","","animation","341","2507238","0.0-341.0","1920x1080","","2268","34.13","img/238/3.5/1/bw/001.png","","","appealing"
"","","","","","animation","342","2509609","0.0-342.0","1920x1080","","2369.0999999996275","42.20","img/238/4/2/bw/001.png","","","appealing"
"","","","","","animation","343","2512235","0.0-343.0","1920x1080","","2625","28.70","img/314/3.5/0.66667/bw/001.png","","","appealing"
"","","","","","animation","344","2518252","0.0-344.0","1920x1080","","6015.700000000186","89","img/238/5.5/1.5/bw/001.png","","","appealing"
"","","","","","animation","345","2521975","0.0-345.0","1920x1080","","3720.7000000001863","66.93","img/314/4.5/1.5/bw/001.png","","","appealing"
"","","","","","animation","346","2524407","0.0-346.0","1920x1080","","2430.5","35.05","img/117/3.5/0.66667/bw/001.png","","","appealing"
"","","","","","animation","347","2528401","0.0-347.0","1920x1080","","3993.7000000001863","44.05","img/314/3.5/2/bw/001.png","","","appealing"
"","","","","","animation","348","2532637","0.0-348.0","1920x1080","","4235.4000000003725","91.67","img/314/5.5/0.66667/bw/001.png","","","appealing"
"","","","","","animation","349","2536088","0.0-349.0","1920x1080","","3449.300000000745","64.95","img/117/4/0.5/bw/001.png","","","appealing"
"","","","","","animation","350","2540161","0.0-350.0","1920x1080","","4070.399999999441","44.58","img/314/3.5/1.5/bw/001.png","","","appealing"
"","","","","","animation","351","2542884","0.0-351.0","1920x1080","","2722.0999999996275","36.38","img/238/4/0.5/bw/001.png","","","appealing"
"","","","","","animation","352","2545134","0.0-352.0","1920x1080","","2248.600000000559","41.80","img/117/3.5/1.5/bw/001.png","","","appealing"
"","","","","","animation","353","2548335","0.0-353.0","1920x1080","","3199.2000000001863","59.52","img/117/4/0.66667/bw/001.png","","","appealing"
"","","","","","animation","354","2551684","0.0-354.0","1920x1080","","3348.0999999996275","58.47","img/117/4/1/bw/001.png","","","appealing"
"","","","","","animation","355","2553989","0.0-355.0","1920x1080","","2303.9000000003725","32.54","img/117/4/1.5/bw/001.png","","","appealing"
"","","","","","animation","356","2556592","0.0-356.0","1920x1080","","2601.0999999996275","13.76","img/238/2.5/0.66667/bw/001.png","","","appealing"
"","","","","","animation","357","2559335","0.0-357.0","1920x1080","","2741.5","79.23","img/238/5.5/0.5/bw/001.png","","","appealing"
"","","","","","animation","358","2564084","0.0-358.0","1920x1080","","4748.100000000559","6.75","img/314/2.5/1/bw/001.png","","","appealing"
"","","","","","animation","359","2567000","0.0-359.0","1920x1080","","2914.5999999996275","19.18","img/117/4.5/2/bw/001.png","","","appealing"
"","","","","","animation","360","2570051","0.0-360.0","1920x1080","","3048.7000000001863","30.42","img/314/5.5/2/bw/001.png","","","appealing"
"","","","","","animation","361","2572821","0.0-361.0","1920x1080","","2769","43.12","img/117/2.5/0.66667/bw/001.png","","","appealing"
"","","","","","animation","362","2576053","0.0-362.0","1920x1080","","3230.7000000001863","76.72","img/117/5.5/2/bw/001.png","","","appealing"
"","","","","","animation","363","2579217","0.0-363.0","1920x1080","","3162.5999999996275","24.60","img/117/3.5/1/bw/001.png","","","appealing"
"","","","","","animation","364","2651394","0.0-364.0","1920x1080","","72164.89999999944","30.42","img/314/4.5/1/bw/001.png","","","appealing"
"","","","","","animation","365","2654880","0.0-365.0","1920x1080","","3483.199999999255","18.92","img/314/2.5/0.5/bw/001.png","","","appealing"
"","","","","","animation","366","2663760","0.0-366.0","1920x1080","","8878.800000000745","34.26","img/117/4.5/0.5/bw/001.png","","","appealing"
"","","","","","animation","367","2672361","0.0-367.0","1920x1080","","8598.700000000186","35.98","img/117/4.5/1.5/bw/001.png","","","appealing"
"","","","","","animation","368","2677811","0.0-368.0","1920x1080","","5448.200000000186","36.64","img/117/5.5/0.66667/bw/001.png","","","appealing"
"","","","","","animation","369","2683560","0.0-369.0","1920x1080","","5748.5","27.91","img/238/3.5/0.5/bw/001.png","","","appealing"
"","","","","","animation","370","2688569","0.0-370.0","1920x1080","","5007.0999999996275","28.97","img/117/4.5/1/bw/001.png","","","appealing"
"","","","","","animation","371","2693277","0.0-371.0","1920x1080","","4706.5999999996275","31.22","img/314/4/1/bw/001.png","","","appealing"
"","","","","","animation","372","2697647","0.0-372.0","1920x1080","","4368.5999999996275","9.39","img/314/2.5/2/bw/001.png","","","appealing"
"","","","","","animation","373","2707567","0.0-373.0","1920x1080","","9928.199999999255","75.93","img/314/5.5/0.5/bw/001.png","","","appealing"
"","","","","","animation","374","2715008","0.0-374.0","1920x1080","","7439.200000000186","87.83","img/238/3.5/1.5/bw/001.png","","","appealing"
"","","","","","animation","375","2720778","0.0-375.0","1920x1080","","5767.5","37.17","img/117/4.5/0.66667/bw/001.png","","","appealing"
"","","","","","animation","376","2725120","0.0-376.0","1920x1080","","4340.700000000186","10.85","img/238/2.5/2/bw/001.png","","","appealing"
"","","","","","animation","377","2737350","0.0-377.0","1920x1080","","12228.700000000186","36.11","img/238/4.5/1/bw/001.png","","","appealing"
"","","","","","animation","378","2795272","0.0-378.0","1920x1080","","57910.5","70.77","img/314/4.5/0.5/bw/001.png","","","appealing"
"","","","","","animation","379","2799916","0.0-379.0","1920x1080","","4642","92","img/238/5.5/1/bw/001.png","","","appealing"
"","","","","","animation","380","2803794","0.0-380.0","1920x1080","","3875.7000000001863","5.95","img/238/2.5/1/bw/001.png","","","appealing"
"","","","","","animation","381","2812397","0.0-381.0","1920x1080","","8601.600000000559","47.49","img/314/4/1.5/bw/001.png","","","appealing"
"","","","","","animation","382","2819635","0.0-382.0","1920x1080","","7235.700000000186","68.39","img/238/2.5/1.5/bw/001.png","","","appealing"
"","","","","","animation","383","2824612","0.0-383.0","1920x1080","","4974.5","61.38","img/314/4/0.66667/bw/001.png","","","appealing"
"","","","","","animation","384","2832811","0.0-384.0","1920x1080","","8197.200000000186","82","img/117/5.5/1/bw/001.png","","","appealing"
"","","","","","animation","385","2839553","0.0-385.0","1920x1080","","6740.0999999996275","81.48","img/238/4.5/2/bw/001.png","","","appealing"
"","","","","","animation","386","2885349","0.0-386.0","1920x1080","","45805.5","69.58","img/238/3.5/2/bw/001.png","","","appealing"
"","","","","","animation","387","2888366","0.0-387.0","1920x1080","","3014.9000000003725","75.93","img/238/5.5/2/bw/001.png","","","appealing"
"","","","","","animation","388","2892037","0.0-388.0","1920x1080","","3669.399999999441","29.89","img/117/3.5/2/bw/001.png","","","appealing"
"","","","","","animation","389","2895354","0.0-389.0","1920x1080","","3314.9000000003725","24.47","img/117/2.5/2/bw/001.png","","","appealing"
"","","","","","html-button-response","390","3149480","0.0-390.0","1920x1080","","254112.90000000037","","<strong>Study Debriefing</strong><br><p class=""debrief""><strong>Background:</strong> The patterns you rated are called <em>fractals</em>. The term fractal describes a class of irregular curves or shapes for which any suitably chosen part is similar in shape to a given larger or smaller part when magnified or reduced to the same size. Fractal properties are found throughout the natural and manmade world. The series of animations you saw today displayed animated fractal patterns of a varying complexity.</p><p class=""debrief""><strong>Purpose of this study:</strong> We hope to better understand how the perception of static fractals differs from the perception of animated fractals, and how the speed of the animated patterns influences people&apos;s perception of them. Fractals allow us to study the perception of aesthetic properties (e.g. the perceived level of beauty in an image) without using recognizable content, which makes them an excellent tool for studying abstract aesthetic judgement.</p><p class=""debrief""><strong>Your part:</strong> Your participation has helped us to further understand how humans perceive these patterns across different levels of speed and complexity. This research with allow us to better understand how the visual system and brain process our ever-changing visual environments.<p class=""debrief""><strong>Feedback and Further information:</strong> If you have additional questions about this study, please feel free to ask the researcher, Nathan Gonzales-Hess at nhess @ uoregon.edu. If you have any questions concerning your rights as a research participant, please contact Research Compliance Services, 5237 University of Oregon, Eugene, OR 97403, 541-346-2510, or email researchCompliance @ uoregon.edu. You can also email the Human Subjects Coordinator for psychology and linguistics research at hscoord @ uoregon.edu. ","0","",""
"","","","","","html-button-response","391","3154425","0.0-391.0","1920x1080","","4940.699999999255","","Thank you for participating in this study. <br>Please click below to finish the experiment and submit your responses.<br><br>","0","",""
"true","","","","","fullscreen","392","3155434","0.0-392.0","1920x1080","11:25 21/10/2022","","","","","",""
