"success","timeout","failed_images","failed_audio","failed_video","trial_type","trial_index","time_elapsed","internal_node_id","resolution","timeStamp","rt","response","stimulus","button_pressed","value","descriptor"
"true","false","[]","[]","[]","preload","0","16011","0.0-0.0","1920x1080","","","","","","",""
"true","false","[]","[]","[]","preload","1","34368","0.0-1.0","1920x1080","","","","","","",""
"true","false","[]","[]","[]","preload","2","52807","0.0-2.0","1920x1080","","","","","","",""
"true","","","","","fullscreen","3","71122","0.0-3.0","1920x1080","12:51 10/10/2022","","","","","",""
"","","","","","survey-html-form","4","83994","0.0-4.0","1920x1080","","12868.899999976158","{""age"":""19"",""gender"":""Female""}","","","",""
"","","","","","html-button-response","5","123122","0.0-5.0","1920x1080","","39126.90000003576","","<div class=""complex"">You are going to see a series of animations.<br><br></div><div class=""complex"">Move the slider to indicate how <strong style=""text-transform:capitalize"">COMPLEX</strong> you find each animation.<br><br></div><div class=""complex"">0 = Least Complex<br></div><div class=""complex"">1 = Most Complex<br><br></div><div class=""complex"">Remember to use the <strong><em>entire range</em></strong> of the slider to make your ratings.<br></div><div class=""complex"">Please <strong><em>take your time</em></strong> and carefully consider each rating you make.<br><br></div><div class=""complex"">The study has five sections and will take about 45 minutes to complete.<br><br></div>","0","",""
"","","","","","call-function","6","123122","0.0-6.0","1920x1080","","","","","","",""
"","","","","","animation","7","158122","0.0-7.0","1920x1080","","34996.90000003576","64.95","img/238/4.5/0.66667/bw/001.png","","","complex"
"","","","","","animation","8","163201","0.0-8.0","1920x1080","","5078.399999976158","67.86","img/117/5.5/0.5/bw/001.png","","","complex"
"","","","","","animation","9","172185","0.0-9.0","1920x1080","","8983.199999988079","82.28","img/238/2.5/0.66667/bw/001.png","","","complex"
"","","","","","animation","10","181433","0.0-10.0","1920x1080","","9246.699999988079","25","img/238/4.5/1.5/bw/001.png","","","complex"
"","","","","","animation","11","189561","0.0-11.0","1920x1080","","8127.100000023842","29.63","img/314/4.5/0.5/bw/001.png","","","complex"
"","","","","","animation","12","192297","0.0-12.0","1920x1080","","2735","43.25","img/314/4/0.66667/bw/001.png","","","complex"
"","","","","","animation","13","197353","0.0-13.0","1920x1080","","5055.199999988079","12.57","img/117/5.5/1.5/bw/001.png","","","complex"
"","","","","","animation","14","208874","0.0-14.0","1920x1080","","11519.600000023842","75","img/314/3.5/0.66667/bw/001.png","","","complex"
"","","","","","animation","15","215274","0.0-15.0","1920x1080","","6399","14","img/314/5.5/0.66667/bw/001.png","","","complex"
"","","","","","animation","16","218674","0.0-16.0","1920x1080","","3399.399999976158","32","img/238/4/1.5/bw/001.png","","","complex"
"","","","","","animation","17","222538","0.0-17.0","1920x1080","","3862.800000011921","50.26","img/117/3.5/1.5/bw/001.png","","","complex"
"","","","","","animation","18","227353","0.0-18.0","1920x1080","","4815.200000047684","53.04","img/117/4/1/bw/001.png","","","complex"
"","","","","","animation","19","236258","0.0-19.0","1920x1080","","8903.399999976158","42.72","img/238/3.5/2/bw/001.png","","","complex"
"","","","","","animation","20","240233","0.0-20.0","1920x1080","","3975.099999964237","98","img/314/2.5/0.5/bw/001.png","","","complex"
"","","","","","animation","21","246657","0.0-21.0","1920x1080","","6423.5","82","img/238/3.5/0.5/bw/001.png","","","complex"
"","","","","","animation","22","251657","0.0-22.0","1920x1080","","4999.100000023842","3.97","img/238/5.5/1/bw/001.png","","","complex"
"","","","","","animation","23","256578","0.0-23.0","1920x1080","","4919.300000011921","38.36","img/117/2.5/2/bw/001.png","","","complex"
"","","","","","animation","24","259457","0.0-24.0","1920x1080","","2878.800000011921","45.37","img/238/4/1/bw/001.png","","","complex"
"","","","","","animation","25","262697","0.0-25.0","1920x1080","","3238.400000035763","55.42","img/238/2.5/1.5/bw/001.png","","","complex"
"","","","","","animation","26","266345","0.0-26.0","1920x1080","","3647.399999976158","42.20","img/238/4/0.66667/bw/001.png","","","complex"
"","","","","","animation","27","272762","0.0-27.0","1920x1080","","6415.800000011921","28.84","img/238/4.5/2/bw/001.png","","","complex"
"","","","","","animation","28","279321","0.0-28.0","1920x1080","","6558.600000023842","12.96","img/314/5.5/1.5/bw/001.png","","","complex"
"","","","","","animation","29","285185","0.0-29.0","1920x1080","","5863.199999988079","44.58","img/117/4/2/bw/001.png","","","complex"
"","","","","","animation","30","292594","0.0-30.0","1920x1080","","7408.5","44.18","img/117/4.5/0.66667/bw/001.png","","","complex"
"","","","","","animation","31","298594","0.0-31.0","1920x1080","","5998.5","76.19","img/117/2.5/1.5/bw/001.png","","","complex"
"","","","","","animation","32","305089","0.0-32.0","1920x1080","","6493.899999976158","54.89","img/117/4.5/0.5/bw/001.png","","","complex"
"","","","","","animation","33","309843","0.0-33.0","1920x1080","","4758.900000035763","72.49","img/238/2.5/2/bw/001.png","","","complex"
"","","","","","animation","34","313605","0.0-34.0","1920x1080","","3760.899999976158","60.58","img/314/3.5/2/bw/001.png","","","complex"
"","","","","","animation","35","317411","0.0-35.0","1920x1080","","3805.5","3.17","img/314/5.5/1/bw/001.png","","","complex"
"","","","","","animation","36","321572","0.0-36.0","1920x1080","","4159.700000047684","55.29","img/117/4/0.5/bw/001.png","","","complex"
"","","","","","animation","37","325205","0.0-37.0","1920x1080","","3632.399999976158","98","img/117/2.5/1/bw/001.png","","","complex"
"","","","","","animation","38","327523","0.0-38.0","1920x1080","","2317.2999999523163","100","img/117/2.5/0.5/bw/001.png","","","complex"
"","","","","","animation","39","329932","0.0-39.0","1920x1080","","2407.5","66.80","img/314/4/2/bw/001.png","","","complex"
"","","","","","animation","40","333964","0.0-40.0","1920x1080","","4031.199999988079","95","img/238/2.5/0.5/bw/001.png","","","complex"
"","","","","","animation","41","337691","0.0-41.0","1920x1080","","3726.699999988079","68.12","img/314/4/1/bw/001.png","","","complex"
"","","","","","animation","42","341611","0.0-42.0","1920x1080","","3919.100000023842","78.44","img/238/3.5/0.66667/bw/001.png","","","complex"
"","","","","","animation","43","343940","0.0-43.0","1920x1080","","2327","72.09","img/238/4/0.5/bw/001.png","","","complex"
"","","","","","animation","44","346611","0.0-44.0","1920x1080","","2670.599999964237","23.15","img/117/5.5/1/bw/001.png","","","complex"
"","","","","","animation","45","349540","0.0-45.0","1920x1080","","2927.300000011921","47.49","img/314/4/1.5/bw/001.png","","","complex"
"","","","","","animation","46","352268","0.0-46.0","1920x1080","","2727.2999999523163","99","img/314/2.5/2/bw/001.png","","","complex"
"","","","","","animation","47","361532","0.0-47.0","1920x1080","","9263.099999964237","7","img/238/5.5/0.5/bw/001.png","","","complex"
"","","","","","animation","48","364276","0.0-48.0","1920x1080","","2742.399999976158","84.13","img/314/2.5/0.66667/bw/001.png","","","complex"
"","","","","","animation","49","368802","0.0-49.0","1920x1080","","4529","33.60","img/314/5.5/0.5/bw/001.png","","","complex"
"","","","","","animation","50","371128","0.0-50.0","1920x1080","","2324.800000011921","57.80","img/314/3.5/1.5/bw/001.png","","","complex"
"","","","","","animation","51","379986","0.0-51.0","1920x1080","","8857.199999988079","26.85","img/238/5.5/0.66667/bw/001.png","","","complex"
"","","","","","animation","52","385192","0.0-52.0","1920x1080","","5204","74.74","img/314/2.5/1/bw/001.png","","","complex"
"","","","","","animation","53","389802","0.0-53.0","1920x1080","","4609.599999964237","65.74","img/117/4/0.66667/bw/001.png","","","complex"
"","","","","","animation","54","394624","0.0-54.0","1920x1080","","4820.899999976158","69.05","img/117/4.5/2/bw/001.png","","","complex"
"","","","","","animation","55","397976","0.0-55.0","1920x1080","","3351.199999988079","26.06","img/117/5.5/0.66667/bw/001.png","","","complex"
"","","","","","animation","56","402104","0.0-56.0","1920x1080","","4127.100000023842","54.10","img/117/4/1.5/bw/001.png","","","complex"
"","","","","","animation","57","405120","0.0-57.0","1920x1080","","3015.100000023842","67","img/314/3.5/1/bw/001.png","","","complex"
"","","","","","animation","58","414192","0.0-58.0","1920x1080","","9071.199999988079","46.03","img/238/4.5/1/bw/001.png","","","complex"
"","","","","","animation","59","421419","0.0-59.0","1920x1080","","7225.899999976158","57.80","img/117/3.5/1/bw/001.png","","","complex"
"","","","","","animation","60","424040","0.0-60.0","1920x1080","","2620.199999988079","44.84","img/238/4/2/bw/001.png","","","complex"
"","","","","","animation","61","430169","0.0-61.0","1920x1080","","6119.400000035763","30.16","img/314/4.5/2/bw/001.png","","","complex"
"","","","","","animation","62","436313","0.0-62.0","1920x1080","","6142.599999964237","89.81","img/117/2.5/0.66667/bw/001.png","","","complex"
"","","","","","animation","63","445921","0.0-63.0","1920x1080","","9607","28","img/314/4.5/1.5/bw/001.png","","","complex"
"","","","","","animation","64","452945","0.0-64.0","1920x1080","","7023.199999988079","67","img/117/3.5/0.66667/bw/001.png","","","complex"
"","","","","","animation","65","458778","0.0-65.0","1920x1080","","5832.400000035763","75.66","img/117/3.5/2/bw/001.png","","","complex"
"","","","","","animation","66","463844","0.0-66.0","1920x1080","","5064.400000035763","80.95","img/238/3.5/1/bw/001.png","","","complex"
"","","","","","animation","67","468969","0.0-67.0","1920x1080","","5123.600000023842","16.14","img/117/5.5/2/bw/001.png","","","complex"
"","","","","","animation","68","473378","0.0-68.0","1920x1080","","4407.700000047684","7.28","img/238/5.5/1.5/bw/001.png","","","complex"
"","","","","","animation","69","477673","0.0-69.0","1920x1080","","4294","50","img/314/4/0.5/bw/001.png","","","complex"
"","","","","","animation","70","483244","0.0-70.0","1920x1080","","5570.199999988079","5.16","img/238/5.5/2/bw/001.png","","","complex"
"","","","","","animation","71","485473","0.0-71.0","1920x1080","","2227.600000023842","61.64","img/314/3.5/0.5/bw/001.png","","","complex"
"","","","","","animation","72","488928","0.0-72.0","1920x1080","","3454.400000035763","85.45","img/238/2.5/1/bw/001.png","","","complex"
"","","","","","animation","73","491832","0.0-73.0","1920x1080","","2902.5","59.26","img/314/4.5/1/bw/001.png","","","complex"
"","","","","","animation","74","496768","0.0-74.0","1920x1080","","4935.300000011921","9.92","img/314/5.5/2/bw/001.png","","","complex"
"","","","","","animation","75","500344","0.0-75.0","1920x1080","","3574.099999964237","75","img/117/3.5/0.5/bw/001.png","","","complex"
"","","","","","animation","76","502888","0.0-76.0","1920x1080","","2543.599999964237","60","img/117/4.5/1/bw/001.png","","","complex"
"","","","","","animation","77","512648","0.0-77.0","1920x1080","","9758.700000047684","45","img/238/4.5/0.5/bw/001.png","","","complex"
"","","","","","animation","78","518016","0.0-78.0","1920x1080","","5367","67","img/238/3.5/1.5/bw/001.png","","","complex"
"","","","","","animation","79","525609","0.0-79.0","1920x1080","","7592","44","img/314/4.5/0.66667/bw/001.png","","","complex"
"","","","","","animation","80","530743","0.0-80.0","1920x1080","","5134","94","img/314/2.5/1.5/bw/001.png","","","complex"
"","","","","","animation","81","537128","0.0-81.0","1920x1080","","6383.399999976158","39","img/117/4.5/1.5/bw/001.png","","","complex"
"","","","","","html-button-response","82","562572","0.0-82.0","1920x1080","","25439.69999998808","","<div class=""intro"">You are about to view a new series of animations.<br><br></div><div class=""intro"">You will evaluate them based on a different descriptor.<br><br></div><div class=""intro"">Move the slider to indicate how <strong style=""text-transform:capitalize"">RELAXING</strong> you find each animation.<br><br></div><div class=""intro"">0 = Least Relaxing<br></div><div class=""intro"">1 = Most Relaxing<br><br></div><div class=""intro"">Remember to use the <strong><em>entire range</em></strong> of the slider to make your ratings.<br></div><div class=""intro"">Please <strong><em>take your time</em></strong> and carefully consider each rating you make.<br><br></div>","0","",""
"","","","","","call-function","83","562575","0.0-83.0","1920x1080","","","","","","",""
"","","","","","animation","84","568980","0.0-84.0","1920x1080","","6405","41.01","img/117/4.5/0.66667/bw/001.png","","","relaxing"
"","","","","","animation","85","571763","0.0-85.0","1920x1080","","2781.5","27.78","img/314/4/0.66667/bw/001.png","","","relaxing"
"","","","","","animation","86","577463","0.0-86.0","1920x1080","","5698.199999988079","3","img/117/2.5/1/bw/001.png","","","relaxing"
"","","","","","animation","87","587251","0.0-87.0","1920x1080","","9787.800000011921","3","img/117/2.5/1.5/bw/001.png","","","relaxing"
"","","","","","animation","88","595036","0.0-88.0","1920x1080","","7783.099999964237","0","img/117/3.5/0.5/bw/001.png","","","relaxing"
"","","","","","animation","89","598263","0.0-89.0","1920x1080","","3226.599999964237","75.79","img/238/4.5/1.5/bw/001.png","","","relaxing"
"","","","","","animation","90","602892","0.0-90.0","1920x1080","","4627.5","40.21","img/314/4/1.5/bw/001.png","","","relaxing"
"","","","","","animation","91","605540","0.0-91.0","1920x1080","","2646.900000035763","32.28","img/117/3.5/0.66667/bw/001.png","","","relaxing"
"","","","","","animation","92","610444","0.0-92.0","1920x1080","","4922.100000023842","55.95","img/314/4/2/bw/001.png","","","relaxing"
"","","","","","animation","93","613312","0.0-93.0","1920x1080","","2866.7999999523163","43.52","img/238/4/0.66667/bw/001.png","","","relaxing"
"","","","","","animation","94","617264","0.0-94.0","1920x1080","","3950.899999976158","32.54","img/238/3.5/0.5/bw/001.png","","","relaxing"
"","","","","","animation","95","622553","0.0-95.0","1920x1080","","5287.300000011921","71","img/117/4.5/2/bw/001.png","","","relaxing"
"","","","","","animation","96","628912","0.0-96.0","1920x1080","","6358.699999988079","41","img/238/3.5/1.5/bw/001.png","","","relaxing"
"","","","","","animation","97","635112","0.0-97.0","1920x1080","","6199.199999988079","92","img/117/5.5/0.66667/bw/001.png","","","relaxing"
"","","","","","animation","98","637569","0.0-98.0","1920x1080","","2455.199999988079","83.99","img/314/5.5/0.5/bw/001.png","","","relaxing"
"","","","","","animation","99","639889","0.0-99.0","1920x1080","","2319.2999999523163","29.76","img/314/3.5/1.5/bw/001.png","","","relaxing"
"","","","","","animation","100","645337","0.0-100.0","1920x1080","","5446.899999976158","59.66","img/314/4.5/1.5/bw/001.png","","","relaxing"
"","","","","","animation","101","648369","0.0-101.0","1920x1080","","3030.699999988079","-4.89","img/314/2.5/0.5/bw/001.png","","","relaxing"
"","","","","","animation","102","654153","0.0-102.0","1920x1080","","5783.199999988079","95","img/117/5.5/1/bw/001.png","","","relaxing"
"","","","","","animation","103","657048","0.0-103.0","1920x1080","","2894.399999976158","2.12","img/117/2.5/0.5/bw/001.png","","","relaxing"
"","","","","","animation","104","660644","0.0-104.0","1920x1080","","3594.600000023842","84.26","img/117/5.5/0.5/bw/001.png","","","relaxing"
"","","","","","animation","105","665753","0.0-105.0","1920x1080","","5107.399999976158","46","img/314/4.5/2/bw/001.png","","","relaxing"
"","","","","","animation","106","668559","0.0-106.0","1920x1080","","2830.900000035763","58.86","img/238/4.5/2/bw/001.png","","","relaxing"
"","","","","","animation","107","671703","0.0-107.0","1920x1080","","3142.600000023842","2.25","img/314/2.5/1.5/bw/001.png","","","relaxing"
"","","","","","animation","108","679143","0.0-108.0","1920x1080","","7439.600000023842","99","img/238/5.5/1.5/bw/001.png","","","relaxing"
"","","","","","animation","109","683071","0.0-109.0","1920x1080","","3926.699999988079","29.37","img/117/3.5/1.5/bw/001.png","","","relaxing"
"","","","","","animation","110","690759","0.0-110.0","1920x1080","","7686.900000035763","93","img/238/5.5/0.66667/bw/001.png","","","relaxing"
"","","","","","animation","111","693112","0.0-111.0","1920x1080","","2350.399999976158","0.13","img/314/2.5/1/bw/001.png","","","relaxing"
"","","","","","animation","112","699495","0.0-112.0","1920x1080","","6382.600000023842","49","img/314/4.5/1/bw/001.png","","","relaxing"
"","","","","","animation","113","703159","0.0-113.0","1920x1080","","3663.199999988079","38.49","img/117/4/1/bw/001.png","","","relaxing"
"","","","","","animation","114","705696","0.0-114.0","1920x1080","","2535.199999988079","45.24","img/117/4.5/1/bw/001.png","","","relaxing"
"","","","","","animation","115","709527","0.0-115.0","1920x1080","","3830.300000011921","71.03","img/238/5.5/0.5/bw/001.png","","","relaxing"
"","","","","","animation","116","712584","0.0-116.0","1920x1080","","3055.600000023842","20.90","img/238/3.5/1/bw/001.png","","","relaxing"
"","","","","","animation","117","715407","0.0-117.0","1920x1080","","2822.399999976158","32.80","img/314/3.5/2/bw/001.png","","","relaxing"
"","","","","","animation","118","721095","0.0-118.0","1920x1080","","5687.100000023842","58","img/238/4.5/1/bw/001.png","","","relaxing"
"","","","","","animation","119","726493","0.0-119.0","1920x1080","","5422.799999952316","39.15","img/314/4.5/0.5/bw/001.png","","","relaxing"
"","","","","","animation","120","730381","0.0-120.0","1920x1080","","3887.199999988079","60.45","img/117/4/2/bw/001.png","","","relaxing"
"","","","","","animation","121","733245","0.0-121.0","1920x1080","","2862.5","57.01","img/238/4/2/bw/001.png","","","relaxing"
"","","","","","animation","122","738493","0.0-122.0","1920x1080","","5247.199999988079","49","img/314/4.5/0.66667/bw/001.png","","","relaxing"
"","","","","","animation","123","751917","0.0-123.0","1920x1080","","13423.199999988079","100","img/117/5.5/1.5/bw/001.png","","","relaxing"
"","","","","","animation","124","755009","0.0-124.0","1920x1080","","3090.2000000476837","41.67","img/238/4/1/bw/001.png","","","relaxing"
"","","","","","animation","125","758917","0.0-125.0","1920x1080","","3907.600000023842","20.77","img/238/3.5/2/bw/001.png","","","relaxing"
"","","","","","animation","126","763933","0.0-126.0","1920x1080","","5015.100000023842","19","img/117/4.5/0.5/bw/001.png","","","relaxing"
"","","","","","animation","127","767229","0.0-127.0","1920x1080","","3294.899999976158","17.86","img/238/4/0.5/bw/001.png","","","relaxing"
"","","","","","animation","128","775793","0.0-128.0","1920x1080","","8563.099999964237","98","img/314/5.5/2/bw/001.png","","","relaxing"
"","","","","","animation","129","780413","0.0-129.0","1920x1080","","4617.699999988079","43.12","img/238/4.5/0.5/bw/001.png","","","relaxing"
"","","","","","animation","130","783877","0.0-130.0","1920x1080","","3462.5","60.05","img/117/4.5/1.5/bw/001.png","","","relaxing"
"","","","","","animation","131","788577","0.0-131.0","1920x1080","","4734.5","32.94","img/314/4/0.5/bw/001.png","","","relaxing"
"","","","","","animation","132","792609","0.0-132.0","1920x1080","","4030.699999988079","-0.13","img/117/2.5/0.66667/bw/001.png","","","relaxing"
"","","","","","animation","133","795739","0.0-133.0","1920x1080","","3129.399999976158","-1.59","img/238/2.5/0.5/bw/001.png","","","relaxing"
"","","","","","animation","134","798417","0.0-134.0","1920x1080","","2676.599999964237","20.37","img/117/4/0.5/bw/001.png","","","relaxing"
"","","","","","animation","135","802465","0.0-135.0","1920x1080","","4045.899999976158","22.35","img/314/3.5/1/bw/001.png","","","relaxing"
"","","","","","animation","136","806906","0.0-136.0","1920x1080","","4439.899999976158","-1.32","img/314/2.5/2/bw/001.png","","","relaxing"
"","","","","","animation","137","809973","0.0-137.0","1920x1080","","3065.199999988079","-2.38","img/238/2.5/0.66667/bw/001.png","","","relaxing"
"","","","","","animation","138","814441","0.0-138.0","1920x1080","","4466.600000023842","8.47","img/238/3.5/0.66667/bw/001.png","","","relaxing"
"","","","","","animation","139","817225","0.0-139.0","1920x1080","","2783.199999988079","0.40","img/238/2.5/1/bw/001.png","","","relaxing"
"","","","","","animation","140","824833","0.0-140.0","1920x1080","","7607.199999988079","63","img/238/4.5/0.66667/bw/001.png","","","relaxing"
"","","","","","animation","141","828577","0.0-141.0","1920x1080","","3743","0.79","img/238/2.5/2/bw/001.png","","","relaxing"
"","","","","","animation","142","832273","0.0-142.0","1920x1080","","3694.599999964237","18.52","img/117/3.5/1/bw/001.png","","","relaxing"
"","","","","","animation","143","834706","0.0-143.0","1920x1080","","2431.600000023842","13.10","img/314/3.5/0.66667/bw/001.png","","","relaxing"
"","","","","","animation","144","837449","0.0-144.0","1920x1080","","2742.400000035763","17.33","img/314/4/1/bw/001.png","","","relaxing"
"","","","","","animation","145","841393","0.0-145.0","1920x1080","","3943.100000023842","18.39","img/238/4/1.5/bw/001.png","","","relaxing"
"","","","","","animation","146","849350","0.0-146.0","1920x1080","","7982.699999988079","91","img/314/5.5/1/bw/001.png","","","relaxing"
"","","","","","animation","147","855270","0.0-147.0","1920x1080","","5919.199999988079","96","img/117/5.5/2/bw/001.png","","","relaxing"
"","","","","","animation","148","859502","0.0-148.0","1920x1080","","4229.800000011921","30.03","img/314/3.5/0.5/bw/001.png","","","relaxing"
"","","","","","animation","149","864529","0.0-149.0","1920x1080","","5025.699999988079","85","img/314/5.5/0.66667/bw/001.png","","","relaxing"
"","","","","","animation","150","872686","0.0-150.0","1920x1080","","8156.5","84.13","img/238/5.5/2/bw/001.png","","","relaxing"
"","","","","","animation","151","883129","0.0-151.0","1920x1080","","10441.300000011921","87.57","img/238/5.5/1/bw/001.png","","","relaxing"
"","","","","","animation","152","889496","0.0-152.0","1920x1080","","6363.899999976158","51","img/117/3.5/2/bw/001.png","","","relaxing"
"","","","","","animation","153","891846","0.0-153.0","1920x1080","","2348.399999976158","46.56","img/117/4/1.5/bw/001.png","","","relaxing"
"","","","","","animation","154","894254","0.0-154.0","1920x1080","","2407.599999964237","6.48","img/117/2.5/2/bw/001.png","","","relaxing"
"","","","","","animation","155","900646","0.0-155.0","1920x1080","","6390.800000011921","43","img/117/4/0.66667/bw/001.png","","","relaxing"
"","","","","","animation","156","904295","0.0-156.0","1920x1080","","3647.599999964237","73.94","img/314/5.5/1.5/bw/001.png","","","relaxing"
"","","","","","animation","157","914426","0.0-157.0","1920x1080","","10157.599999964237","33","img/238/2.5/1.5/bw/001.png","","","relaxing"
"","","","","","animation","158","918202","0.0-158.0","1920x1080","","3774.599999964237","-4.89","img/314/2.5/0.66667/bw/001.png","","","relaxing"
"","","","","","html-button-response","159","939395","0.0-159.0","1920x1080","","21191.100000023842","","<div class=""intro"">You are about to view a new series of animations.<br><br></div><div class=""intro"">You will evaluate them based on a different descriptor.<br><br></div><div class=""intro"">Move the slider to indicate how <strong style=""text-transform:capitalize"">APPEALING</strong> you find each animation.<br><br></div><div class=""intro"">0 = Least Appealing<br></div><div class=""intro"">1 = Most Appealing<br><br></div><div class=""intro"">Remember to use the <strong><em>entire range</em></strong> of the slider to make your ratings.<br></div><div class=""intro"">Please <strong><em>take your time</em></strong> and carefully consider each rating you make.<br><br></div>","0","",""
"","","","","","call-function","160","939396","0.0-160.0","1920x1080","","","","","","",""
"","","","","","animation","161","953667","0.0-161.0","1920x1080","","14269.900000035763","21.56","img/314/4/0.66667/bw/001.png","","","appealing"
"","","","","","animation","162","959767","0.0-162.0","1920x1080","","6096.100000023842","33.86","img/314/4/1.5/bw/001.png","","","appealing"
"","","","","","animation","163","965258","0.0-163.0","1920x1080","","5488.800000011921","30.16","img/238/4.5/2/bw/001.png","","","appealing"
"","","","","","animation","164","970575","0.0-164.0","1920x1080","","5334","20.50","img/238/3.5/1/bw/001.png","","","appealing"
"","","","","","animation","165","974465","0.0-165.0","1920x1080","","3887.399999976158","3.84","img/117/2.5/2/bw/001.png","","","appealing"
"","","","","","animation","166","979975","0.0-166.0","1920x1080","","5509.099999964237","38.10","img/117/4.5/0.5/bw/001.png","","","appealing"
"","","","","","animation","167","983048","0.0-167.0","1920x1080","","3070.899999976158","3.17","img/314/2.5/1/bw/001.png","","","appealing"
"","","","","","animation","168","1002423","0.0-168.0","1920x1080","","19374.299999952316","18.39","img/238/3.5/0.66667/bw/001.png","","","appealing"
"","","","","","animation","169","1006007","0.0-169.0","1920x1080","","3582.600000023842","10.45","img/238/2.5/1.5/bw/001.png","","","appealing"
"","","","","","animation","170","1009883","0.0-170.0","1920x1080","","3874.7999999523163","17.20","img/117/4/0.66667/bw/001.png","","","appealing"
"","","","","","animation","171","1021682","0.0-171.0","1920x1080","","11796.199999988079","39","img/117/4/1/bw/001.png","","","appealing"
"","","","","","animation","172","1029760","0.0-172.0","1920x1080","","8100.400000035763","59.66","img/238/5.5/0.66667/bw/001.png","","","appealing"
"","","","","","animation","173","1033049","0.0-173.0","1920x1080","","3287.100000023842","53.04","img/238/4.5/0.66667/bw/001.png","","","appealing"
"","","","","","animation","174","1039153","0.0-174.0","1920x1080","","6102.899999976158","40.87","img/314/4/2/bw/001.png","","","appealing"
"","","","","","animation","175","1043080","0.0-175.0","1920x1080","","3925.5","0","img/117/2.5/1.5/bw/001.png","","","appealing"
"","","","","","animation","176","1046953","0.0-176.0","1920x1080","","3870.7000000476837","7.94","img/314/3.5/1/bw/001.png","","","appealing"
"","","","","","animation","177","1066376","0.0-177.0","1920x1080","","19422","77","img/238/5.5/2/bw/001.png","","","appealing"
"","","","","","animation","178","1079075","0.0-178.0","1920x1080","","12695.300000011921","68.39","img/314/5.5/0.5/bw/001.png","","","appealing"
"","","","","","animation","179","1091998","0.0-179.0","1920x1080","","12938.899999976158","38.10","img/117/3.5/1/bw/001.png","","","appealing"
"","","","","","animation","180","1121606","0.0-180.0","1920x1080","","29607","68.25","img/238/5.5/0.5/bw/001.png","","","appealing"
"","","","","","animation","181","1127057","0.0-181.0","1920x1080","","5449.099999964237","30.56","img/314/4.5/0.5/bw/001.png","","","appealing"
"","","","","","animation","182","1132646","0.0-182.0","1920x1080","","5588","2.51","img/117/3.5/0.5/bw/001.png","","","appealing"
"","","","","","animation","183","1143673","0.0-183.0","1920x1080","","11025.900000035763","88","img/117/5.5/1/bw/001.png","","","appealing"
"","","","","","animation","184","1156039","0.0-184.0","1920x1080","","12387.900000035763","93.39","img/117/5.5/1.5/bw/001.png","","","appealing"
"","","","","","animation","185","1158850","0.0-185.0","1920x1080","","2809.5","45.37","img/238/4/1.5/bw/001.png","","","appealing"
"","","","","","animation","186","1161391","0.0-186.0","1920x1080","","2540.099999964237","6.75","img/314/2.5/1.5/bw/001.png","","","appealing"
"","","","","","animation","187","1164527","0.0-187.0","1920x1080","","3135","2.25","img/117/2.5/0.5/bw/001.png","","","appealing"
"","","","","","animation","188","1168117","0.0-188.0","1920x1080","","3588.199999988079","11.51","img/117/3.5/0.66667/bw/001.png","","","appealing"
"","","","","","animation","189","1172100","0.0-189.0","1920x1080","","3982.100000023842","51.46","img/117/4.5/0.66667/bw/001.png","","","appealing"
"","","","","","animation","190","1174535","0.0-190.0","1920x1080","","2433.800000011921","25.93","img/238/3.5/0.5/bw/001.png","","","appealing"
"","","","","","animation","191","1185543","0.0-191.0","1920x1080","","11007.399999976158","62.04","img/238/4.5/1.5/bw/001.png","","","appealing"
"","","","","","animation","192","1189467","0.0-192.0","1920x1080","","3922.399999976158","2.12","img/314/2.5/0.66667/bw/001.png","","","appealing"
"","","","","","animation","193","1193867","0.0-193.0","1920x1080","","4398.199999988079","21.16","img/117/4/0.5/bw/001.png","","","appealing"
"","","","","","animation","194","1199351","0.0-194.0","1920x1080","","5482.899999976158","45","img/117/3.5/1.5/bw/001.png","","","appealing"
"","","","","","animation","195","1202143","0.0-195.0","1920x1080","","2791.099999964237","18.65","img/238/2.5/1/bw/001.png","","","appealing"
"","","","","","animation","196","1205007","0.0-196.0","1920x1080","","2862.5","11.11","img/117/2.5/0.66667/bw/001.png","","","appealing"
"","","","","","animation","197","1210452","0.0-197.0","1920x1080","","5462.799999952316","39.95","img/238/3.5/1.5/bw/001.png","","","appealing"
"","","","","","animation","198","1218684","0.0-198.0","1920x1080","","8229.399999976158","56.48","img/238/4.5/0.5/bw/001.png","","","appealing"
"","","","","","animation","199","1222972","0.0-199.0","1920x1080","","4285.599999964237","0.40","img/238/2.5/0.66667/bw/001.png","","","appealing"
"","","","","","animation","200","1230236","0.0-200.0","1920x1080","","7261.699999988079","75.53","img/117/4/2/bw/001.png","","","appealing"
"","","","","","animation","201","1243300","0.0-201.0","1920x1080","","13060.800000011921","0","img/238/2.5/0.5/bw/001.png","","","appealing"
"","","","","","animation","202","1248498","0.0-202.0","1920x1080","","5196.199999988079","59.13","img/117/3.5/2/bw/001.png","","","appealing"
"","","","","","animation","203","1250914","0.0-203.0","1920x1080","","2414.399999976158","13.23","img/314/3.5/0.5/bw/001.png","","","appealing"
"","","","","","animation","204","1257116","0.0-204.0","1920x1080","","6200.699999988079","45.37","img/117/4.5/1.5/bw/001.png","","","appealing"
"","","","","","animation","205","1265300","0.0-205.0","1920x1080","","8182.300000011921","40.74","img/117/5.5/0.5/bw/001.png","","","appealing"
"","","","","","animation","206","1331143","0.0-206.0","1920x1080","","65870","44.18","img/314/4.5/2/bw/001.png","","","appealing"
"","","","","","animation","207","1338151","0.0-207.0","1920x1080","","7006.699999988079","26","img/314/3.5/0.66667/bw/001.png","","","appealing"
"","","","","","animation","208","1341007","0.0-208.0","1920x1080","","2854.699999988079","6.61","img/314/2.5/2/bw/001.png","","","appealing"
"","","","","","animation","209","1370175","0.0-209.0","1920x1080","","29166.600000023842","58.47","img/314/4/1/bw/001.png","","","appealing"
"","","","","","animation","210","1374034","0.0-210.0","1920x1080","","3858.100000023842","46.69","img/314/3.5/2/bw/001.png","","","appealing"
"","","","","","animation","211","1377635","0.0-211.0","1920x1080","","3599.199999988079","39.68","img/117/4/1.5/bw/001.png","","","appealing"
"","","","","","animation","212","1406227","0.0-212.0","1920x1080","","28603.099999964237","100","img/117/5.5/2/bw/001.png","","","appealing"
"","","","","","animation","213","1409611","0.0-213.0","1920x1080","","3382.599999964237","0.93","img/117/2.5/1/bw/001.png","","","appealing"
"","","","","","animation","214","1417405","0.0-214.0","1920x1080","","7793.100000023842","93.39","img/314/5.5/0.66667/bw/001.png","","","appealing"
"","","","","","animation","215","1420811","0.0-215.0","1920x1080","","3402.600000023842","28.04","img/238/4/0.5/bw/001.png","","","appealing"
"","","","","","animation","216","1427038","0.0-216.0","1920x1080","","6225.5","47.22","img/238/4/2/bw/001.png","","","appealing"
"","","","","","animation","217","1441474","0.0-217.0","1920x1080","","14435.200000047684","33.47","img/238/3.5/2/bw/001.png","","","appealing"
"","","","","","animation","218","1445455","0.0-218.0","1920x1080","","3979.300000011921","0","img/238/2.5/2/bw/001.png","","","appealing"
"","","","","","animation","219","1461314","0.0-219.0","1920x1080","","15874.399999976158","99","img/238/5.5/1.5/bw/001.png","","","appealing"
"","","","","","animation","220","1465777","0.0-220.0","1920x1080","","4461.700000047684","43.25","img/238/4/1/bw/001.png","","","appealing"
"","","","","","animation","221","1472330","0.0-221.0","1920x1080","","6550.5","32.54","img/117/4.5/1/bw/001.png","","","appealing"
"","","","","","animation","222","1474762","0.0-222.0","1920x1080","","2428.5","21.69","img/238/4/0.66667/bw/001.png","","","appealing"
"","","","","","animation","223","1481638","0.0-223.0","1920x1080","","6875.399999976158","48.15","img/117/5.5/0.66667/bw/001.png","","","appealing"
"","","","","","animation","224","1492938","0.0-224.0","1920x1080","","11296.399999976158","65.87","img/314/5.5/2/bw/001.png","","","appealing"
"","","","","","animation","225","1500362","0.0-225.0","1920x1080","","7421.800000011921","30","img/314/4.5/0.66667/bw/001.png","","","appealing"
"","","","","","animation","226","1506795","0.0-226.0","1920x1080","","6446.800000011921","62.17","img/314/4.5/1.5/bw/001.png","","","appealing"
"","","","","","animation","227","1517395","0.0-227.0","1920x1080","","10597.399999976158","85.05","img/314/5.5/1/bw/001.png","","","appealing"
"","","","","","animation","228","1523723","0.0-228.0","1920x1080","","6324.699999988079","20","img/314/3.5/1.5/bw/001.png","","","appealing"
"","","","","","animation","229","1536107","0.0-229.0","1920x1080","","12382.300000011921","89.95","img/314/5.5/1.5/bw/001.png","","","appealing"
"","","","","","animation","230","1558042","0.0-230.0","1920x1080","","21933.19999998808","93","img/238/5.5/1/bw/001.png","","","appealing"
"","","","","","animation","231","1565491","0.0-231.0","1920x1080","","7446.600000023842","77","img/117/4.5/2/bw/001.png","","","appealing"
"","","","","","animation","232","1581804","0.0-232.0","1920x1080","","16317.100000023842","33.73","img/314/4.5/1/bw/001.png","","","appealing"
"","","","","","animation","233","1586684","0.0-233.0","1920x1080","","4878.200000047684","0.13","img/314/2.5/0.5/bw/001.png","","","appealing"
"","","","","","animation","234","1600900","0.0-234.0","1920x1080","","14214.300000011921","29.10","img/238/4.5/1/bw/001.png","","","appealing"
"","","","","","animation","235","1605749","0.0-235.0","1920x1080","","4845.699999988079","21.30","img/314/4/0.5/bw/001.png","","","appealing"
"","","","","","html-button-response","236","1651968","0.0-236.0","1920x1080","","46220.30000001192","","<div class=""intro"">You are about to view a new series of animations.<br><br></div><div class=""intro"">You will evaluate them based on a different descriptor.<br><br></div><div class=""intro"">Move the slider to indicate how <strong style=""text-transform:capitalize"">NATURAL</strong> you find each animation.<br><br></div><div class=""intro"">0 = Least Natural<br></div><div class=""intro"">1 = Most Natural<br><br></div><div class=""intro"">Remember to use the <strong><em>entire range</em></strong> of the slider to make your ratings.<br></div><div class=""intro"">Please <strong><em>take your time</em></strong> and carefully consider each rating you make.<br><br></div>","0","",""
"","","","","","call-function","237","1651972","0.0-237.0","1920x1080","","","","","","",""
"","","","","","animation","238","1669279","0.0-238.0","1920x1080","","17306.30000001192","56","img/238/4/1.5/bw/001.png","","","natural"
"","","","","","animation","239","1676160","0.0-239.0","1920x1080","","6879.899999976158","42.99","img/117/5.5/0.66667/bw/001.png","","","natural"
"","","","","","animation","240","1682015","0.0-240.0","1920x1080","","5853.599999964237","1.32","img/314/2.5/0.5/bw/001.png","","","natural"
"","","","","","animation","241","1691903","0.0-241.0","1920x1080","","9902.100000023842","48.68","img/117/5.5/1.5/bw/001.png","","","natural"
"","","","","","animation","242","1705335","0.0-242.0","1920x1080","","13428.600000023842","48","img/238/5.5/1.5/bw/001.png","","","natural"
"","","","","","animation","243","1712933","0.0-243.0","1920x1080","","7596","68.78","img/117/4/2/bw/001.png","","","natural"
"","","","","","animation","244","1723111","0.0-244.0","1920x1080","","10174.300000011921","0.00","img/117/2.5/0.5/bw/001.png","","","natural"
"","","","","","animation","245","1726999","0.0-245.0","1920x1080","","3884.899999976158","5.16","img/117/2.5/1.5/bw/001.png","","","natural"
"","","","","","animation","246","1740967","0.0-246.0","1920x1080","","13966.199999988079","48.94","img/314/3.5/1.5/bw/001.png","","","natural"
"","","","","","animation","247","1745119","0.0-247.0","1920x1080","","4148.200000047684","58","img/117/4/1.5/bw/001.png","","","natural"
"","","","","","animation","248","1750555","0.0-248.0","1920x1080","","5446.5","43.25","img/238/5.5/0.66667/bw/001.png","","","natural"
"","","","","","animation","249","1756155","0.0-249.0","1920x1080","","5595.699999988079","48.41","img/238/3.5/1/bw/001.png","","","natural"
"","","","","","animation","250","1761467","0.0-250.0","1920x1080","","5309.599999964237","17.72","img/314/2.5/2/bw/001.png","","","natural"
"","","","","","animation","251","1793355","0.0-251.0","1920x1080","","31885.5","61","img/314/5.5/0.66667/bw/001.png","","","natural"
"","","","","","animation","252","1805515","0.0-252.0","1920x1080","","12158.399999976158","48","img/314/4.5/0.5/bw/001.png","","","natural"
"","","","","","animation","253","1813859","0.0-253.0","1920x1080","","8350","57","img/314/4.5/1/bw/001.png","","","natural"
"","","","","","animation","254","1818643","0.0-254.0","1920x1080","","4782.099999964237","31","img/314/3.5/0.66667/bw/001.png","","","natural"
"","","","","","animation","255","1822557","0.0-255.0","1920x1080","","3911.900000035763","12.04","img/117/2.5/0.66667/bw/001.png","","","natural"
"","","","","","animation","256","1839858","0.0-256.0","1920x1080","","17299.100000023842","69.71","img/238/5.5/0.5/bw/001.png","","","natural"
"","","","","","animation","257","1897081","0.0-257.0","1920x1080","","57231.5","65","img/117/4.5/2/bw/001.png","","","natural"
"","","","","","animation","258","1903631","0.0-258.0","1920x1080","","6548.399999976158","61.77","img/117/3.5/2/bw/001.png","","","natural"
"","","","","","animation","259","1908738","0.0-259.0","1920x1080","","5105","56.08","img/314/4.5/2/bw/001.png","","","natural"
"","","","","","animation","260","1911747","0.0-260.0","1920x1080","","3007.5","38.10","img/117/4/0.5/bw/001.png","","","natural"
"","","","","","animation","261","1920764","0.0-261.0","1920x1080","","9015.800000011921","70.37","img/117/5.5/2/bw/001.png","","","natural"
"","","","","","animation","262","1925831","0.0-262.0","1920x1080","","5064.699999988079","54.63","img/117/5.5/0.5/bw/001.png","","","natural"
"","","","","","animation","263","1934755","0.0-263.0","1920x1080","","8921.300000011921","47.49","img/238/4/2/bw/001.png","","","natural"
"","","","","","animation","264","1946665","0.0-264.0","1920x1080","","11908.600000023842","50.53","img/314/4.5/1.5/bw/001.png","","","natural"
"","","","","","animation","265","1950515","0.0-265.0","1920x1080","","3848.5","22.09","img/238/3.5/0.5/bw/001.png","","","natural"
"","","","","","animation","266","1957165","0.0-266.0","1920x1080","","6648.099999964237","64","img/238/4.5/1.5/bw/001.png","","","natural"
"","","","","","animation","267","1962324","0.0-267.0","1920x1080","","5157","1.19","img/314/2.5/1/bw/001.png","","","natural"
"","","","","","animation","268","1978619","0.0-268.0","1920x1080","","16293.100000023842","61","img/314/5.5/2/bw/001.png","","","natural"
"","","","","","animation","269","1984615","0.0-269.0","1920x1080","","5994.599999964237","25","img/238/3.5/0.66667/bw/001.png","","","natural"
"","","","","","animation","270","2018184","0.0-270.0","1920x1080","","33581.90000003576","50","img/314/5.5/1.5/bw/001.png","","","natural"
"","","","","","animation","271","2045101","0.0-271.0","1920x1080","","26914.80000001192","46","img/314/5.5/1/bw/001.png","","","natural"
"","","","","","animation","272","2052857","0.0-272.0","1920x1080","","7764.800000011921","25","img/238/2.5/1.5/bw/001.png","","","natural"
"","","","","","animation","273","2056347","0.0-273.0","1920x1080","","3487.900000035763","29.76","img/314/4/0.66667/bw/001.png","","","natural"
"","","","","","animation","274","2060007","0.0-274.0","1920x1080","","3658.100000023842","36.11","img/117/4.5/0.5/bw/001.png","","","natural"
"","","","","","animation","275","2064591","0.0-275.0","1920x1080","","4582.099999964237","33.07","img/238/4/0.66667/bw/001.png","","","natural"
"","","","","","animation","276","2070924","0.0-276.0","1920x1080","","6331","33","img/314/5.5/0.5/bw/001.png","","","natural"
"","","","","","animation","277","2076507","0.0-277.0","1920x1080","","5581.5","61.51","img/238/4.5/2/bw/001.png","","","natural"
"","","","","","animation","278","2080659","0.0-278.0","1920x1080","","4150.5","-0.26","img/238/2.5/2/bw/001.png","","","natural"
"","","","","","animation","279","2086211","0.0-279.0","1920x1080","","5550.899999976158","33.86","img/238/4.5/0.66667/bw/001.png","","","natural"
"","","","","","animation","280","2090907","0.0-280.0","1920x1080","","4693.700000047684","0.00","img/238/2.5/0.66667/bw/001.png","","","natural"
"","","","","","animation","281","2096059","0.0-281.0","1920x1080","","5150.800000011921","42.59","img/314/4/1/bw/001.png","","","natural"
"","","","","","animation","282","2100429","0.0-282.0","1920x1080","","4368.300000011921","31.61","img/238/4/0.5/bw/001.png","","","natural"
"","","","","","animation","283","2105140","0.0-283.0","1920x1080","","4708.199999988079","28.44","img/117/3.5/0.66667/bw/001.png","","","natural"
"","","","","","animation","284","2109917","0.0-284.0","1920x1080","","4781.699999988079","1.32","img/314/2.5/1.5/bw/001.png","","","natural"
"","","","","","animation","285","2119500","0.0-285.0","1920x1080","","9582.199999988079","2","img/314/2.5/0.66667/bw/001.png","","","natural"
"","","","","","animation","286","2127020","0.0-286.0","1920x1080","","7518.599999964237","44","img/117/4.5/0.66667/bw/001.png","","","natural"
"","","","","","animation","287","2131572","0.0-287.0","1920x1080","","4550.5","0","img/238/2.5/0.5/bw/001.png","","","natural"
"","","","","","animation","288","2137690","0.0-288.0","1920x1080","","6116.300000011921","61.64","img/117/3.5/1/bw/001.png","","","natural"
"","","","","","animation","289","2142452","0.0-289.0","1920x1080","","4758.800000011921","47.49","img/314/3.5/1/bw/001.png","","","natural"
"","","","","","animation","290","2152140","0.0-290.0","1920x1080","","9686.399999976158","45.50","img/238/4/1/bw/001.png","","","natural"
"","","","","","animation","291","2159172","0.0-291.0","1920x1080","","7028.200000047684","52","img/117/4/1/bw/001.png","","","natural"
"","","","","","animation","292","2179238","0.0-292.0","1920x1080","","20058.69999998808","46","img/238/3.5/2/bw/001.png","","","natural"
"","","","","","animation","293","2181922","0.0-293.0","1920x1080","","2682.199999988079","34.52","img/117/3.5/0.5/bw/001.png","","","natural"
"","","","","","animation","294","2184722","0.0-294.0","1920x1080","","2798.7999999523163","29.89","img/314/3.5/0.5/bw/001.png","","","natural"
"","","","","","animation","295","2189355","0.0-295.0","1920x1080","","4631.800000011921","59.52","img/117/3.5/1.5/bw/001.png","","","natural"
"","","","","","animation","296","2192793","0.0-296.0","1920x1080","","3437","40.61","img/117/4/0.66667/bw/001.png","","","natural"
"","","","","","animation","297","2226038","0.0-297.0","1920x1080","","33242.90000003576","45","img/117/5.5/1/bw/001.png","","","natural"
"","","","","","animation","298","2233456","0.0-298.0","1920x1080","","7432","56","img/314/3.5/2/bw/001.png","","","natural"
"","","","","","animation","299","2237346","0.0-299.0","1920x1080","","3888.600000023842","46.69","img/238/4.5/1/bw/001.png","","","natural"
"","","","","","animation","300","2240772","0.0-300.0","1920x1080","","3424.2000000476837","39.95","img/238/4.5/0.5/bw/001.png","","","natural"
"","","","","","animation","301","2243746","0.0-301.0","1920x1080","","2971.900000035763","29.37","img/314/4/0.5/bw/001.png","","","natural"
"","","","","","animation","302","2247256","0.0-302.0","1920x1080","","3508","0","img/238/2.5/1/bw/001.png","","","natural"
"","","","","","animation","303","2249978","0.0-303.0","1920x1080","","2720.5","1.98","img/117/2.5/2/bw/001.png","","","natural"
"","","","","","animation","304","2255156","0.0-304.0","1920x1080","","5176.900000035763","64.95","img/117/4.5/1.5/bw/001.png","","","natural"
"","","","","","animation","305","2259274","0.0-305.0","1920x1080","","4115.800000011921","54.10","img/314/4.5/0.66667/bw/001.png","","","natural"
"","","","","","animation","306","2264394","0.0-306.0","1920x1080","","5118.100000023842","60.58","img/117/4.5/1/bw/001.png","","","natural"
"","","","","","animation","307","2294361","0.0-307.0","1920x1080","","29958.900000035763","42","img/238/5.5/1/bw/001.png","","","natural"
"","","","","","animation","308","2302495","0.0-308.0","1920x1080","","8132.300000011921","0","img/117/2.5/1/bw/001.png","","","natural"
"","","","","","animation","309","2318263","0.0-309.0","1920x1080","","15766.300000011921","54","img/314/4/1.5/bw/001.png","","","natural"
"","","","","","animation","310","2327631","0.0-310.0","1920x1080","","9365.300000011921","53","img/314/4/2/bw/001.png","","","natural"
"","","","","","animation","311","2369769","0.0-311.0","1920x1080","","42150.30000001192","38","img/238/5.5/2/bw/001.png","","","natural"
"","","","","","animation","312","2376569","0.0-312.0","1920x1080","","6798.599999964237","32","img/238/3.5/1.5/bw/001.png","","","natural"
"","","","","","html-button-response","313","2429622","0.0-313.0","1920x1080","","53047.299999952316","","<div class=""intro"">You are about to view a new series of animations.<br><br></div><div class=""intro"">You will evaluate them based on a different descriptor.<br><br></div><div class=""intro"">Move the slider to indicate how <strong style=""text-transform:capitalize"">INTERESTING</strong> you find each animation.<br><br></div><div class=""intro"">0 = Least Interesting<br></div><div class=""intro"">1 = Most Interesting<br><br></div><div class=""intro"">Remember to use the <strong><em>entire range</em></strong> of the slider to make your ratings.<br></div><div class=""intro"">Please <strong><em>take your time</em></strong> and carefully consider each rating you make.<br><br></div>","0","",""
"","","","","","call-function","314","2429626","0.0-314.0","1920x1080","","","","","","",""
"","","","","","animation","315","2434277","0.0-315.0","1920x1080","","4650.099999964237","41.01","img/238/4.5/1.5/bw/001.png","","","interesting"
"","","","","","animation","316","2443389","0.0-316.0","1920x1080","","9110","45.63","img/238/3.5/2/bw/001.png","","","interesting"
"","","","","","animation","317","2447557","0.0-317.0","1920x1080","","4166.599999964237","64.95","img/117/2.5/2/bw/001.png","","","interesting"
"","","","","","animation","318","2451707","0.0-318.0","1920x1080","","4148.099999964237","34.92","img/238/4/2/bw/001.png","","","interesting"
"","","","","","animation","319","2455267","0.0-319.0","1920x1080","","3558.5","31.61","img/314/4.5/1.5/bw/001.png","","","interesting"
"","","","","","animation","320","2458641","0.0-320.0","1920x1080","","3372.900000035763","69.71","img/238/3.5/0.66667/bw/001.png","","","interesting"
"","","","","","animation","321","2474083","0.0-321.0","1920x1080","","15443.899999976158","38","img/117/4/2/bw/001.png","","","interesting"
"","","","","","animation","322","2478450","0.0-322.0","1920x1080","","4364.300000011921","74.74","img/314/4/0.5/bw/001.png","","","interesting"
"","","","","","animation","323","2490418","0.0-323.0","1920x1080","","11966.700000047684","86","img/314/2.5/1.5/bw/001.png","","","interesting"
"","","","","","animation","324","2495753","0.0-324.0","1920x1080","","5331","22.35","img/117/5.5/1/bw/001.png","","","interesting"
"","","","","","animation","325","2500433","0.0-325.0","1920x1080","","4679","33.47","img/314/4/2/bw/001.png","","","interesting"
"","","","","","animation","326","2505062","0.0-326.0","1920x1080","","4627","88.36","img/314/4.5/0.5/bw/001.png","","","interesting"
"","","","","","animation","327","2507732","0.0-327.0","1920x1080","","2667.900000035763","87.04","img/117/5.5/0.5/bw/001.png","","","interesting"
"","","","","","animation","328","2511525","0.0-328.0","1920x1080","","3791.800000011921","28.17","img/117/3.5/2/bw/001.png","","","interesting"
"","","","","","animation","329","2525418","0.0-329.0","1920x1080","","13891.100000023842","43.12","img/314/3.5/1.5/bw/001.png","","","interesting"
"","","","","","animation","330","2529374","0.0-330.0","1920x1080","","3965.900000035763","61.24","img/117/4.5/2/bw/001.png","","","interesting"
"","","","","","animation","331","2538301","0.0-331.0","1920x1080","","8925.599999964237","50","img/117/4/1/bw/001.png","","","interesting"
"","","","","","animation","332","2544589","0.0-332.0","1920x1080","","6286.5","32.14","img/238/2.5/0.66667/bw/001.png","","","interesting"
"","","","","","animation","333","2553824","0.0-333.0","1920x1080","","9232.5","16.53","img/238/4/0.66667/bw/001.png","","","interesting"
"","","","","","animation","334","2566951","0.0-334.0","1920x1080","","13125.399999976158","32","img/117/4/0.66667/bw/001.png","","","interesting"
"","","","","","animation","335","2581478","0.0-335.0","1920x1080","","14526.099999964237","85.85","img/238/4.5/0.66667/bw/001.png","","","interesting"
"","","","","","animation","336","2600120","0.0-336.0","1920x1080","","18643.30000001192","46.16","img/238/5.5/1/bw/001.png","","","interesting"
"","","","","","animation","337","2620338","0.0-337.0","1920x1080","","20215.100000023842","41","img/117/5.5/2/bw/001.png","","","interesting"
"","","","","","animation","338","2664009","0.0-338.0","1920x1080","","43657.40000003576","26.59","img/314/4/1.5/bw/001.png","","","interesting"
"","","","","","animation","339","2671323","0.0-339.0","1920x1080","","7311.799999952316","77.65","img/314/2.5/0.5/bw/001.png","","","interesting"
"","","","","","animation","340","2675692","0.0-340.0","1920x1080","","4368","43.78","img/314/4.5/1/bw/001.png","","","interesting"
"","","","","","animation","341","2681670","0.0-341.0","1920x1080","","5975.5","0","img/117/2.5/1.5/bw/001.png","","","interesting"
"","","","","","animation","342","2686087","0.0-342.0","1920x1080","","4413.399999976158","61.11","img/117/4.5/1.5/bw/001.png","","","interesting"
"","","","","","animation","343","2689186","0.0-343.0","1920x1080","","3097","69.84","img/117/4/0.5/bw/001.png","","","interesting"
"","","","","","animation","344","2695837","0.0-344.0","1920x1080","","6649.399999976158","45.90","img/314/5.5/2/bw/001.png","","","interesting"
"","","","","","animation","345","2706570","0.0-345.0","1920x1080","","10705.300000011921","69.44","img/117/2.5/1/bw/001.png","","","interesting"
"","","","","","animation","346","2717829","0.0-346.0","1920x1080","","11255.600000023842","87","img/117/3.5/1.5/bw/001.png","","","interesting"
"","","","","","animation","347","2721759","0.0-347.0","1920x1080","","3928.699999988079","30.29","img/238/3.5/0.5/bw/001.png","","","interesting"
"","","","","","animation","348","2730644","0.0-348.0","1920x1080","","8883.699999988079","97","img/314/5.5/0.5/bw/001.png","","","interesting"
"","","","","","animation","349","2734649","0.0-349.0","1920x1080","","4002.399999976158","0.00","img/314/2.5/2/bw/001.png","","","interesting"
"","","","","","animation","350","2738715","0.0-350.0","1920x1080","","4063.699999988079","13.10","img/238/3.5/1.5/bw/001.png","","","interesting"
"","","","","","animation","351","2741781","0.0-351.0","1920x1080","","3063.899999976158","31.35","img/314/3.5/1/bw/001.png","","","interesting"
"","","","","","animation","352","2747928","0.0-352.0","1920x1080","","6145.300000011921","59","img/117/3.5/0.66667/bw/001.png","","","interesting"
"","","","","","animation","353","2755464","0.0-353.0","1920x1080","","7533.700000047684","42","img/314/5.5/1/bw/001.png","","","interesting"
"","","","","","animation","354","2760644","0.0-354.0","1920x1080","","5178.599999964237","61.64","img/238/2.5/0.5/bw/001.png","","","interesting"
"","","","","","animation","355","2764244","0.0-355.0","1920x1080","","3598.699999988079","64.68","img/314/2.5/0.66667/bw/001.png","","","interesting"
"","","","","","animation","356","2771818","0.0-356.0","1920x1080","","7526.700000047684","48","img/238/3.5/1/bw/001.png","","","interesting"
"","","","","","animation","357","2775851","0.0-357.0","1920x1080","","4030.699999988079","42.86","img/117/3.5/1/bw/001.png","","","interesting"
"","","","","","animation","358","2781711","0.0-358.0","1920x1080","","5857.799999952316","42.72","img/314/4/0.66667/bw/001.png","","","interesting"
"","","","","","animation","359","2795811","0.0-359.0","1920x1080","","14097.899999976158","29","img/238/5.5/2/bw/001.png","","","interesting"
"","","","","","animation","360","2800121","0.0-360.0","1920x1080","","4308.5","38.62","img/238/4/1.5/bw/001.png","","","interesting"
"","","","","","animation","361","2804289","0.0-361.0","1920x1080","","4166.800000011921","9.13","img/238/2.5/1.5/bw/001.png","","","interesting"
"","","","","","animation","362","2808539","0.0-362.0","1920x1080","","4247.600000023842","64.68","img/314/4.5/0.66667/bw/001.png","","","interesting"
"","","","","","animation","363","2814691","0.0-363.0","1920x1080","","6150.399999976158","42.99","img/314/3.5/0.66667/bw/001.png","","","interesting"
"","","","","","animation","364","2821442","0.0-364.0","1920x1080","","6748.599999964237","72","img/117/2.5/0.5/bw/001.png","","","interesting"
"","","","","","animation","365","2831206","0.0-365.0","1920x1080","","9741.599999964237","48","img/117/2.5/0.66667/bw/001.png","","","interesting"
"","","","","","animation","366","2835023","0.0-366.0","1920x1080","","3815.5","45.77","img/117/3.5/0.5/bw/001.png","","","interesting"
"","","","","","animation","367","2841209","0.0-367.0","1920x1080","","6178","15","img/238/2.5/2/bw/001.png","","","interesting"
"","","","","","animation","368","2845282","0.0-368.0","1920x1080","","4071.600000023842","36.38","img/238/4.5/2/bw/001.png","","","interesting"
"","","","","","animation","369","2853977","0.0-369.0","1920x1080","","8693.899999976158","38","img/238/5.5/1.5/bw/001.png","","","interesting"
"","","","","","animation","370","2857538","0.0-370.0","1920x1080","","3556.800000011921","25.53","img/314/3.5/0.5/bw/001.png","","","interesting"
"","","","","","animation","371","2870545","0.0-371.0","1920x1080","","13005.199999988079","64","img/314/5.5/1.5/bw/001.png","","","interesting"
"","","","","","animation","372","2878282","0.0-372.0","1920x1080","","7734.099999964237","50","img/238/4.5/0.5/bw/001.png","","","interesting"
"","","","","","animation","373","2881038","0.0-373.0","1920x1080","","2754","39.42","img/314/4.5/2/bw/001.png","","","interesting"
"","","","","","animation","374","2887589","0.0-374.0","1920x1080","","6514.100000023842","63","img/314/4/1/bw/001.png","","","interesting"
"","","","","","animation","375","2893274","0.0-375.0","1920x1080","","5683.100000023842","0","img/314/2.5/1/bw/001.png","","","interesting"
"","","","","","animation","376","2911850","0.0-376.0","1920x1080","","18571","48","img/117/5.5/1.5/bw/001.png","","","interesting"
"","","","","","animation","377","2915925","0.0-377.0","1920x1080","","4073.600000023842","64.29","img/238/2.5/1/bw/001.png","","","interesting"
"","","","","","animation","378","2920764","0.0-378.0","1920x1080","","4837.199999988079","42.99","img/117/4.5/0.66667/bw/001.png","","","interesting"
"","","","","","animation","379","2926257","0.0-379.0","1920x1080","","5491.099999964237","33","img/117/4.5/1/bw/001.png","","","interesting"
"","","","","","animation","380","2932594","0.0-380.0","1920x1080","","6334.800000011921","18","img/117/4/1.5/bw/001.png","","","interesting"
"","","","","","animation","381","2938657","0.0-381.0","1920x1080","","6061.5","62.70","img/314/3.5/2/bw/001.png","","","interesting"
"","","","","","animation","382","2945390","0.0-382.0","1920x1080","","6730.800000011921","46.83","img/238/4/1/bw/001.png","","","interesting"
"","","","","","animation","383","2953625","0.0-383.0","1920x1080","","8203.800000011921","46","img/117/4.5/0.5/bw/001.png","","","interesting"
"","","","","","animation","384","2961593","0.0-384.0","1920x1080","","7966.5","91","img/238/5.5/0.66667/bw/001.png","","","interesting"
"","","","","","animation","385","2967008","0.0-385.0","1920x1080","","5410.899999976158","98","img/238/5.5/0.5/bw/001.png","","","interesting"
"","","","","","animation","386","2977823","0.0-386.0","1920x1080","","10809.600000023842","83","img/238/4.5/1/bw/001.png","","","interesting"
"","","","","","animation","387","2983671","0.0-387.0","1920x1080","","5845.399999976158","79.63","img/117/5.5/0.66667/bw/001.png","","","interesting"
"","","","","","animation","388","2988871","0.0-388.0","1920x1080","","5196.5","90","img/238/4/0.5/bw/001.png","","","interesting"
"","","","","","animation","389","2999039","0.0-389.0","1920x1080","","10166.099999964237","97","img/314/5.5/0.66667/bw/001.png","","","interesting"
"","","","","","html-button-response","390","3015278","0.0-390.0","1920x1080","","16198.099999964237","","<strong>Study Debriefing</strong><br><p class=""debrief""><strong>Background:</strong> The patterns you rated are called <em>fractals</em>. The term fractal describes a class of irregular curves or shapes for which any suitably chosen part is similar in shape to a given larger or smaller part when magnified or reduced to the same size. Fractal properties are found throughout the natural and manmade world. The series of animations you saw today displayed animated fractal patterns of a varying complexity.</p><p class=""debrief""><strong>Purpose of this study:</strong> We hope to better understand how the perception of static fractals differs from the perception of animated fractals, and how the speed of the animated patterns influences people&apos;s perception of them. Fractals allow us to study the perception of aesthetic properties (e.g. the perceived level of beauty in an image) without using recognizable content, which makes them an excellent tool for studying abstract aesthetic judgement.</p><p class=""debrief""><strong>Your part:</strong> Your participation has helped us to further understand how humans perceive these patterns across different levels of speed and complexity. This research with allow us to better understand how the visual system and brain process our ever-changing visual environments.<p class=""debrief""><strong>Feedback and Further information:</strong> If you have additional questions about this study, please feel free to ask the researcher, Nathan Gonzales-Hess at nhess @ uoregon.edu. If you have any questions concerning your rights as a research participant, please contact Research Compliance Services, 5237 University of Oregon, Eugene, OR 97403, 541-346-2510, or email researchCompliance @ uoregon.edu. You can also email the Human Subjects Coordinator for psychology and linguistics research at hscoord @ uoregon.edu. ","0","",""
"","","","","","html-button-response","391","3018243","0.0-391.0","1920x1080","","2960.699999988079","","Thank you for participating in this study. <br>Please click below to finish the experiment and submit your responses.<br><br>","0","",""
"true","","","","","fullscreen","392","3019267","0.0-392.0","1920x1080","13:40 10/10/2022","","","","","",""
