"success","timeout","failed_images","failed_audio","failed_video","trial_type","trial_index","time_elapsed","internal_node_id","resolution","timeStamp","rt","response","stimulus","button_pressed","value","descriptor"
"true","false","[]","[]","[]","preload","0","5945","0.0-0.0","1920x1080","","","","","","",""
"true","false","[]","[]","[]","preload","1","12133","0.0-1.0","1920x1080","","","","","","",""
"true","false","[]","[]","[]","preload","2","17933","0.0-2.0","1920x1080","","","","","","",""
"true","","","","","fullscreen","3","23143","0.0-3.0","1920x1080","12:57 7/10/2022","","","","","",""
"","","","","","survey-html-form","4","34521","0.0-4.0","1920x1080","","11374.70000000298","{""age"":""20"",""gender"":""Female""}","","","",""
"","","","","","html-button-response","5","69233","0.0-5.0","1920x1080","","34710.70000000298","","<div class=""complex"">You are going to see a series of animations.<br><br></div><div class=""complex"">Move the slider to indicate how <strong style=""text-transform:capitalize"">COMPLEX</strong> you find each animation.<br><br></div><div class=""complex"">0 = Least Complex<br></div><div class=""complex"">1 = Most Complex<br><br></div><div class=""complex"">Remember to use the <strong><em>entire range</em></strong> of the slider to make your ratings.<br></div><div class=""complex"">Please <strong><em>take your time</em></strong> and carefully consider each rating you make.<br><br></div><div class=""complex"">The study has five sections and will take about 45 minutes to complete.<br><br></div>","0","",""
"","","","","","call-function","6","69233","0.0-6.0","1920x1080","","","","","","",""
"","","","","","animation","7","143585","0.0-7.0","1920x1080","","74349.39999999851","80","img/314/4/1.5/bw/001.png","","","complex"
"","","","","","animation","8","154826","0.0-8.0","1920x1080","","11239.10000000149","10.32","img/117/5.5/0.66667/bw/001.png","","","complex"
"","","","","","animation","9","174674","0.0-9.0","1920x1080","","19846.70000000298","64.81","img/314/4.5/2/bw/001.png","","","complex"
"","","","","","animation","10","181234","0.0-10.0","1920x1080","","6559","100","img/314/3.5/0.66667/bw/001.png","","","complex"
"","","","","","animation","11","192338","0.0-11.0","1920x1080","","11103.30000000447","69.71","img/314/4.5/1.5/bw/001.png","","","complex"
"","","","","","animation","12","201386","0.0-12.0","1920x1080","","9047.20000000298","85.05","img/117/4/1/bw/001.png","","","complex"
"","","","","","animation","13","207897","0.0-13.0","1920x1080","","6511.10000000149","100","img/117/2.5/1.5/bw/001.png","","","complex"
"","","","","","animation","14","218811","0.0-14.0","1920x1080","","10911.90000000596","89.55","img/238/3.5/2/bw/001.png","","","complex"
"","","","","","animation","15","230675","0.0-15.0","1920x1080","","11862.89999999851","90","img/117/4/0.5/bw/001.png","","","complex"
"","","","","","animation","16","242530","0.0-16.0","1920x1080","","11855","94.58","img/117/3.5/1/bw/001.png","","","complex"
"","","","","","animation","17","256059","0.0-17.0","1920x1080","","13527.60000000149","5.16","img/238/5.5/2/bw/001.png","","","complex"
"","","","","","animation","18","260867","0.0-18.0","1920x1080","","4806.60000000149","19.84","img/238/5.5/0.5/bw/001.png","","","complex"
"","","","","","animation","19","269947","0.0-19.0","1920x1080","","9078.89999999851","79.50","img/314/3.5/1.5/bw/001.png","","","complex"
"","","","","","animation","20","288644","0.0-20.0","1920x1080","","18695.79999999702","14.95","img/314/5.5/1.5/bw/001.png","","","complex"
"","","","","","animation","21","298299","0.0-21.0","1920x1080","","9654.79999999702","30","img/117/5.5/0.5/bw/001.png","","","complex"
"","","","","","animation","22","303099","0.0-22.0","1920x1080","","4799.19999999553","100","img/238/2.5/1.5/bw/001.png","","","complex"
"","","","","","animation","23","309060","0.0-23.0","1920x1080","","5959.60000000149","100","img/314/2.5/1/bw/001.png","","","complex"
"","","","","","animation","24","317204","0.0-24.0","1920x1080","","8143","95","img/238/3.5/0.5/bw/001.png","","","complex"
"","","","","","animation","25","329924","0.0-25.0","1920x1080","","12718.60000000149","79.50","img/314/3.5/2/bw/001.png","","","complex"
"","","","","","animation","26","334460","0.0-26.0","1920x1080","","4535.10000000149","74.74","img/117/3.5/2/bw/001.png","","","complex"
"","","","","","animation","27","347499","0.0-27.0","1920x1080","","13039","60","img/238/4.5/0.5/bw/001.png","","","complex"
"","","","","","animation","28","353820","0.0-28.0","1920x1080","","6319.80000000447","69.71","img/314/4/0.5/bw/001.png","","","complex"
"","","","","","animation","29","359013","0.0-29.0","1920x1080","","5192.10000000149","100","img/117/2.5/2/bw/001.png","","","complex"
"","","","","","animation","30","366563","0.0-30.0","1920x1080","","7549.60000000149","70.11","img/117/4.5/0.66667/bw/001.png","","","complex"
"","","","","","animation","31","377956","0.0-31.0","1920x1080","","11391.79999999702","39.95","img/117/4.5/2/bw/001.png","","","complex"
"","","","","","animation","32","384644","0.0-32.0","1920x1080","","6686.70000000298","15.21","img/238/5.5/0.66667/bw/001.png","","","complex"
"","","","","","animation","33","411412","0.0-33.0","1920x1080","","26767.5","55.03","img/238/4.5/1.5/bw/001.png","","","complex"
"","","","","","animation","34","417435","0.0-34.0","1920x1080","","6022.5","65","img/117/3.5/1.5/bw/001.png","","","complex"
"","","","","","animation","35","424147","0.0-35.0","1920x1080","","6711","55.03","img/117/4/2/bw/001.png","","","complex"
"","","","","","animation","36","430955","0.0-36.0","1920x1080","","6807.5","69.58","img/314/3.5/1/bw/001.png","","","complex"
"","","","","","animation","37","438124","0.0-37.0","1920x1080","","7167.39999999851","80.03","img/117/3.5/0.66667/bw/001.png","","","complex"
"","","","","","animation","38","446204","0.0-38.0","1920x1080","","8079.19999999553","5.29","img/314/5.5/2/bw/001.png","","","complex"
"","","","","","animation","39","453133","0.0-39.0","1920x1080","","6926.89999999851","54.50","img/238/4/2/bw/001.png","","","complex"
"","","","","","animation","40","463868","0.0-40.0","1920x1080","","10734.89999999851","30.16","img/238/4.5/2/bw/001.png","","","complex"
"","","","","","animation","41","481085","0.0-41.0","1920x1080","","17215.69999999553","10.19","img/117/5.5/1.5/bw/001.png","","","complex"
"","","","","","animation","42","488725","0.0-42.0","1920x1080","","7639.29999999702","69.97","img/238/4/1/bw/001.png","","","complex"
"","","","","","animation","43","491557","0.0-43.0","1920x1080","","2831","100","img/238/2.5/0.5/bw/001.png","","","complex"
"","","","","","animation","44","501941","0.0-44.0","1920x1080","","10383.29999999702","40","img/314/5.5/0.5/bw/001.png","","","complex"
"","","","","","animation","45","512357","0.0-45.0","1920x1080","","10415.29999999702","30","img/117/5.5/1/bw/001.png","","","complex"
"","","","","","animation","46","518853","0.0-46.0","1920x1080","","6494.89999999851","65","img/117/4/1.5/bw/001.png","","","complex"
"","","","","","animation","47","523805","0.0-47.0","1920x1080","","4950.9000000059605","60.05","img/314/4/2/bw/001.png","","","complex"
"","","","","","animation","48","540149","0.0-48.0","1920x1080","","16343.20000000298","60.45","img/238/4.5/1/bw/001.png","","","complex"
"","","","","","animation","49","548015","0.0-49.0","1920x1080","","7865","100","img/314/2.5/2/bw/001.png","","","complex"
"","","","","","animation","50","553237","0.0-50.0","1920x1080","","5221.19999999553","100","img/314/3.5/0.5/bw/001.png","","","complex"
"","","","","","animation","51","563005","0.0-51.0","1920x1080","","9767.19999999553","84.66","img/314/4.5/0.5/bw/001.png","","","complex"
"","","","","","animation","52","571965","0.0-52.0","1920x1080","","8958.5","65.21","img/117/4.5/1/bw/001.png","","","complex"
"","","","","","animation","53","583453","0.0-53.0","1920x1080","","11487.69999999553","25.00","img/117/5.5/2/bw/001.png","","","complex"
"","","","","","animation","54","588373","0.0-54.0","1920x1080","","4919.0999999940395","100","img/314/2.5/1.5/bw/001.png","","","complex"
"","","","","","animation","55","594261","0.0-55.0","1920x1080","","5886.70000000298","100","img/238/2.5/1/bw/001.png","","","complex"
"","","","","","animation","56","604382","0.0-56.0","1920x1080","","10119.5","90","img/238/3.5/0.66667/bw/001.png","","","complex"
"","","","","","animation","57","613015","0.0-57.0","1920x1080","","8631.89999999851","84.92","img/117/4/0.66667/bw/001.png","","","complex"
"","","","","","animation","58","618117","0.0-58.0","1920x1080","","5101.0999999940395","85.05","img/238/4/0.5/bw/001.png","","","complex"
"","","","","","animation","59","623973","0.0-59.0","1920x1080","","5855.39999999851","34.52","img/314/5.5/1/bw/001.png","","","complex"
"","","","","","animation","60","634661","0.0-60.0","1920x1080","","10687.19999999553","55","img/117/4.5/1.5/bw/001.png","","","complex"
"","","","","","animation","61","637268","0.0-61.0","1920x1080","","2606.39999999851","100","img/117/2.5/0.66667/bw/001.png","","","complex"
"","","","","","animation","62","641325","0.0-62.0","1920x1080","","4055.7999999970198","100","img/238/2.5/2/bw/001.png","","","complex"
"","","","","","animation","63","657615","0.0-63.0","1920x1080","","16288.39999999851","85.19","img/314/4.5/0.66667/bw/001.png","","","complex"
"","","","","","animation","64","674557","0.0-64.0","1920x1080","","16941.30000000447","15.48","img/238/5.5/1/bw/001.png","","","complex"
"","","","","","animation","65","683709","0.0-65.0","1920x1080","","9151.20000000298","20.24","img/314/5.5/0.66667/bw/001.png","","","complex"
"","","","","","animation","66","689573","0.0-66.0","1920x1080","","5862.89999999851","100","img/314/2.5/0.5/bw/001.png","","","complex"
"","","","","","animation","67","695181","0.0-67.0","1920x1080","","5606.60000000149","84.92","img/238/3.5/1.5/bw/001.png","","","complex"
"","","","","","animation","68","720447","0.0-68.0","1920x1080","","25265.70000000298","79.63","img/238/4.5/0.66667/bw/001.png","","","complex"
"","","","","","animation","69","727831","0.0-69.0","1920x1080","","7383.30000000447","29.89","img/238/5.5/1.5/bw/001.png","","","complex"
"","","","","","animation","70","731031","0.0-70.0","1920x1080","","3199.10000000149","100","img/238/2.5/0.66667/bw/001.png","","","complex"
"","","","","","animation","71","736789","0.0-71.0","1920x1080","","5757.20000000298","85.05","img/117/4.5/0.5/bw/001.png","","","complex"
"","","","","","animation","72","758216","0.0-72.0","1920x1080","","21424.60000000149","74.87","img/238/4/0.66667/bw/001.png","","","complex"
"","","","","","animation","73","762822","0.0-73.0","1920x1080","","4605.5","100","img/314/2.5/0.66667/bw/001.png","","","complex"
"","","","","","animation","74","780110","0.0-74.0","1920x1080","","17287.10000000149","84.92","img/314/4/0.66667/bw/001.png","","","complex"
"","","","","","animation","75","795249","0.0-75.0","1920x1080","","15137.70000000298","74.87","img/238/3.5/1/bw/001.png","","","complex"
"","","","","","animation","76","799886","0.0-76.0","1920x1080","","4636.10000000149","100","img/117/2.5/0.5/bw/001.png","","","complex"
"","","","","","animation","77","804190","0.0-77.0","1920x1080","","4303.29999999702","100","img/117/2.5/1/bw/001.png","","","complex"
"","","","","","animation","78","812200","0.0-78.0","1920x1080","","8008.4000000059605","80.16","img/238/4/1.5/bw/001.png","","","complex"
"","","","","","animation","79","821775","0.0-79.0","1920x1080","","9573.80000000447","70.37","img/314/4.5/1/bw/001.png","","","complex"
"","","","","","animation","80","826158","0.0-80.0","1920x1080","","4383","90.08","img/117/3.5/0.5/bw/001.png","","","complex"
"","","","","","animation","81","838215","0.0-81.0","1920x1080","","12055.40000000596","80.03","img/314/4/1/bw/001.png","","","complex"
"","","","","","html-button-response","82","856711","0.0-82.0","1920x1080","","18494.5","","<div class=""intro"">You are about to view a new series of animations.<br><br></div><div class=""intro"">You will evaluate them based on a different descriptor.<br><br></div><div class=""intro"">Move the slider to indicate how <strong style=""text-transform:capitalize"">APPEALING</strong> you find each animation.<br><br></div><div class=""intro"">0 = Least Appealing<br></div><div class=""intro"">1 = Most Appealing<br><br></div><div class=""intro"">Remember to use the <strong><em>entire range</em></strong> of the slider to make your ratings.<br></div><div class=""intro"">Please <strong><em>take your time</em></strong> and carefully consider each rating you make.<br><br></div>","0","",""
"","","","","","call-function","83","856713","0.0-83.0","1920x1080","","","","","","",""
"","","","","","animation","84","871758","0.0-84.0","1920x1080","","15045","85.45","img/238/5.5/1.5/bw/001.png","","","appealing"
"","","","","","animation","85","876350","0.0-85.0","1920x1080","","4590.5","34.66","img/238/4.5/0.66667/bw/001.png","","","appealing"
"","","","","","animation","86","881566","0.0-86.0","1920x1080","","5214.79999999702","10.32","img/238/4/1/bw/001.png","","","appealing"
"","","","","","animation","87","889582","0.0-87.0","1920x1080","","8015.30000000447","69.58","img/117/5.5/0.66667/bw/001.png","","","appealing"
"","","","","","animation","88","893294","0.0-88.0","1920x1080","","3711.10000000149","0.40","img/117/3.5/2/bw/001.png","","","appealing"
"","","","","","animation","89","896199","0.0-89.0","1920x1080","","2903.2000000029802","0","img/238/2.5/1.5/bw/001.png","","","appealing"
"","","","","","animation","90","899382","0.0-90.0","1920x1080","","3182.7000000029802","0.40","img/117/2.5/0.66667/bw/001.png","","","appealing"
"","","","","","animation","91","903150","0.0-91.0","1920x1080","","3766.10000000149","0.13","img/117/3.5/0.66667/bw/001.png","","","appealing"
"","","","","","animation","92","908654","0.0-92.0","1920x1080","","5503.20000000298","4.63","img/117/4.5/0.5/bw/001.png","","","appealing"
"","","","","","animation","93","912574","0.0-93.0","1920x1080","","3919.2999999970198","5.16","img/238/4.5/0.5/bw/001.png","","","appealing"
"","","","","","animation","94","918102","0.0-94.0","1920x1080","","5526.70000000298","0","img/117/3.5/1/bw/001.png","","","appealing"
"","","","","","animation","95","922710","0.0-95.0","1920x1080","","4607.5","0","img/314/3.5/0.5/bw/001.png","","","appealing"
"","","","","","animation","96","926886","0.0-96.0","1920x1080","","4175.0999999940395","4.76","img/238/4/0.66667/bw/001.png","","","appealing"
"","","","","","animation","97","932959","0.0-97.0","1920x1080","","6071.20000000298","79.50","img/238/5.5/0.66667/bw/001.png","","","appealing"
"","","","","","animation","98","938159","0.0-98.0","1920x1080","","5198.5999999940395","10.19","img/314/4/1/bw/001.png","","","appealing"
"","","","","","animation","99","942407","0.0-99.0","1920x1080","","4247.0999999940395","0","img/117/2.5/1/bw/001.png","","","appealing"
"","","","","","animation","100","944959","0.0-100.0","1920x1080","","2551.1999999955297","0.13","img/314/2.5/0.5/bw/001.png","","","appealing"
"","","","","","animation","101","949743","0.0-101.0","1920x1080","","4783.10000000149","0.00","img/238/4/0.5/bw/001.png","","","appealing"
"","","","","","animation","102","952135","0.0-102.0","1920x1080","","2390.5","0.00","img/238/2.5/0.5/bw/001.png","","","appealing"
"","","","","","animation","103","962567","0.0-103.0","1920x1080","","10431.10000000149","90.21","img/117/5.5/2/bw/001.png","","","appealing"
"","","","","","animation","104","969250","0.0-104.0","1920x1080","","6681.30000000447","19.84","img/314/4/1.5/bw/001.png","","","appealing"
"","","","","","animation","105","980175","0.0-105.0","1920x1080","","10924.09999999404","70.11","img/117/5.5/1.5/bw/001.png","","","appealing"
"","","","","","animation","106","984655","0.0-106.0","1920x1080","","4479","0","img/238/2.5/1/bw/001.png","","","appealing"
"","","","","","animation","107","989311","0.0-107.0","1920x1080","","4655","0.00","img/314/4.5/0.5/bw/001.png","","","appealing"
"","","","","","animation","108","998582","0.0-108.0","1920x1080","","9270.29999999702","19.97","img/117/4.5/1.5/bw/001.png","","","appealing"
"","","","","","animation","109","1011791","0.0-109.0","1920x1080","","13207.39999999851","100","img/238/5.5/2/bw/001.png","","","appealing"
"","","","","","animation","110","1013911","0.0-110.0","1920x1080","","2118.9000000059605","0","img/314/2.5/2/bw/001.png","","","appealing"
"","","","","","animation","111","1021086","0.0-111.0","1920x1080","","7174.69999999553","10.32","img/314/4/2/bw/001.png","","","appealing"
"","","","","","animation","112","1024790","0.0-112.0","1920x1080","","3702.8000000044703","0.00","img/238/2.5/0.66667/bw/001.png","","","appealing"
"","","","","","animation","113","1028959","0.0-113.0","1920x1080","","4167.10000000149","9.92","img/117/4.5/1/bw/001.png","","","appealing"
"","","","","","animation","114","1033590","0.0-114.0","1920x1080","","4630.89999999851","4.89","img/238/3.5/1.5/bw/001.png","","","appealing"
"","","","","","animation","115","1041382","0.0-115.0","1920x1080","","7790.60000000149","59.66","img/117/5.5/1/bw/001.png","","","appealing"
"","","","","","animation","116","1052471","0.0-116.0","1920x1080","","11087.30000000447","30","img/314/4.5/1/bw/001.png","","","appealing"
"","","","","","animation","117","1071023","0.0-117.0","1920x1080","","18550.89999999851","70","img/117/4.5/2/bw/001.png","","","appealing"
"","","","","","animation","118","1077471","0.0-118.0","1920x1080","","6447.10000000149","5","img/314/3.5/1/bw/001.png","","","appealing"
"","","","","","animation","119","1091743","0.0-119.0","1920x1080","","14270.70000000298","10.32","img/117/4/0.66667/bw/001.png","","","appealing"
"","","","","","animation","120","1098335","0.0-120.0","1920x1080","","6588.29999999702","15.21","img/314/4.5/0.66667/bw/001.png","","","appealing"
"","","","","","animation","121","1101935","0.0-121.0","1920x1080","","3598.9000000059605","0.13","img/314/2.5/0.66667/bw/001.png","","","appealing"
"","","","","","animation","122","1104655","0.0-122.0","1920x1080","","2719.0999999940395","0.40","img/238/3.5/0.5/bw/001.png","","","appealing"
"","","","","","animation","123","1112866","0.0-123.0","1920x1080","","8210.20000000298","25.13","img/314/5.5/0.66667/bw/001.png","","","appealing"
"","","","","","animation","124","1117983","0.0-124.0","1920x1080","","5115.10000000149","0.13","img/314/3.5/2/bw/001.png","","","appealing"
"","","","","","animation","125","1121687","0.0-125.0","1920x1080","","3703.5","0.40","img/314/4/0.5/bw/001.png","","","appealing"
"","","","","","animation","126","1124503","0.0-126.0","1920x1080","","2814.60000000149","0.00","img/314/3.5/0.66667/bw/001.png","","","appealing"
"","","","","","animation","127","1132865","0.0-127.0","1920x1080","","8361.69999999553","5","img/238/4/1.5/bw/001.png","","","appealing"
"","","","","","animation","128","1135666","0.0-128.0","1920x1080","","2799.60000000149","0.13","img/314/2.5/1/bw/001.png","","","appealing"
"","","","","","animation","129","1147199","0.0-129.0","1920x1080","","11532","10","img/117/4/2/bw/001.png","","","appealing"
"","","","","","animation","130","1149911","0.0-130.0","1920x1080","","2711.3000000044703","0","img/117/2.5/0.5/bw/001.png","","","appealing"
"","","","","","animation","131","1159439","0.0-131.0","1920x1080","","9526.70000000298","30.03","img/238/4.5/1.5/bw/001.png","","","appealing"
"","","","","","animation","132","1163699","0.0-132.0","1920x1080","","4258.79999999702","0.13","img/238/3.5/0.66667/bw/001.png","","","appealing"
"","","","","","animation","133","1174866","0.0-133.0","1920x1080","","11166.19999999553","79.89","img/238/5.5/0.5/bw/001.png","","","appealing"
"","","","","","animation","134","1181999","0.0-134.0","1920x1080","","7132.20000000298","96","img/314/5.5/2/bw/001.png","","","appealing"
"","","","","","animation","135","1185583","0.0-135.0","1920x1080","","3581.10000000149","0","img/314/2.5/1.5/bw/001.png","","","appealing"
"","","","","","animation","136","1189049","0.0-136.0","1920x1080","","3465.2999999970198","0","img/314/3.5/1.5/bw/001.png","","","appealing"
"","","","","","animation","137","1193207","0.0-137.0","1920x1080","","4157.10000000149","0.40","img/117/4/1/bw/001.png","","","appealing"
"","","","","","animation","138","1197607","0.0-138.0","1920x1080","","4398.5","4.50","img/314/4.5/2/bw/001.png","","","appealing"
"","","","","","animation","139","1205423","0.0-139.0","1920x1080","","7814.89999999851","89.81","img/314/5.5/1/bw/001.png","","","appealing"
"","","","","","animation","140","1215483","0.0-140.0","1920x1080","","10058.89999999851","5","img/117/4/1.5/bw/001.png","","","appealing"
"","","","","","animation","141","1223727","0.0-141.0","1920x1080","","8242.89999999851","0.13","img/117/3.5/1.5/bw/001.png","","","appealing"
"","","","","","animation","142","1227034","0.0-142.0","1920x1080","","3304.6999999955297","0.13","img/117/4/0.5/bw/001.png","","","appealing"
"","","","","","animation","143","1234751","0.0-143.0","1920x1080","","7715.79999999702","84.92","img/314/5.5/1.5/bw/001.png","","","appealing"
"","","","","","animation","144","1238668","0.0-144.0","1920x1080","","3916.10000000149","0.40","img/117/3.5/0.5/bw/001.png","","","appealing"
"","","","","","animation","145","1242433","0.0-145.0","1920x1080","","3763.2000000029802","0","img/238/3.5/1/bw/001.png","","","appealing"
"","","","","","animation","146","1246716","0.0-146.0","1920x1080","","4282","69.84","img/117/5.5/0.5/bw/001.png","","","appealing"
"","","","","","animation","147","1249367","0.0-147.0","1920x1080","","2649.89999999851","0","img/117/2.5/2/bw/001.png","","","appealing"
"","","","","","animation","148","1252367","0.0-148.0","1920x1080","","2998.89999999851","5.16","img/117/4.5/0.66667/bw/001.png","","","appealing"
"","","","","","animation","149","1257319","0.0-149.0","1920x1080","","4951.10000000149","0.13","img/238/3.5/2/bw/001.png","","","appealing"
"","","","","","animation","150","1263760","0.0-150.0","1920x1080","","6439.10000000149","65.08","img/314/5.5/0.5/bw/001.png","","","appealing"
"","","","","","animation","151","1266792","0.0-151.0","1920x1080","","3030.6999999955297","0","img/117/2.5/1.5/bw/001.png","","","appealing"
"","","","","","animation","152","1278176","0.0-152.0","1920x1080","","11382.89999999851","4.50","img/238/4.5/1/bw/001.png","","","appealing"
"","","","","","animation","153","1286616","0.0-153.0","1920x1080","","8439.60000000149","9.92","img/238/4/2/bw/001.png","","","appealing"
"","","","","","animation","154","1303500","0.0-154.0","1920x1080","","16882.89999999851","25.13","img/314/4.5/1.5/bw/001.png","","","appealing"
"","","","","","animation","155","1319434","0.0-155.0","1920x1080","","15932.20000000298","39.68","img/238/4.5/2/bw/001.png","","","appealing"
"","","","","","animation","156","1322903","0.0-156.0","1920x1080","","3468.10000000149","0.00","img/238/2.5/2/bw/001.png","","","appealing"
"","","","","","animation","157","1330959","0.0-157.0","1920x1080","","8055.0999999940395","100","img/238/5.5/1/bw/001.png","","","appealing"
"","","","","","animation","158","1334027","0.0-158.0","1920x1080","","3065.4000000059605","4.89","img/314/4/0.66667/bw/001.png","","","appealing"
"","","","","","html-button-response","159","1352808","0.0-159.0","1920x1080","","18778.60000000149","","<div class=""intro"">You are about to view a new series of animations.<br><br></div><div class=""intro"">You will evaluate them based on a different descriptor.<br><br></div><div class=""intro"">Move the slider to indicate how <strong style=""text-transform:capitalize"">NATURAL</strong> you find each animation.<br><br></div><div class=""intro"">0 = Least Natural<br></div><div class=""intro"">1 = Most Natural<br><br></div><div class=""intro"">Remember to use the <strong><em>entire range</em></strong> of the slider to make your ratings.<br></div><div class=""intro"">Please <strong><em>take your time</em></strong> and carefully consider each rating you make.<br><br></div>","0","",""
"","","","","","call-function","160","1352808","0.0-160.0","1920x1080","","","","","","",""
"","","","","","animation","161","1375055","0.0-161.0","1920x1080","","22246.60000000149","74.74","img/117/3.5/0.5/bw/001.png","","","natural"
"","","","","","animation","162","1386282","0.0-162.0","1920x1080","","11224","25.13","img/117/5.5/0.5/bw/001.png","","","natural"
"","","","","","animation","163","1392887","0.0-163.0","1920x1080","","6602.70000000298","80.42","img/314/3.5/2/bw/001.png","","","natural"
"","","","","","animation","164","1404159","0.0-164.0","1920x1080","","11271","70.24","img/117/3.5/1.5/bw/001.png","","","natural"
"","","","","","animation","165","1409943","0.0-165.0","1920x1080","","5782.89999999851","5.16","img/117/2.5/1/bw/001.png","","","natural"
"","","","","","animation","166","1415919","0.0-166.0","1920x1080","","5974.20000000298","79.89","img/238/4.5/0.5/bw/001.png","","","natural"
"","","","","","animation","167","1423087","0.0-167.0","1920x1080","","7167.30000000447","84.52","img/117/3.5/1/bw/001.png","","","natural"
"","","","","","animation","168","1429887","0.0-168.0","1920x1080","","6798.89999999851","14.95","img/314/2.5/0.5/bw/001.png","","","natural"
"","","","","","animation","169","1438543","0.0-169.0","1920x1080","","8654.69999999553","74.74","img/314/4.5/1.5/bw/001.png","","","natural"
"","","","","","animation","170","1445143","0.0-170.0","1920x1080","","6598.5999999940395","10","img/314/5.5/0.5/bw/001.png","","","natural"
"","","","","","animation","171","1452832","0.0-171.0","1920x1080","","7688.39999999851","84.92","img/117/5.5/1.5/bw/001.png","","","natural"
"","","","","","animation","172","1459482","0.0-172.0","1920x1080","","6648.69999999553","10","img/238/3.5/1/bw/001.png","","","natural"
"","","","","","animation","173","1464882","0.0-173.0","1920x1080","","5399","0","img/238/3.5/0.66667/bw/001.png","","","natural"
"","","","","","animation","174","1471732","0.0-174.0","1920x1080","","6848.9000000059605","89.81","img/117/2.5/2/bw/001.png","","","natural"
"","","","","","animation","175","1476150","0.0-175.0","1920x1080","","4417.30000000447","0.40","img/314/2.5/0.66667/bw/001.png","","","natural"
"","","","","","animation","176","1481086","0.0-176.0","1920x1080","","4935.0999999940395","84.66","img/117/2.5/1.5/bw/001.png","","","natural"
"","","","","","animation","177","1493632","0.0-177.0","1920x1080","","12544.30000000447","74.74","img/117/3.5/0.66667/bw/001.png","","","natural"
"","","","","","animation","178","1502071","0.0-178.0","1920x1080","","8436.60000000149","75.00","img/314/2.5/1.5/bw/001.png","","","natural"
"","","","","","animation","179","1505599","0.0-179.0","1920x1080","","3526.60000000149","0","img/117/2.5/0.5/bw/001.png","","","natural"
"","","","","","animation","180","1516615","0.0-180.0","1920x1080","","11015.5","9.92","img/314/5.5/1.5/bw/001.png","","","natural"
"","","","","","animation","181","1542599","0.0-181.0","1920x1080","","25981.79999999702","19.84","img/314/4/1.5/bw/001.png","","","natural"
"","","","","","animation","182","1551151","0.0-182.0","1920x1080","","8551.09999999404","30.03","img/238/5.5/0.66667/bw/001.png","","","natural"
"","","","","","animation","183","1556855","0.0-183.0","1920x1080","","5701.79999999702","69.84","img/238/4.5/0.66667/bw/001.png","","","natural"
"","","","","","animation","184","1560799","0.0-184.0","1920x1080","","3942.5999999940395","74.87","img/314/3.5/1/bw/001.png","","","natural"
"","","","","","animation","185","1572222","0.0-185.0","1920x1080","","11423","79.89","img/238/4/1/bw/001.png","","","natural"
"","","","","","animation","186","1605682","0.0-186.0","1920x1080","","33457.89999999851","35.19","img/314/4/2/bw/001.png","","","natural"
"","","","","","animation","187","1624215","0.0-187.0","1920x1080","","18532.40000000596","75","img/314/4/1/bw/001.png","","","natural"
"","","","","","animation","188","1632865","0.0-188.0","1920x1080","","8648.5","84.79","img/314/2.5/2/bw/001.png","","","natural"
"","","","","","animation","189","1637023","0.0-189.0","1920x1080","","4156.5","5.29","img/238/3.5/0.5/bw/001.png","","","natural"
"","","","","","animation","190","1640871","0.0-190.0","1920x1080","","3847","25.26","img/238/3.5/1.5/bw/001.png","","","natural"
"","","","","","animation","191","1644138","0.0-191.0","1920x1080","","3266.10000000149","64.81","img/117/4/0.66667/bw/001.png","","","natural"
"","","","","","animation","192","1647582","0.0-192.0","1920x1080","","3442.7000000029802","74.87","img/314/3.5/1.5/bw/001.png","","","natural"
"","","","","","animation","193","1656207","0.0-193.0","1920x1080","","8623.39999999851","85.32","img/238/2.5/1.5/bw/001.png","","","natural"
"","","","","","animation","194","1660135","0.0-194.0","1920x1080","","3926.2999999970198","10.19","img/238/5.5/0.5/bw/001.png","","","natural"
"","","","","","animation","195","1669718","0.0-195.0","1920x1080","","9581.90000000596","70","img/117/3.5/2/bw/001.png","","","natural"
"","","","","","animation","196","1685071","0.0-196.0","1920x1080","","15351.39999999851","15","img/117/5.5/2/bw/001.png","","","natural"
"","","","","","animation","197","1695639","0.0-197.0","1920x1080","","10566","70","img/314/4.5/1/bw/001.png","","","natural"
"","","","","","animation","198","1700391","0.0-198.0","1920x1080","","4750.89999999851","4.76","img/314/2.5/1/bw/001.png","","","natural"
"","","","","","animation","199","1710640","0.0-199.0","1920x1080","","10247","74.74","img/117/4.5/1/bw/001.png","","","natural"
"","","","","","animation","200","1726299","0.0-200.0","1920x1080","","15658.09999999404","20","img/238/5.5/2/bw/001.png","","","natural"
"","","","","","animation","201","1739416","0.0-201.0","1920x1080","","13115.60000000149","69.84","img/238/4.5/1/bw/001.png","","","natural"
"","","","","","animation","202","1748551","0.0-202.0","1920x1080","","9131.5","4.89","img/117/2.5/0.66667/bw/001.png","","","natural"
"","","","","","animation","203","1764840","0.0-203.0","1920x1080","","16286.39999999851","64.95","img/117/4/1.5/bw/001.png","","","natural"
"","","","","","animation","204","1769000","0.0-204.0","1920x1080","","4158.60000000149","0","img/238/2.5/0.5/bw/001.png","","","natural"
"","","","","","animation","205","1777350","0.0-205.0","1920x1080","","8348.39999999851","5","img/238/4/0.66667/bw/001.png","","","natural"
"","","","","","animation","206","1810882","0.0-206.0","1920x1080","","33531.20000000298","70","img/117/4.5/1.5/bw/001.png","","","natural"
"","","","","","animation","207","1816077","0.0-207.0","1920x1080","","5193","15.48","img/314/3.5/0.66667/bw/001.png","","","natural"
"","","","","","animation","208","1829224","0.0-208.0","1920x1080","","13111.30000000447","9.92","img/238/4/0.5/bw/001.png","","","natural"
"","","","","","animation","209","1840434","0.0-209.0","1920x1080","","11206.79999999702","4.89","img/314/4/0.66667/bw/001.png","","","natural"
"","","","","","animation","210","1845183","0.0-210.0","1920x1080","","4747.79999999702","25.00","img/238/5.5/1/bw/001.png","","","natural"
"","","","","","animation","211","1850784","0.0-211.0","1920x1080","","5599","69.71","img/117/5.5/1/bw/001.png","","","natural"
"","","","","","animation","212","1864526","0.0-212.0","1920x1080","","13741.29999999702","4.89","img/314/4.5/0.5/bw/001.png","","","natural"
"","","","","","animation","213","1871517","0.0-213.0","1920x1080","","6987.29999999702","69.97","img/117/4.5/2/bw/001.png","","","natural"
"","","","","","animation","214","1877900","0.0-214.0","1920x1080","","6381.89999999851","5.29","img/117/4/0.5/bw/001.png","","","natural"
"","","","","","animation","215","1894684","0.0-215.0","1920x1080","","16782","75","img/314/4.5/2/bw/001.png","","","natural"
"","","","","","animation","216","1897585","0.0-216.0","1920x1080","","2899.3000000044703","0","img/238/2.5/1/bw/001.png","","","natural"
"","","","","","animation","217","1900017","0.0-217.0","1920x1080","","2430.7000000029802","0.40","img/238/2.5/0.66667/bw/001.png","","","natural"
"","","","","","animation","218","1913641","0.0-218.0","1920x1080","","13623.19999999553","30.16","img/238/4.5/2/bw/001.png","","","natural"
"","","","","","animation","219","1918705","0.0-219.0","1920x1080","","5062.29999999702","0.13","img/238/2.5/2/bw/001.png","","","natural"
"","","","","","animation","220","1927209","0.0-220.0","1920x1080","","8501.70000000298","45","img/238/5.5/1.5/bw/001.png","","","natural"
"","","","","","animation","221","1933584","0.0-221.0","1920x1080","","6373.10000000149","4.89","img/314/4.5/0.66667/bw/001.png","","","natural"
"","","","","","animation","222","1948225","0.0-222.0","1920x1080","","14640.10000000149","14.81","img/238/4/1.5/bw/001.png","","","natural"
"","","","","","animation","223","1951284","0.0-223.0","1920x1080","","3057.39999999851","70.24","img/238/4/2/bw/001.png","","","natural"
"","","","","","animation","224","1958769","0.0-224.0","1920x1080","","7483.5","80","img/117/4/1/bw/001.png","","","natural"
"","","","","","animation","225","1966985","0.0-225.0","1920x1080","","8214.70000000298","69.84","img/117/5.5/0.66667/bw/001.png","","","natural"
"","","","","","animation","226","1971701","0.0-226.0","1920x1080","","4714.80000000447","0","img/314/4/0.5/bw/001.png","","","natural"
"","","","","","animation","227","1983105","0.0-227.0","1920x1080","","11403.10000000149","20.37","img/314/5.5/1/bw/001.png","","","natural"
"","","","","","animation","228","1986768","0.0-228.0","1920x1080","","3659","69.58","img/238/3.5/2/bw/001.png","","","natural"
"","","","","","animation","229","1991651","0.0-229.0","1920x1080","","4882","0.40","img/117/4.5/0.5/bw/001.png","","","natural"
"","","","","","animation","230","1994753","0.0-230.0","1920x1080","","3101","0","img/238/4.5/1.5/bw/001.png","","","natural"
"","","","","","animation","231","2001785","0.0-231.0","1920x1080","","7030.60000000149","4.76","img/314/3.5/0.5/bw/001.png","","","natural"
"","","","","","animation","232","2006787","0.0-232.0","1920x1080","","5000.70000000298","54.89","img/314/5.5/2/bw/001.png","","","natural"
"","","","","","animation","233","2011737","0.0-233.0","1920x1080","","4948.39999999851","75.00","img/117/4/2/bw/001.png","","","natural"
"","","","","","animation","234","2016553","0.0-234.0","1920x1080","","4814.70000000298","25.26","img/314/5.5/0.66667/bw/001.png","","","natural"
"","","","","","animation","235","2026718","0.0-235.0","1920x1080","","10163.39999999851","15","img/117/4.5/0.66667/bw/001.png","","","natural"
"","","","","","html-button-response","236","2042868","0.0-236.0","1920x1080","","16148.5","","<div class=""intro"">You are about to view a new series of animations.<br><br></div><div class=""intro"">You will evaluate them based on a different descriptor.<br><br></div><div class=""intro"">Move the slider to indicate how <strong style=""text-transform:capitalize"">INTERESTING</strong> you find each animation.<br><br></div><div class=""intro"">0 = Least Interesting<br></div><div class=""intro"">1 = Most Interesting<br><br></div><div class=""intro"">Remember to use the <strong><em>entire range</em></strong> of the slider to make your ratings.<br></div><div class=""intro"">Please <strong><em>take your time</em></strong> and carefully consider each rating you make.<br><br></div>","0","",""
"","","","","","call-function","237","2042869","0.0-237.0","1920x1080","","","","","","",""
"","","","","","animation","238","2055101","0.0-238.0","1920x1080","","12231.79999999702","70.24","img/314/4.5/2/bw/001.png","","","interesting"
"","","","","","animation","239","2061801","0.0-239.0","1920x1080","","6698.79999999702","75.40","img/238/3.5/2/bw/001.png","","","interesting"
"","","","","","animation","240","2078284","0.0-240.0","1920x1080","","16482.19999999553","80.03","img/117/5.5/1.5/bw/001.png","","","interesting"
"","","","","","animation","241","2083751","0.0-241.0","1920x1080","","5465.39999999851","95","img/314/5.5/0.5/bw/001.png","","","interesting"
"","","","","","animation","242","2087701","0.0-242.0","1920x1080","","3948.5","10.19","img/238/4/0.5/bw/001.png","","","interesting"
"","","","","","animation","243","2090117","0.0-243.0","1920x1080","","2415.39999999851","0","img/314/2.5/1.5/bw/001.png","","","interesting"
"","","","","","animation","244","2094401","0.0-244.0","1920x1080","","4282.19999999553","10.45","img/314/4.5/0.5/bw/001.png","","","interesting"
"","","","","","animation","245","2099667","0.0-245.0","1920x1080","","5265.30000000447","15.21","img/314/4.5/1/bw/001.png","","","interesting"
"","","","","","animation","246","2103689","0.0-246.0","1920x1080","","4020.2000000029802","84.92","img/238/5.5/0.66667/bw/001.png","","","interesting"
"","","","","","animation","247","2109384","0.0-247.0","1920x1080","","5693.69999999553","84.52","img/117/4.5/1.5/bw/001.png","","","interesting"
"","","","","","animation","248","2114900","0.0-248.0","1920x1080","","5515.19999999553","79.63","img/238/5.5/1.5/bw/001.png","","","interesting"
"","","","","","animation","249","2122651","0.0-249.0","1920x1080","","7748.79999999702","5","img/314/3.5/0.5/bw/001.png","","","interesting"
"","","","","","animation","250","2126537","0.0-250.0","1920x1080","","3884.5","0","img/238/3.5/1/bw/001.png","","","interesting"
"","","","","","animation","251","2130737","0.0-251.0","1920x1080","","4199.10000000149","10.05","img/238/4.5/0.5/bw/001.png","","","interesting"
"","","","","","animation","252","2136721","0.0-252.0","1920x1080","","5981.69999999553","34.52","img/238/3.5/1.5/bw/001.png","","","interesting"
"","","","","","animation","253","2141103","0.0-253.0","1920x1080","","4380.29999999702","64.55","img/314/4/2/bw/001.png","","","interesting"
"","","","","","animation","254","2145609","0.0-254.0","1920x1080","","4504.29999999702","4.76","img/117/3.5/0.66667/bw/001.png","","","interesting"
"","","","","","animation","255","2150355","0.0-255.0","1920x1080","","4743.60000000149","34.92","img/117/4.5/1/bw/001.png","","","interesting"
"","","","","","animation","256","2154151","0.0-256.0","1920x1080","","3794.5","4.76","img/117/4/0.5/bw/001.png","","","interesting"
"","","","","","animation","257","2165441","0.0-257.0","1920x1080","","11289.30000000447","10.32","img/117/5.5/0.66667/bw/001.png","","","interesting"
"","","","","","animation","258","2174468","0.0-258.0","1920x1080","","9025.10000000149","0.13","img/314/3.5/0.66667/bw/001.png","","","interesting"
"","","","","","animation","259","2181109","0.0-259.0","1920x1080","","6639.39999999851","5.29","img/117/3.5/1.5/bw/001.png","","","interesting"
"","","","","","animation","260","2185785","0.0-260.0","1920x1080","","4674.5","84.66","img/238/5.5/1/bw/001.png","","","interesting"
"","","","","","animation","261","2189901","0.0-261.0","1920x1080","","4114.10000000149","84.92","img/314/4.5/1.5/bw/001.png","","","interesting"
"","","","","","animation","262","2197018","0.0-262.0","1920x1080","","7115.70000000298","74.87","img/314/5.5/2/bw/001.png","","","interesting"
"","","","","","animation","263","2201936","0.0-263.0","1920x1080","","4917","0","img/117/2.5/0.66667/bw/001.png","","","interesting"
"","","","","","animation","264","2207218","0.0-264.0","1920x1080","","5280.5","4.89","img/314/4/0.5/bw/001.png","","","interesting"
"","","","","","animation","265","2213417","0.0-265.0","1920x1080","","6197.20000000298","4.89","img/238/4.5/0.66667/bw/001.png","","","interesting"
"","","","","","animation","266","2220601","0.0-266.0","1920x1080","","7179.69999999553","94.58","img/117/5.5/2/bw/001.png","","","interesting"
"","","","","","animation","267","2226318","0.0-267.0","1920x1080","","5715.69999999553","70.11","img/314/3.5/1/bw/001.png","","","interesting"
"","","","","","animation","268","2230568","0.0-268.0","1920x1080","","4248.39999999851","5.29","img/117/3.5/0.5/bw/001.png","","","interesting"
"","","","","","animation","269","2241968","0.0-269.0","1920x1080","","11398.79999999702","5","img/314/4.5/0.66667/bw/001.png","","","interesting"
"","","","","","animation","270","2247350","0.0-270.0","1920x1080","","5381.29999999702","74.60","img/238/4/2/bw/001.png","","","interesting"
"","","","","","animation","271","2256068","0.0-271.0","1920x1080","","8716.09999999404","85","img/314/5.5/1/bw/001.png","","","interesting"
"","","","","","animation","272","2263008","0.0-272.0","1920x1080","","6938.70000000298","89.95","img/117/5.5/1/bw/001.png","","","interesting"
"","","","","","animation","273","2270970","0.0-273.0","1920x1080","","7958.89999999851","0","img/117/4/0.66667/bw/001.png","","","interesting"
"","","","","","animation","274","2275485","0.0-274.0","1920x1080","","4513.70000000298","0","img/238/3.5/0.5/bw/001.png","","","interesting"
"","","","","","animation","275","2280085","0.0-275.0","1920x1080","","4598.89999999851","89.95","img/238/5.5/2/bw/001.png","","","interesting"
"","","","","","animation","276","2284073","0.0-276.0","1920x1080","","3986.60000000149","0","img/117/4.5/0.5/bw/001.png","","","interesting"
"","","","","","animation","277","2291584","0.0-277.0","1920x1080","","7508.30000000447","4.63","img/238/4/0.66667/bw/001.png","","","interesting"
"","","","","","animation","278","2295151","0.0-278.0","1920x1080","","3566.1999999955297","0","img/314/2.5/1/bw/001.png","","","interesting"
"","","","","","animation","279","2297890","0.0-279.0","1920x1080","","2737","0.13","img/238/2.5/1/bw/001.png","","","interesting"
"","","","","","animation","280","2301105","0.0-280.0","1920x1080","","3214.2999999970198","0.13","img/238/2.5/2/bw/001.png","","","interesting"
"","","","","","animation","281","2306172","0.0-281.0","1920x1080","","5064.79999999702","74.60","img/314/4/1.5/bw/001.png","","","interesting"
"","","","","","animation","282","2312028","0.0-282.0","1920x1080","","5853.39999999851","75.40","img/238/4/1.5/bw/001.png","","","interesting"
"","","","","","animation","283","2316274","0.0-283.0","1920x1080","","4244.5","30.03","img/117/3.5/1/bw/001.png","","","interesting"
"","","","","","animation","284","2318890","0.0-284.0","1920x1080","","2614.7999999970198","0.40","img/117/2.5/1.5/bw/001.png","","","interesting"
"","","","","","animation","285","2322719","0.0-285.0","1920x1080","","3827.5","100","img/238/5.5/0.5/bw/001.png","","","interesting"
"","","","","","animation","286","2327110","0.0-286.0","1920x1080","","4389.19999999553","70","img/117/4/2/bw/001.png","","","interesting"
"","","","","","animation","287","2339810","0.0-287.0","1920x1080","","12698.60000000149","35","img/117/4.5/0.66667/bw/001.png","","","interesting"
"","","","","","animation","288","2342540","0.0-288.0","1920x1080","","2728.2999999970198","0.00","img/238/2.5/0.5/bw/001.png","","","interesting"
"","","","","","animation","289","2348074","0.0-289.0","1920x1080","","5532.39999999851","29.63","img/238/4/1/bw/001.png","","","interesting"
"","","","","","animation","290","2352857","0.0-290.0","1920x1080","","4781.79999999702","80.16","img/314/5.5/1.5/bw/001.png","","","interesting"
"","","","","","animation","291","2358760","0.0-291.0","1920x1080","","5901.60000000149","90.08","img/314/5.5/0.66667/bw/001.png","","","interesting"
"","","","","","animation","292","2361474","0.0-292.0","1920x1080","","2708.8000000044703","0.00","img/117/2.5/2/bw/001.png","","","interesting"
"","","","","","animation","293","2366754","0.0-293.0","1920x1080","","5278.39999999851","40.48","img/314/3.5/2/bw/001.png","","","interesting"
"","","","","","animation","294","2376802","0.0-294.0","1920x1080","","10047","30.03","img/314/3.5/1.5/bw/001.png","","","interesting"
"","","","","","animation","295","2382258","0.0-295.0","1920x1080","","5451.29999999702","69.71","img/238/4.5/2/bw/001.png","","","interesting"
"","","","","","animation","296","2385409","0.0-296.0","1920x1080","","3148.89999999851","0","img/314/2.5/2/bw/001.png","","","interesting"
"","","","","","animation","297","2394968","0.0-297.0","1920x1080","","9556.20000000298","30.29","img/117/4/1/bw/001.png","","","interesting"
"","","","","","animation","298","2397825","0.0-298.0","1920x1080","","2855.8000000044703","0.13","img/238/2.5/0.66667/bw/001.png","","","interesting"
"","","","","","animation","299","2401318","0.0-299.0","1920x1080","","3491","0.40","img/238/3.5/0.66667/bw/001.png","","","interesting"
"","","","","","animation","300","2404485","0.0-300.0","1920x1080","","3166","0.40","img/314/2.5/0.5/bw/001.png","","","interesting"
"","","","","","animation","301","2410586","0.0-301.0","1920x1080","","6099.80000000447","10.32","img/314/4/0.66667/bw/001.png","","","interesting"
"","","","","","animation","302","2416192","0.0-302.0","1920x1080","","5603.5999999940395","19.97","img/238/4.5/1.5/bw/001.png","","","interesting"
"","","","","","animation","303","2420518","0.0-303.0","1920x1080","","4324.79999999702","0.00","img/117/2.5/1/bw/001.png","","","interesting"
"","","","","","animation","304","2424085","0.0-304.0","1920x1080","","3565.60000000149","0.13","img/238/2.5/1.5/bw/001.png","","","interesting"
"","","","","","animation","305","2429107","0.0-305.0","1920x1080","","5020","40.34","img/314/4/1/bw/001.png","","","interesting"
"","","","","","animation","306","2438090","0.0-306.0","1920x1080","","8981.5","95","img/117/5.5/0.5/bw/001.png","","","interesting"
"","","","","","animation","307","2444449","0.0-307.0","1920x1080","","6357.19999999553","74.60","img/117/4.5/2/bw/001.png","","","interesting"
"","","","","","animation","308","2448675","0.0-308.0","1920x1080","","4224","0.13","img/314/2.5/0.66667/bw/001.png","","","interesting"
"","","","","","animation","309","2459585","0.0-309.0","1920x1080","","10908.70000000298","75","img/117/4/1.5/bw/001.png","","","interesting"
"","","","","","animation","310","2462188","0.0-310.0","1920x1080","","2598.7999999970198","0","img/117/2.5/0.5/bw/001.png","","","interesting"
"","","","","","animation","311","2473020","0.0-311.0","1920x1080","","10830.80000000447","64.81","img/117/3.5/2/bw/001.png","","","interesting"
"","","","","","animation","312","2481258","0.0-312.0","1920x1080","","8236.19999999553","65.21","img/238/4.5/1/bw/001.png","","","interesting"
"","","","","","html-button-response","313","2516985","0.0-313.0","1920x1080","","35725.60000000149","","<div class=""intro"">You are about to view a new series of animations.<br><br></div><div class=""intro"">You will evaluate them based on a different descriptor.<br><br></div><div class=""intro"">Move the slider to indicate how <strong style=""text-transform:capitalize"">RELAXING</strong> you find each animation.<br><br></div><div class=""intro"">0 = Least Relaxing<br></div><div class=""intro"">1 = Most Relaxing<br><br></div><div class=""intro"">Remember to use the <strong><em>entire range</em></strong> of the slider to make your ratings.<br></div><div class=""intro"">Please <strong><em>take your time</em></strong> and carefully consider each rating you make.<br><br></div>","0","",""
"","","","","","call-function","314","2516990","0.0-314.0","1920x1080","","","","","","",""
"","","","","","animation","315","2526835","0.0-315.0","1920x1080","","9844.39999999851","74.60","img/238/4.5/1.5/bw/001.png","","","relaxing"
"","","","","","animation","316","2533568","0.0-316.0","1920x1080","","6731.5","0.40","img/314/4/0.5/bw/001.png","","","relaxing"
"","","","","","animation","317","2537938","0.0-317.0","1920x1080","","4367.89999999851","0","img/117/4/1/bw/001.png","","","relaxing"
"","","","","","animation","318","2544552","0.0-318.0","1920x1080","","6611.70000000298","29.89","img/238/4.5/1/bw/001.png","","","relaxing"
"","","","","","animation","319","2549242","0.0-319.0","1920x1080","","4689.4000000059605","100","img/238/5.5/1/bw/001.png","","","relaxing"
"","","","","","animation","320","2561408","0.0-320.0","1920x1080","","12164.30000000447","20.24","img/314/4.5/2/bw/001.png","","","relaxing"
"","","","","","animation","321","2566553","0.0-321.0","1920x1080","","5142.5","69.97","img/117/5.5/0.5/bw/001.png","","","relaxing"
"","","","","","animation","322","2573523","0.0-322.0","1920x1080","","6968.80000000447","24.87","img/314/4/1/bw/001.png","","","relaxing"
"","","","","","animation","323","2578743","0.0-323.0","1920x1080","","5218.10000000149","14.81","img/314/3.5/2/bw/001.png","","","relaxing"
"","","","","","animation","324","2581979","0.0-324.0","1920x1080","","3233.5999999940395","0.00","img/238/2.5/0.66667/bw/001.png","","","relaxing"
"","","","","","animation","325","2585751","0.0-325.0","1920x1080","","3769.89999999851","74.60","img/314/5.5/2/bw/001.png","","","relaxing"
"","","","","","animation","326","2594134","0.0-326.0","1920x1080","","8382.5","40.21","img/314/4.5/1/bw/001.png","","","relaxing"
"","","","","","animation","327","2601973","0.0-327.0","1920x1080","","7836.79999999702","69.71","img/117/4/2/bw/001.png","","","relaxing"
"","","","","","animation","328","2607675","0.0-328.0","1920x1080","","5700.29999999702","5.16","img/238/4.5/0.5/bw/001.png","","","relaxing"
"","","","","","animation","329","2617019","0.0-329.0","1920x1080","","9341.30000000447","84.66","img/238/4.5/2/bw/001.png","","","relaxing"
"","","","","","animation","330","2620933","0.0-330.0","1920x1080","","3913.39999999851","0","img/238/2.5/2/bw/001.png","","","relaxing"
"","","","","","animation","331","2627518","0.0-331.0","1920x1080","","6582.5","69.58","img/314/4.5/1.5/bw/001.png","","","relaxing"
"","","","","","animation","332","2630562","0.0-332.0","1920x1080","","3042.60000000149","0","img/314/2.5/1.5/bw/001.png","","","relaxing"
"","","","","","animation","333","2636773","0.0-333.0","1920x1080","","6208.29999999702","40.21","img/314/4.5/0.5/bw/001.png","","","relaxing"
"","","","","","animation","334","2642227","0.0-334.0","1920x1080","","5453.19999999553","10.19","img/117/3.5/1.5/bw/001.png","","","relaxing"
"","","","","","animation","335","2648092","0.0-335.0","1920x1080","","5861.79999999702","14.81","img/238/4/1/bw/001.png","","","relaxing"
"","","","","","animation","336","2655691","0.0-336.0","1920x1080","","7597.60000000149","40","img/238/4/0.5/bw/001.png","","","relaxing"
"","","","","","animation","337","2672734","0.0-337.0","1920x1080","","17041.39999999851","95","img/314/5.5/0.5/bw/001.png","","","relaxing"
"","","","","","animation","338","2676601","0.0-338.0","1920x1080","","3864.8000000044703","0","img/117/2.5/1.5/bw/001.png","","","relaxing"
"","","","","","animation","339","2683252","0.0-339.0","1920x1080","","6648.70000000298","95","img/314/5.5/1.5/bw/001.png","","","relaxing"
"","","","","","animation","340","2687901","0.0-340.0","1920x1080","","4647.29999999702","15.48","img/314/3.5/1/bw/001.png","","","relaxing"
"","","","","","animation","341","2693921","0.0-341.0","1920x1080","","6018.5","15.08","img/238/4/1.5/bw/001.png","","","relaxing"
"","","","","","animation","342","2697868","0.0-342.0","1920x1080","","3945.39999999851","10.32","img/117/4.5/0.66667/bw/001.png","","","relaxing"
"","","","","","animation","343","2706471","0.0-343.0","1920x1080","","8601.69999999553","95","img/117/5.5/1/bw/001.png","","","relaxing"
"","","","","","animation","344","2709702","0.0-344.0","1920x1080","","3228.6999999955297","0.13","img/314/2.5/0.66667/bw/001.png","","","relaxing"
"","","","","","animation","345","2712652","0.0-345.0","1920x1080","","2948.2999999970198","0.13","img/238/3.5/0.66667/bw/001.png","","","relaxing"
"","","","","","animation","346","2716127","0.0-346.0","1920x1080","","3473.89999999851","0","img/314/3.5/0.66667/bw/001.png","","","relaxing"
"","","","","","animation","347","2721711","0.0-347.0","1920x1080","","5582.20000000298","100","img/238/5.5/1.5/bw/001.png","","","relaxing"
"","","","","","animation","348","2726401","0.0-348.0","1920x1080","","4688.30000000447","69.97","img/117/4.5/1.5/bw/001.png","","","relaxing"
"","","","","","animation","349","2729987","0.0-349.0","1920x1080","","3582.60000000149","0.00","img/314/4/0.66667/bw/001.png","","","relaxing"
"","","","","","animation","350","2736355","0.0-350.0","1920x1080","","6365.89999999851","9.66","img/238/4/2/bw/001.png","","","relaxing"
"","","","","","animation","351","2739502","0.0-351.0","1920x1080","","3145.6999999955297","100","img/238/5.5/2/bw/001.png","","","relaxing"
"","","","","","animation","352","2742820","0.0-352.0","1920x1080","","3314.89999999851","0.40","img/117/3.5/2/bw/001.png","","","relaxing"
"","","","","","animation","353","2745620","0.0-353.0","1920x1080","","2798","0","img/238/2.5/1/bw/001.png","","","relaxing"
"","","","","","animation","354","2748813","0.0-354.0","1920x1080","","3191.7000000029802","0.13","img/117/4/0.5/bw/001.png","","","relaxing"
"","","","","","animation","355","2753248","0.0-355.0","1920x1080","","4432.79999999702","40.34","img/238/5.5/0.5/bw/001.png","","","relaxing"
"","","","","","animation","356","2761036","0.0-356.0","1920x1080","","7785.89999999851","20.11","img/117/4.5/1/bw/001.png","","","relaxing"
"","","","","","animation","357","2764146","0.0-357.0","1920x1080","","3108.60000000149","0","img/314/2.5/0.5/bw/001.png","","","relaxing"
"","","","","","animation","358","2767429","0.0-358.0","1920x1080","","3281","0.40","img/117/3.5/1/bw/001.png","","","relaxing"
"","","","","","animation","359","2770323","0.0-359.0","1920x1080","","2890.8000000044703","0.13","img/238/3.5/1/bw/001.png","","","relaxing"
"","","","","","animation","360","2777803","0.0-360.0","1920x1080","","7479","100","img/117/5.5/0.66667/bw/001.png","","","relaxing"
"","","","","","animation","361","2787459","0.0-361.0","1920x1080","","9653.90000000596","15.48","img/117/4/0.66667/bw/001.png","","","relaxing"
"","","","","","animation","362","2791220","0.0-362.0","1920x1080","","3757.7999999970198","89.95","img/314/5.5/1/bw/001.png","","","relaxing"
"","","","","","animation","363","2795337","0.0-363.0","1920x1080","","4116.10000000149","0","img/314/2.5/2/bw/001.png","","","relaxing"
"","","","","","animation","364","2798323","0.0-364.0","1920x1080","","2983.7999999970198","0.13","img/117/2.5/0.66667/bw/001.png","","","relaxing"
"","","","","","animation","365","2801003","0.0-365.0","1920x1080","","2678.60000000149","0","img/117/3.5/0.5/bw/001.png","","","relaxing"
"","","","","","animation","366","2806437","0.0-366.0","1920x1080","","5432.10000000149","19.97","img/117/4/1.5/bw/001.png","","","relaxing"
"","","","","","animation","367","2810848","0.0-367.0","1920x1080","","4409.29999999702","14.55","img/238/3.5/2/bw/001.png","","","relaxing"
"","","","","","animation","368","2813691","0.0-368.0","1920x1080","","2840.6999999955297","0.40","img/238/2.5/0.5/bw/001.png","","","relaxing"
"","","","","","animation","369","2818636","0.0-369.0","1920x1080","","4943.5","5.29","img/314/4.5/0.66667/bw/001.png","","","relaxing"
"","","","","","animation","370","2822628","0.0-370.0","1920x1080","","3989.7000000029802","0.13","img/314/3.5/0.5/bw/001.png","","","relaxing"
"","","","","","animation","371","2832803","0.0-371.0","1920x1080","","10173.20000000298","10.19","img/314/3.5/1.5/bw/001.png","","","relaxing"
"","","","","","animation","372","2837871","0.0-372.0","1920x1080","","5066.79999999702","94.97","img/314/5.5/0.66667/bw/001.png","","","relaxing"
"","","","","","animation","373","2842520","0.0-373.0","1920x1080","","4645.79999999702","90.08","img/238/5.5/0.66667/bw/001.png","","","relaxing"
"","","","","","animation","374","2846091","0.0-374.0","1920x1080","","3569.60000000149","29.89","img/117/4.5/0.5/bw/001.png","","","relaxing"
"","","","","","animation","375","2849212","0.0-375.0","1920x1080","","3119.2999999970198","0.40","img/238/3.5/1.5/bw/001.png","","","relaxing"
"","","","","","animation","376","2852648","0.0-376.0","1920x1080","","3433.5","0.13","img/238/3.5/0.5/bw/001.png","","","relaxing"
"","","","","","animation","377","2857221","0.0-377.0","1920x1080","","4570.80000000447","84.79","img/117/5.5/1.5/bw/001.png","","","relaxing"
"","","","","","animation","378","2860654","0.0-378.0","1920x1080","","3430.9000000059605","0","img/117/3.5/0.66667/bw/001.png","","","relaxing"
"","","","","","animation","379","2864937","0.0-379.0","1920x1080","","4281.19999999553","0","img/238/2.5/1.5/bw/001.png","","","relaxing"
"","","","","","animation","380","2870464","0.0-380.0","1920x1080","","5524.89999999851","0","img/117/2.5/1/bw/001.png","","","relaxing"
"","","","","","animation","381","2874278","0.0-381.0","1920x1080","","3812.2000000029802","0.13","img/117/2.5/0.5/bw/001.png","","","relaxing"
"","","","","","animation","382","2879671","0.0-382.0","1920x1080","","5391.39999999851","0.13","img/117/2.5/2/bw/001.png","","","relaxing"
"","","","","","animation","383","2883998","0.0-383.0","1920x1080","","4324.79999999702","5.29","img/238/4/0.66667/bw/001.png","","","relaxing"
"","","","","","animation","384","2887839","0.0-384.0","1920x1080","","3838.9000000059605","0.13","img/314/2.5/1/bw/001.png","","","relaxing"
"","","","","","animation","385","2895287","0.0-385.0","1920x1080","","7446.70000000298","30.03","img/238/4.5/0.66667/bw/001.png","","","relaxing"
"","","","","","animation","386","2899642","0.0-386.0","1920x1080","","4352.5999999940395","70.24","img/314/4/2/bw/001.png","","","relaxing"
"","","","","","animation","387","2905021","0.0-387.0","1920x1080","","5376.70000000298","69.97","img/117/4.5/2/bw/001.png","","","relaxing"
"","","","","","animation","388","2908172","0.0-388.0","1920x1080","","3149.5999999940395","65.34","img/314/4/1.5/bw/001.png","","","relaxing"
"","","","","","animation","389","2911239","0.0-389.0","1920x1080","","3064.3000000044703","95","img/117/5.5/2/bw/001.png","","","relaxing"
"","","","","","html-button-response","390","2946280","0.0-390.0","1920x1080","","35038.69999999553","","<strong>Study Debriefing</strong><br><p class=""debrief""><strong>Background:</strong> The patterns you rated are called <em>fractals</em>. The term fractal describes a class of irregular curves or shapes for which any suitably chosen part is similar in shape to a given larger or smaller part when magnified or reduced to the same size. Fractal properties are found throughout the natural and manmade world. The series of animations you saw today displayed animated fractal patterns of a varying complexity.</p><p class=""debrief""><strong>Purpose of this study:</strong> We hope to better understand how the perception of static fractals differs from the perception of animated fractals, and how the speed of the animated patterns influences people&apos;s perception of them. Fractals allow us to study the perception of aesthetic properties (e.g. the perceived level of beauty in an image) without using recognizable content, which makes them an excellent tool for studying abstract aesthetic judgement.</p><p class=""debrief""><strong>Your part:</strong> Your participation has helped us to further understand how humans perceive these patterns across different levels of speed and complexity. This research with allow us to better understand how the visual system and brain process our ever-changing visual environments.<p class=""debrief""><strong>Feedback and Further information:</strong> If you have additional questions about this study, please feel free to ask the researcher, Nathan Gonzales-Hess at nhess @ uoregon.edu. If you have any questions concerning your rights as a research participant, please contact Research Compliance Services, 5237 University of Oregon, Eugene, OR 97403, 541-346-2510, or email researchCompliance @ uoregon.edu. You can also email the Human Subjects Coordinator for psychology and linguistics research at hscoord @ uoregon.edu. ","0","",""
"","","","","","html-button-response","391","2948526","0.0-391.0","1920x1080","","2240.7999999970198","","Thank you for participating in this study. <br>Please click below to finish the experiment and submit your responses.<br><br>","0","",""
"true","","","","","fullscreen","392","2949550","0.0-392.0","1920x1080","13:46 7/10/2022","","","","","",""
