"success","timeout","failed_images","failed_audio","failed_video","trial_type","trial_index","time_elapsed","internal_node_id","resolution","timeStamp","rt","response","stimulus","button_pressed","value","descriptor"
"true","false","[]","[]","[]","preload","0","29305","0.0-0.0","1920x1080","","","","","","",""
"true","false","[]","[]","[]","preload","1","61503","0.0-1.0","1920x1080","","","","","","",""
"true","false","[]","[]","[]","preload","2","98181","0.0-2.0","1920x1080","","","","","","",""
"true","","","","","fullscreen","3","256209","0.0-3.0","1920x1080","13:2 4/11/2022","","","","","",""
"","","","","","survey-html-form","4","264852","0.0-4.0","1920x1080","","8640.699999988079","{""age"":""21"",""gender"":""f""}","","","",""
"","","","","","html-button-response","5","350004","0.0-5.0","1920x1080","","85150.90000003576","","<div class=""complex"">You are going to see a series of animations.<br><br></div><div class=""complex"">Move the slider to indicate how <strong style=""text-transform:capitalize"">COMPLEX</strong> you find each animation.<br><br></div><div class=""complex"">0 = Least Complex<br></div><div class=""complex"">1 = Most Complex<br><br></div><div class=""complex"">Remember to use the <strong><em>entire range</em></strong> of the slider to make your ratings.<br></div><div class=""complex"">Please <strong><em>take your time</em></strong> and carefully consider each rating you make.<br><br></div><div class=""complex"">The study has five sections and will take about 45 minutes to complete.<br><br></div>","0","",""
"","","","","","call-function","6","350005","0.0-6.0","1920x1080","","","","","","",""
"","","","","","animation","7","386228","0.0-7.0","1920x1080","","36220.5","78.57","img/238/2.5/1/bw/001.png","","","complex"
"","","","","","animation","8","395203","0.0-8.0","1920x1080","","8974.099999964237","25.00","img/314/4/2/bw/001.png","","","complex"
"","","","","","animation","9","399851","0.0-9.0","1920x1080","","4647.199999988079","33.07","img/117/4/2/bw/001.png","","","complex"
"","","","","","animation","10","404771","0.0-10.0","1920x1080","","4919","1.59","img/117/5.5/0.66667/bw/001.png","","","complex"
"","","","","","animation","11","410020","0.0-11.0","1920x1080","","5247.100000023842","0.40","img/314/5.5/0.66667/bw/001.png","","","complex"
"","","","","","animation","12","414252","0.0-12.0","1920x1080","","4231.299999952316","57.67","img/238/4/1.5/bw/001.png","","","complex"
"","","","","","animation","13","420396","0.0-13.0","1920x1080","","6142.700000047684","97","img/314/3.5/0.5/bw/001.png","","","complex"
"","","","","","animation","14","426452","0.0-14.0","1920x1080","","6055.199999988079","84.92","img/238/2.5/1.5/bw/001.png","","","complex"
"","","","","","animation","15","431724","0.0-15.0","1920x1080","","5271.399999976158","75.79","img/117/2.5/2/bw/001.png","","","complex"
"","","","","","animation","16","435980","0.0-16.0","1920x1080","","4254.699999988079","42.59","img/117/4/1/bw/001.png","","","complex"
"","","","","","animation","17","442068","0.0-17.0","1920x1080","","6087.199999988079","86.38","img/314/2.5/0.66667/bw/001.png","","","complex"
"","","","","","animation","18","449468","0.0-18.0","1920x1080","","7399.399999976158","36.24","img/117/4.5/0.66667/bw/001.png","","","complex"
"","","","","","animation","19","454347","0.0-19.0","1920x1080","","4878.799999952316","99","img/117/2.5/0.5/bw/001.png","","","complex"
"","","","","","animation","20","469987","0.0-20.0","1920x1080","","15639.100000023842","64.02","img/238/4.5/0.66667/bw/001.png","","","complex"
"","","","","","animation","21","476259","0.0-21.0","1920x1080","","6271.900000035763","62.30","img/117/3.5/1/bw/001.png","","","complex"
"","","","","","animation","22","482245","0.0-22.0","1920x1080","","5984.199999988079","50.93","img/314/4.5/0.5/bw/001.png","","","complex"
"","","","","","animation","23","491460","0.0-23.0","1920x1080","","9214.199999988079","20.90","img/314/5.5/2/bw/001.png","","","complex"
"","","","","","animation","24","495451","0.0-24.0","1920x1080","","3990.600000023842","21.96","img/238/5.5/0.66667/bw/001.png","","","complex"
"","","","","","animation","25","500828","0.0-25.0","1920x1080","","5375.800000011921","37.70","img/238/3.5/2/bw/001.png","","","complex"
"","","","","","animation","26","504099","0.0-26.0","1920x1080","","3270.599999964237","66.27","img/314/2.5/2/bw/001.png","","","complex"
"","","","","","animation","27","512435","0.0-27.0","1920x1080","","8335.599999964237","52.78","img/238/4.5/0.5/bw/001.png","","","complex"
"","","","","","animation","28","520651","0.0-28.0","1920x1080","","8214.800000011921","85.98","img/314/2.5/0.5/bw/001.png","","","complex"
"","","","","","animation","29","527851","0.0-29.0","1920x1080","","7199","25.00","img/314/5.5/1.5/bw/001.png","","","complex"
"","","","","","animation","30","549560","0.0-30.0","1920x1080","","21710.80000001192","33","img/314/3.5/2/bw/001.png","","","complex"
"","","","","","animation","31","553960","0.0-31.0","1920x1080","","4399.299999952316","56.08","img/238/3.5/1/bw/001.png","","","complex"
"","","","","","animation","32","559185","0.0-32.0","1920x1080","","5223.599999964237","86.64","img/238/2.5/0.66667/bw/001.png","","","complex"
"","","","","","animation","33","569048","0.0-33.0","1920x1080","","9862.799999952316","15.34","img/117/5.5/0.5/bw/001.png","","","complex"
"","","","","","animation","34","578864","0.0-34.0","1920x1080","","9814.600000023842","33.07","img/238/5.5/2/bw/001.png","","","complex"
"","","","","","animation","35","583857","0.0-35.0","1920x1080","","4991.199999988079","50.66","img/117/4/1.5/bw/001.png","","","complex"
"","","","","","animation","36","591971","0.0-36.0","1920x1080","","8111","94.05","img/238/2.5/0.5/bw/001.png","","","complex"
"","","","","","animation","37","596475","0.0-37.0","1920x1080","","4503","72.49","img/238/2.5/2/bw/001.png","","","complex"
"","","","","","animation","38","602795","0.0-38.0","1920x1080","","6318.600000023842","58.47","img/117/3.5/1.5/bw/001.png","","","complex"
"","","","","","animation","39","615171","0.0-39.0","1920x1080","","12375.800000011921","41.53","img/314/4/1.5/bw/001.png","","","complex"
"","","","","","animation","40","622859","0.0-40.0","1920x1080","","7687","36.24","img/117/4.5/1.5/bw/001.png","","","complex"
"","","","","","animation","41","630315","0.0-41.0","1920x1080","","7454.699999988079","64.68","img/238/3.5/0.66667/bw/001.png","","","complex"
"","","","","","animation","42","634499","0.0-42.0","1920x1080","","4183.300000011921","79.89","img/117/2.5/1/bw/001.png","","","complex"
"","","","","","animation","43","640339","0.0-43.0","1920x1080","","5839.399999976158","29.76","img/238/4.5/1.5/bw/001.png","","","complex"
"","","","","","animation","44","647861","0.0-44.0","1920x1080","","7520.900000035763","59.26","img/117/4.5/0.5/bw/001.png","","","complex"
"","","","","","animation","45","651762","0.0-45.0","1920x1080","","3900.599999964237","64.02","img/117/3.5/2/bw/001.png","","","complex"
"","","","","","animation","46","657803","0.0-46.0","1920x1080","","6039.699999988079","64.95","img/238/4/0.66667/bw/001.png","","","complex"
"","","","","","animation","47","661674","0.0-47.0","1920x1080","","3870.800000011921","70.63","img/117/2.5/1.5/bw/001.png","","","complex"
"","","","","","animation","48","668010","0.0-48.0","1920x1080","","6335.300000011921","63","img/314/3.5/1.5/bw/001.png","","","complex"
"","","","","","animation","49","675946","0.0-49.0","1920x1080","","7934.800000011921","21.96","img/314/4.5/1.5/bw/001.png","","","complex"
"","","","","","animation","50","681090","0.0-50.0","1920x1080","","5143.399999976158","28.97","img/314/4.5/1/bw/001.png","","","complex"
"","","","","","animation","51","685178","0.0-51.0","1920x1080","","4086.5","71.56","img/314/4/0.66667/bw/001.png","","","complex"
"","","","","","animation","52","689314","0.0-52.0","1920x1080","","4135.300000011921","85.85","img/117/3.5/0.66667/bw/001.png","","","complex"
"","","","","","animation","53","700828","0.0-53.0","1920x1080","","11512.699999988079","9.92","img/238/5.5/0.5/bw/001.png","","","complex"
"","","","","","animation","54","705995","0.0-54.0","1920x1080","","5166.100000023842","2.25","img/314/5.5/1/bw/001.png","","","complex"
"","","","","","animation","55","711602","0.0-55.0","1920x1080","","5606.600000023842","4.63","img/238/5.5/1.5/bw/001.png","","","complex"
"","","","","","animation","56","718418","0.0-56.0","1920x1080","","6815.199999988079","63.23","img/314/3.5/1/bw/001.png","","","complex"
"","","","","","animation","57","721338","0.0-57.0","1920x1080","","2919.099999964237","25.40","img/117/4.5/2/bw/001.png","","","complex"
"","","","","","animation","58","727306","0.0-58.0","1920x1080","","5967.100000023842","65.87","img/117/4/0.5/bw/001.png","","","complex"
"","","","","","animation","59","733690","0.0-59.0","1920x1080","","6383","83.99","img/238/3.5/0.5/bw/001.png","","","complex"
"","","","","","animation","60","736370","0.0-60.0","1920x1080","","2679.100000023842","69.97","img/238/4/0.5/bw/001.png","","","complex"
"","","","","","animation","61","741481","0.0-61.0","1920x1080","","5111.100000023842","10.19","img/117/5.5/1/bw/001.png","","","complex"
"","","","","","animation","62","744586","0.0-62.0","1920x1080","","3103","98","img/117/2.5/0.66667/bw/001.png","","","complex"
"","","","","","animation","63","753402","0.0-63.0","1920x1080","","8815","0.13","img/238/5.5/1/bw/001.png","","","complex"
"","","","","","animation","64","756786","0.0-64.0","1920x1080","","3382.900000035763","99","img/314/2.5/1.5/bw/001.png","","","complex"
"","","","","","animation","65","761361","0.0-65.0","1920x1080","","4574.600000023842","57.54","img/314/4.5/0.66667/bw/001.png","","","complex"
"","","","","","animation","66","770842","0.0-66.0","1920x1080","","9481.099999964237","53.44","img/238/3.5/1.5/bw/001.png","","","complex"
"","","","","","animation","67","774376","0.0-67.0","1920x1080","","3533.600000023842","80.42","img/314/2.5/1/bw/001.png","","","complex"
"","","","","","animation","68","778128","0.0-68.0","1920x1080","","3750.899999976158","70.77","img/314/3.5/0.66667/bw/001.png","","","complex"
"","","","","","animation","69","780560","0.0-69.0","1920x1080","","2430.7999999523163","30.16","img/117/4.5/1/bw/001.png","","","complex"
"","","","","","animation","70","785528","0.0-70.0","1920x1080","","4967","92","img/117/3.5/0.5/bw/001.png","","","complex"
"","","","","","animation","71","787784","0.0-71.0","1920x1080","","2255.5","73.68","img/314/4/1/bw/001.png","","","complex"
"","","","","","animation","72","790043","0.0-72.0","1920x1080","","2257.899999976158","61.77","img/117/4/0.66667/bw/001.png","","","complex"
"","","","","","animation","73","793426","0.0-73.0","1920x1080","","3382.2999999523163","23.54","img/238/4/2/bw/001.png","","","complex"
"","","","","","animation","74","796312","0.0-74.0","1920x1080","","2884.600000023842","38.10","img/238/4/1/bw/001.png","","","complex"
"","","","","","animation","75","799536","0.0-75.0","1920x1080","","3223.399999976158","6.75","img/117/5.5/2/bw/001.png","","","complex"
"","","","","","animation","76","802464","0.0-76.0","1920x1080","","2927.199999988079","16.14","img/314/5.5/0.5/bw/001.png","","","complex"
"","","","","","animation","77","804888","0.0-77.0","1920x1080","","2423.199999988079","47.35","img/314/4/0.5/bw/001.png","","","complex"
"","","","","","animation","78","806944","0.0-78.0","1920x1080","","2054.800000011921","34.79","img/117/5.5/1.5/bw/001.png","","","complex"
"","","","","","animation","79","809826","0.0-79.0","1920x1080","","2881.5","28.97","img/314/4.5/2/bw/001.png","","","complex"
"","","","","","animation","80","812232","0.0-80.0","1920x1080","","2405","33.60","img/238/4.5/1/bw/001.png","","","complex"
"","","","","","animation","81","816016","0.0-81.0","1920x1080","","3783.100000023842","15.21","img/238/4.5/2/bw/001.png","","","complex"
"","","","","","html-button-response","82","837941","0.0-82.0","1920x1080","","21919.399999976158","","<div class=""intro"">You are about to view a new series of animations.<br><br></div><div class=""intro"">You will evaluate them based on a different descriptor.<br><br></div><div class=""intro"">Move the slider to indicate how <strong style=""text-transform:capitalize"">NATURAL</strong> you find each animation.<br><br></div><div class=""intro"">0 = Least Natural<br></div><div class=""intro"">1 = Most Natural<br><br></div><div class=""intro"">Remember to use the <strong><em>entire range</em></strong> of the slider to make your ratings.<br></div><div class=""intro"">Please <strong><em>take your time</em></strong> and carefully consider each rating you make.<br><br></div>","0","",""
"","","","","","call-function","83","837943","0.0-83.0","1920x1080","","","","","","",""
"","","","","","animation","84","861532","0.0-84.0","1920x1080","","23588.80000001192","81.88","img/314/4/0.5/bw/001.png","","","natural"
"","","","","","animation","85","869188","0.0-85.0","1920x1080","","7655.099999964237","30.56","img/238/4/1.5/bw/001.png","","","natural"
"","","","","","animation","86","875548","0.0-86.0","1920x1080","","6358.5","70.24","img/238/5.5/1.5/bw/001.png","","","natural"
"","","","","","animation","87","885684","0.0-87.0","1920x1080","","10135.300000011921","23.68","img/117/4.5/0.66667/bw/001.png","","","natural"
"","","","","","animation","88","889664","0.0-88.0","1920x1080","","3983.100000023842","62.30","img/117/4.5/2/bw/001.png","","","natural"
"","","","","","animation","89","894064","0.0-89.0","1920x1080","","4398.900000035763","18.52","img/117/2.5/0.66667/bw/001.png","","","natural"
"","","","","","animation","90","901025","0.0-90.0","1920x1080","","6960.599999964237","69.05","img/314/5.5/1/bw/001.png","","","natural"
"","","","","","animation","91","906736","0.0-91.0","1920x1080","","5709.799999952316","94.18","img/117/4.5/1/bw/001.png","","","natural"
"","","","","","animation","92","911336","0.0-92.0","1920x1080","","4599","34.92","img/117/5.5/2/bw/001.png","","","natural"
"","","","","","animation","93","914752","0.0-93.0","1920x1080","","3414.600000023842","84.92","img/238/4.5/1.5/bw/001.png","","","natural"
"","","","","","animation","94","918775","0.0-94.0","1920x1080","","4022.600000023842","77.12","img/314/3.5/1.5/bw/001.png","","","natural"
"","","","","","animation","95","924160","0.0-95.0","1920x1080","","5383.5","52.51","img/117/3.5/0.5/bw/001.png","","","natural"
"","","","","","animation","96","928568","0.0-96.0","1920x1080","","4407.100000023842","2.12","img/314/2.5/1/bw/001.png","","","natural"
"","","","","","animation","97","933152","0.0-97.0","1920x1080","","4583","76.59","img/238/4.5/1/bw/001.png","","","natural"
"","","","","","animation","98","938242","0.0-98.0","1920x1080","","5089.400000035763","67.59","img/314/4.5/0.5/bw/001.png","","","natural"
"","","","","","animation","99","944168","0.0-99.0","1920x1080","","5924.799999952316","24.21","img/238/4/2/bw/001.png","","","natural"
"","","","","","animation","100","954127","0.0-100.0","1920x1080","","9958.400000035763","75.26","img/238/5.5/0.5/bw/001.png","","","natural"
"","","","","","animation","101","958103","0.0-101.0","1920x1080","","3975.2999999523163","26.85","img/314/3.5/0.66667/bw/001.png","","","natural"
"","","","","","animation","102","961275","0.0-102.0","1920x1080","","3170.5","12.96","img/238/4.5/2/bw/001.png","","","natural"
"","","","","","animation","103","967519","0.0-103.0","1920x1080","","6243.5","76.32","img/314/4.5/1.5/bw/001.png","","","natural"
"","","","","","animation","104","970974","0.0-104.0","1920x1080","","3454.199999988079","86.64","img/314/4.5/0.66667/bw/001.png","","","natural"
"","","","","","animation","105","980599","0.0-105.0","1920x1080","","9623.800000011921","19.58","img/117/5.5/1/bw/001.png","","","natural"
"","","","","","animation","106","983291","0.0-106.0","1920x1080","","2690.899999976158","78.84","img/117/4/2/bw/001.png","","","natural"
"","","","","","animation","107","987327","0.0-107.0","1920x1080","","4035","100","img/117/5.5/0.5/bw/001.png","","","natural"
"","","","","","animation","108","990167","0.0-108.0","1920x1080","","2839.399999976158","60.45","img/314/4/1/bw/001.png","","","natural"
"","","","","","animation","109","994551","0.0-109.0","1920x1080","","4383.199999988079","36.64","img/314/5.5/0.5/bw/001.png","","","natural"
"","","","","","animation","110","997624","0.0-110.0","1920x1080","","3072.599999964237","6.08","img/238/2.5/0.66667/bw/001.png","","","natural"
"","","","","","animation","111","1001891","0.0-111.0","1920x1080","","4265.199999988079","72.09","img/117/4.5/1.5/bw/001.png","","","natural"
"","","","","","animation","112","1004767","0.0-112.0","1920x1080","","2875.600000023842","88.23","img/314/3.5/2/bw/001.png","","","natural"
"","","","","","animation","113","1010365","0.0-113.0","1920x1080","","5598.599999964237","52.12","img/117/2.5/1/bw/001.png","","","natural"
"","","","","","animation","114","1012877","0.0-114.0","1920x1080","","2510","65.74","img/117/3.5/0.66667/bw/001.png","","","natural"
"","","","","","animation","115","1016773","0.0-115.0","1920x1080","","3894.699999988079","72.22","img/117/4/1/bw/001.png","","","natural"
"","","","","","animation","116","1021358","0.0-116.0","1920x1080","","4584.299999952316","62.43","img/314/4/2/bw/001.png","","","natural"
"","","","","","animation","117","1025725","0.0-117.0","1920x1080","","4365.699999988079","51.72","img/238/4/1/bw/001.png","","","natural"
"","","","","","animation","118","1030581","0.0-118.0","1920x1080","","4855.699999988079","18.12","img/238/4/0.5/bw/001.png","","","natural"
"","","","","","animation","119","1033565","0.0-119.0","1920x1080","","2983.099999964237","3.44","img/238/2.5/1.5/bw/001.png","","","natural"
"","","","","","animation","120","1036641","0.0-120.0","1920x1080","","3074.599999964237","26.59","img/117/3.5/1.5/bw/001.png","","","natural"
"","","","","","animation","121","1039701","0.0-121.0","1920x1080","","3059.399999976158","12.96","img/238/2.5/1/bw/001.png","","","natural"
"","","","","","animation","122","1043061","0.0-122.0","1920x1080","","3358.900000035763","0.53","img/117/2.5/0.5/bw/001.png","","","natural"
"","","","","","animation","123","1049413","0.0-123.0","1920x1080","","6351.199999988079","34.13","img/117/5.5/1.5/bw/001.png","","","natural"
"","","","","","animation","124","1053333","0.0-124.0","1920x1080","","3919.099999964237","66.27","img/314/4.5/1/bw/001.png","","","natural"
"","","","","","animation","125","1056689","0.0-125.0","1920x1080","","3354.5","79.76","img/238/3.5/2/bw/001.png","","","natural"
"","","","","","animation","126","1060333","0.0-126.0","1920x1080","","3643.400000035763","32.41","img/314/4/1.5/bw/001.png","","","natural"
"","","","","","animation","127","1062645","0.0-127.0","1920x1080","","2311.099999964237","18.65","img/314/2.5/1.5/bw/001.png","","","natural"
"","","","","","animation","128","1065013","0.0-128.0","1920x1080","","2367.099999964237","1.19","img/238/2.5/0.5/bw/001.png","","","natural"
"","","","","","animation","129","1068445","0.0-129.0","1920x1080","","3430.7000000476837","87.17","img/117/4/1.5/bw/001.png","","","natural"
"","","","","","animation","130","1078312","0.0-130.0","1920x1080","","9862.899999976158","92.46","img/238/5.5/1/bw/001.png","","","natural"
"","","","","","animation","131","1082921","0.0-131.0","1920x1080","","4607.5","24.47","img/238/3.5/0.5/bw/001.png","","","natural"
"","","","","","animation","132","1088081","0.0-132.0","1920x1080","","5158.700000047684","54.89","img/238/3.5/1.5/bw/001.png","","","natural"
"","","","","","animation","133","1093297","0.0-133.0","1920x1080","","5214.900000035763","71","img/117/3.5/2/bw/001.png","","","natural"
"","","","","","animation","134","1102328","0.0-134.0","1920x1080","","9030.699999988079","86","img/238/3.5/0.66667/bw/001.png","","","natural"
"","","","","","animation","135","1107712","0.0-135.0","1920x1080","","5383.199999988079","60.58","img/314/4/0.66667/bw/001.png","","","natural"
"","","","","","animation","136","1112145","0.0-136.0","1920x1080","","4431.800000011921","30.69","img/117/4/0.66667/bw/001.png","","","natural"
"","","","","","animation","137","1117369","0.0-137.0","1920x1080","","5222.399999976158","3.17","img/314/2.5/2/bw/001.png","","","natural"
"","","","","","animation","138","1120194","0.0-138.0","1920x1080","","2824","41.53","img/117/3.5/1/bw/001.png","","","natural"
"","","","","","animation","139","1122865","0.0-139.0","1920x1080","","2669.300000011921","6.08","img/314/2.5/0.66667/bw/001.png","","","natural"
"","","","","","animation","140","1126312","0.0-140.0","1920x1080","","3446.800000011921","80.56","img/314/3.5/1/bw/001.png","","","natural"
"","","","","","animation","141","1147960","0.0-141.0","1920x1080","","21646.899999976158","84.13","img/238/5.5/2/bw/001.png","","","natural"
"","","","","","animation","142","1150842","0.0-142.0","1920x1080","","2881.900000035763","12.96","img/117/2.5/1.5/bw/001.png","","","natural"
"","","","","","animation","143","1154920","0.0-143.0","1920x1080","","4076.600000023842","66.27","img/238/4.5/0.5/bw/001.png","","","natural"
"","","","","","animation","144","1159316","0.0-144.0","1920x1080","","4394.400000035763","59.52","img/314/4.5/2/bw/001.png","","","natural"
"","","","","","animation","145","1166058","0.0-145.0","1920x1080","","6741.699999988079","73.81","img/238/4/0.66667/bw/001.png","","","natural"
"","","","","","animation","146","1169059","0.0-146.0","1920x1080","","3000.100000023842","62.30","img/238/3.5/1/bw/001.png","","","natural"
"","","","","","animation","147","1176280","0.0-147.0","1920x1080","","7219.5","27.65","img/314/5.5/0.66667/bw/001.png","","","natural"
"","","","","","animation","148","1182376","0.0-148.0","1920x1080","","6094.699999988079","46.16","img/314/5.5/1.5/bw/001.png","","","natural"
"","","","","","animation","149","1185576","0.0-149.0","1920x1080","","3199.699999988079","86.51","img/238/5.5/0.66667/bw/001.png","","","natural"
"","","","","","animation","150","1188242","0.0-150.0","1920x1080","","2665.099999964237","70.37","img/238/4.5/0.66667/bw/001.png","","","natural"
"","","","","","animation","151","1192631","0.0-151.0","1920x1080","","4389","78.04","img/117/4/0.5/bw/001.png","","","natural"
"","","","","","animation","152","1196224","0.0-152.0","1920x1080","","3592.399999976158","35.45","img/117/5.5/0.66667/bw/001.png","","","natural"
"","","","","","animation","153","1200166","0.0-153.0","1920x1080","","3941.5","51.98","img/314/5.5/2/bw/001.png","","","natural"
"","","","","","animation","154","1203107","0.0-154.0","1920x1080","","2939.300000011921","61.64","img/117/4.5/0.5/bw/001.png","","","natural"
"","","","","","animation","155","1205479","0.0-155.0","1920x1080","","2370.600000023842","1.98","img/314/2.5/0.5/bw/001.png","","","natural"
"","","","","","animation","156","1208558","0.0-156.0","1920x1080","","3078.800000011921","45.90","img/314/3.5/0.5/bw/001.png","","","natural"
"","","","","","animation","157","1212091","0.0-157.0","1920x1080","","3531.699999988079","34.13","img/238/2.5/2/bw/001.png","","","natural"
"","","","","","animation","158","1215276","0.0-158.0","1920x1080","","3183.599999964237","5.16","img/117/2.5/2/bw/001.png","","","natural"
"","","","","","html-button-response","159","1241675","0.0-159.0","1920x1080","","26398.19999998808","","<div class=""intro"">You are about to view a new series of animations.<br><br></div><div class=""intro"">You will evaluate them based on a different descriptor.<br><br></div><div class=""intro"">Move the slider to indicate how <strong style=""text-transform:capitalize"">RELAXING</strong> you find each animation.<br><br></div><div class=""intro"">0 = Least Relaxing<br></div><div class=""intro"">1 = Most Relaxing<br><br></div><div class=""intro"">Remember to use the <strong><em>entire range</em></strong> of the slider to make your ratings.<br></div><div class=""intro"">Please <strong><em>take your time</em></strong> and carefully consider each rating you make.<br><br></div>","0","",""
"","","","","","call-function","160","1241678","0.0-160.0","1920x1080","","","","","","",""
"","","","","","animation","161","1251030","0.0-161.0","1920x1080","","9344.700000047684","37.17","img/314/3.5/0.5/bw/001.png","","","relaxing"
"","","","","","animation","162","1254548","0.0-162.0","1920x1080","","3517.5","66.01","img/314/4.5/2/bw/001.png","","","relaxing"
"","","","","","animation","163","1258133","0.0-163.0","1920x1080","","3583.100000023842","86.90","img/117/5.5/1/bw/001.png","","","relaxing"
"","","","","","animation","164","1261501","0.0-164.0","1920x1080","","3367.099999964237","44.84","img/238/4/0.66667/bw/001.png","","","relaxing"
"","","","","","animation","165","1264197","0.0-165.0","1920x1080","","2695","27.12","img/238/3.5/0.66667/bw/001.png","","","relaxing"
"","","","","","animation","166","1267214","0.0-166.0","1920x1080","","3016","43.12","img/314/3.5/1.5/bw/001.png","","","relaxing"
"","","","","","animation","167","1270925","0.0-167.0","1920x1080","","3710.2000000476837","37.57","img/314/4/1/bw/001.png","","","relaxing"
"","","","","","animation","168","1273948","0.0-168.0","1920x1080","","3022.400000035763","0.40","img/238/2.5/0.5/bw/001.png","","","relaxing"
"","","","","","animation","169","1276525","0.0-169.0","1920x1080","","2574.800000011921","25.66","img/314/4/0.5/bw/001.png","","","relaxing"
"","","","","","animation","170","1284447","0.0-170.0","1920x1080","","7921","90.34","img/238/5.5/1/bw/001.png","","","relaxing"
"","","","","","animation","171","1288397","0.0-171.0","1920x1080","","3949.300000011921","1.32","img/238/2.5/2/bw/001.png","","","relaxing"
"","","","","","animation","172","1290882","0.0-172.0","1920x1080","","2484.399999976158","39.29","img/238/4/0.5/bw/001.png","","","relaxing"
"","","","","","animation","173","1294253","0.0-173.0","1920x1080","","3369.300000011921","75.93","img/238/5.5/0.66667/bw/001.png","","","relaxing"
"","","","","","animation","174","1298301","0.0-174.0","1920x1080","","4046.5","58.47","img/117/4.5/1.5/bw/001.png","","","relaxing"
"","","","","","animation","175","1301930","0.0-175.0","1920x1080","","3628.199999988079","52.78","img/238/4.5/2/bw/001.png","","","relaxing"
"","","","","","animation","176","1304148","0.0-176.0","1920x1080","","2217.599999964237","40.74","img/238/4.5/0.66667/bw/001.png","","","relaxing"
"","","","","","animation","177","1306253","0.0-177.0","1920x1080","","2103.600000023842","23.94","img/238/3.5/0.5/bw/001.png","","","relaxing"
"","","","","","animation","178","1308397","0.0-178.0","1920x1080","","2143.199999988079","9.92","img/314/2.5/0.5/bw/001.png","","","relaxing"
"","","","","","animation","179","1311296","0.0-179.0","1920x1080","","2902.800000011921","26.46","img/314/3.5/0.66667/bw/001.png","","","relaxing"
"","","","","","animation","180","1318279","0.0-180.0","1920x1080","","6983","75.66","img/117/5.5/0.66667/bw/001.png","","","relaxing"
"","","","","","animation","181","1320784","0.0-181.0","1920x1080","","2503","37.96","img/117/3.5/0.5/bw/001.png","","","relaxing"
"","","","","","animation","182","1325075","0.0-182.0","1920x1080","","4290.599999964237","23.68","img/238/2.5/0.66667/bw/001.png","","","relaxing"
"","","","","","animation","183","1332575","0.0-183.0","1920x1080","","7499.400000035763","78.70","img/314/5.5/0.66667/bw/001.png","","","relaxing"
"","","","","","animation","184","1336875","0.0-184.0","1920x1080","","4299.199999988079","55.95","img/238/4.5/0.5/bw/001.png","","","relaxing"
"","","","","","animation","185","1339175","0.0-185.0","1920x1080","","2299.300000011921","42.20","img/314/3.5/1/bw/001.png","","","relaxing"
"","","","","","animation","186","1347075","0.0-186.0","1920x1080","","7899.300000011921","77.51","img/117/5.5/0.5/bw/001.png","","","relaxing"
"","","","","","animation","187","1352664","0.0-187.0","1920x1080","","5587.299999952316","61.11","img/117/4/1.5/bw/001.png","","","relaxing"
"","","","","","animation","188","1362143","0.0-188.0","1920x1080","","9478.399999976158","40.74","img/117/4.5/0.5/bw/001.png","","","relaxing"
"","","","","","animation","189","1368927","0.0-189.0","1920x1080","","6783","91.40","img/117/5.5/2/bw/001.png","","","relaxing"
"","","","","","animation","190","1372893","0.0-190.0","1920x1080","","3966.699999988079","2.38","img/117/2.5/0.5/bw/001.png","","","relaxing"
"","","","","","animation","191","1379157","0.0-191.0","1920x1080","","6262.399999976158","35.71","img/238/4/2/bw/001.png","","","relaxing"
"","","","","","animation","192","1385678","0.0-192.0","1920x1080","","6519.699999988079","88.62","img/238/5.5/0.5/bw/001.png","","","relaxing"
"","","","","","animation","193","1387966","0.0-193.0","1920x1080","","2286.899999976158","2.12","img/117/2.5/1/bw/001.png","","","relaxing"
"","","","","","animation","194","1393782","0.0-194.0","1920x1080","","5814.599999964237","43.25","img/117/3.5/2/bw/001.png","","","relaxing"
"","","","","","animation","195","1396323","0.0-195.0","1920x1080","","2540.400000035763","16.93","img/314/2.5/2/bw/001.png","","","relaxing"
"","","","","","animation","196","1402274","0.0-196.0","1920x1080","","5950","63.49","img/314/5.5/1.5/bw/001.png","","","relaxing"
"","","","","","animation","197","1404623","0.0-197.0","1920x1080","","2347.7000000476837","21.16","img/117/2.5/2/bw/001.png","","","relaxing"
"","","","","","animation","198","1418477","0.0-198.0","1920x1080","","13853.300000011921","98","img/238/5.5/1.5/bw/001.png","","","relaxing"
"","","","","","animation","199","1425040","0.0-199.0","1920x1080","","6561.199999988079","32.28","img/117/3.5/0.66667/bw/001.png","","","relaxing"
"","","","","","animation","200","1427741","0.0-200.0","1920x1080","","2700.399999976158","8.99","img/314/2.5/1.5/bw/001.png","","","relaxing"
"","","","","","animation","201","1430333","0.0-201.0","1920x1080","","2591.199999988079","2.38","img/314/2.5/0.66667/bw/001.png","","","relaxing"
"","","","","","animation","202","1435877","0.0-202.0","1920x1080","","5542.699999988079","53.57","img/117/4.5/2/bw/001.png","","","relaxing"
"","","","","","animation","203","1458077","0.0-203.0","1920x1080","","22199","49.21","img/314/4.5/1/bw/001.png","","","relaxing"
"","","","","","animation","204","1473456","0.0-204.0","1920x1080","","15377.799999952316","51.46","img/238/4.5/1.5/bw/001.png","","","relaxing"
"","","","","","animation","205","1475725","0.0-205.0","1920x1080","","2268.099999964237","30.69","img/314/4/1.5/bw/001.png","","","relaxing"
"","","","","","animation","206","1478413","0.0-206.0","1920x1080","","2685.199999988079","60.71","img/117/4.5/1/bw/001.png","","","relaxing"
"","","","","","animation","207","1480406","0.0-207.0","1920x1080","","1992.1000000238419","3.44","img/238/2.5/1.5/bw/001.png","","","relaxing"
"","","","","","animation","208","1484381","0.0-208.0","1920x1080","","3973.7999999523163","45.11","img/314/4/2/bw/001.png","","","relaxing"
"","","","","","animation","209","1487461","0.0-209.0","1920x1080","","3078.900000035763","31.48","img/117/4/0.66667/bw/001.png","","","relaxing"
"","","","","","animation","210","1489608","0.0-210.0","1920x1080","","2143.699999988079","30.95","img/117/4.5/0.66667/bw/001.png","","","relaxing"
"","","","","","animation","211","1494247","0.0-211.0","1920x1080","","4637.699999988079","76.72","img/314/5.5/0.5/bw/001.png","","","relaxing"
"","","","","","animation","212","1497447","0.0-212.0","1920x1080","","3198.5","39.55","img/314/4/0.66667/bw/001.png","","","relaxing"
"","","","","","animation","213","1501625","0.0-213.0","1920x1080","","4176.600000023842","82.80","img/117/5.5/1.5/bw/001.png","","","relaxing"
"","","","","","animation","214","1517275","0.0-214.0","1920x1080","","15649.199999988079","92.72","img/314/5.5/2/bw/001.png","","","relaxing"
"","","","","","animation","215","1527983","0.0-215.0","1920x1080","","10707","54.37","img/238/4/1/bw/001.png","","","relaxing"
"","","","","","animation","216","1533341","0.0-216.0","1920x1080","","5356.899999976158","29.76","img/314/3.5/2/bw/001.png","","","relaxing"
"","","","","","animation","217","1535743","0.0-217.0","1920x1080","","2400.5","0","img/117/2.5/0.66667/bw/001.png","","","relaxing"
"","","","","","animation","218","1538308","0.0-218.0","1920x1080","","2563.800000011921","0","img/314/2.5/1/bw/001.png","","","relaxing"
"","","","","","animation","219","1540495","0.0-219.0","1920x1080","","2185.599999964237","31.61","img/238/3.5/1/bw/001.png","","","relaxing"
"","","","","","animation","220","1543879","0.0-220.0","1920x1080","","3383.400000035763","35.32","img/238/3.5/2/bw/001.png","","","relaxing"
"","","","","","animation","221","1545792","0.0-221.0","1920x1080","","1911.1000000238419","40.87","img/117/3.5/1.5/bw/001.png","","","relaxing"
"","","","","","animation","222","1548125","0.0-222.0","1920x1080","","2332.600000023842","52.78","img/314/4.5/1.5/bw/001.png","","","relaxing"
"","","","","","animation","223","1550174","0.0-223.0","1920x1080","","2049.2000000476837","39.02","img/117/3.5/1/bw/001.png","","","relaxing"
"","","","","","animation","224","1555741","0.0-224.0","1920x1080","","5566.800000011921","35.19","img/238/3.5/1.5/bw/001.png","","","relaxing"
"","","","","","animation","225","1559541","0.0-225.0","1920x1080","","3799","62.30","img/238/4.5/1/bw/001.png","","","relaxing"
"","","","","","animation","226","1565909","0.0-226.0","1920x1080","","6366.799999952316","89.15","img/238/5.5/2/bw/001.png","","","relaxing"
"","","","","","animation","227","1568173","0.0-227.0","1920x1080","","2263.100000023842","44.97","img/314/4.5/0.66667/bw/001.png","","","relaxing"
"","","","","","animation","228","1570565","0.0-228.0","1920x1080","","2391","39.42","img/238/4/1.5/bw/001.png","","","relaxing"
"","","","","","animation","229","1575014","0.0-229.0","1920x1080","","4446.899999976158","48.28","img/117/4/1/bw/001.png","","","relaxing"
"","","","","","animation","230","1578874","0.0-230.0","1920x1080","","3858.900000035763","28.17","img/117/4/0.5/bw/001.png","","","relaxing"
"","","","","","animation","231","1581174","0.0-231.0","1920x1080","","2299.100000023842","10.98","img/117/2.5/1.5/bw/001.png","","","relaxing"
"","","","","","animation","232","1583782","0.0-232.0","1920x1080","","2606.899999976158","6.61","img/238/2.5/1/bw/001.png","","","relaxing"
"","","","","","animation","233","1586824","0.0-233.0","1920x1080","","3040.199999988079","85.71","img/314/5.5/1/bw/001.png","","","relaxing"
"","","","","","animation","234","1594109","0.0-234.0","1920x1080","","7284.400000035763","57.01","img/117/4/2/bw/001.png","","","relaxing"
"","","","","","animation","235","1596474","0.0-235.0","1920x1080","","2363.300000011921","51.98","img/314/4.5/0.5/bw/001.png","","","relaxing"
"","","","","","html-button-response","236","1643134","0.0-236.0","1920x1080","","46651","","<div class=""intro"">You are about to view a new series of animations.<br><br></div><div class=""intro"">You will evaluate them based on a different descriptor.<br><br></div><div class=""intro"">Move the slider to indicate how <strong style=""text-transform:capitalize"">APPEALING</strong> you find each animation.<br><br></div><div class=""intro"">0 = Least Appealing<br></div><div class=""intro"">1 = Most Appealing<br><br></div><div class=""intro"">Remember to use the <strong><em>entire range</em></strong> of the slider to make your ratings.<br></div><div class=""intro"">Please <strong><em>take your time</em></strong> and carefully consider each rating you make.<br><br></div>","0","",""
"","","","","","call-function","237","1643138","0.0-237.0","1920x1080","","","","","","",""
"","","","","","animation","238","1650164","0.0-238.0","1920x1080","","7025.400000035763","97","img/117/5.5/1.5/bw/001.png","","","appealing"
"","","","","","animation","239","1653098","0.0-239.0","1920x1080","","2932.5","23.15","img/238/2.5/0.5/bw/001.png","","","appealing"
"","","","","","animation","240","1656515","0.0-240.0","1920x1080","","3416.100000023842","78.17","img/117/5.5/0.66667/bw/001.png","","","appealing"
"","","","","","animation","241","1660714","0.0-241.0","1920x1080","","4198.400000035763","97","img/314/4.5/0.5/bw/001.png","","","appealing"
"","","","","","animation","242","1663550","0.0-242.0","1920x1080","","2835","78.17","img/314/4/0.5/bw/001.png","","","appealing"
"","","","","","animation","243","1665648","0.0-243.0","1920x1080","","2096.100000023842","34.39","img/314/3.5/0.5/bw/001.png","","","appealing"
"","","","","","animation","244","1669101","0.0-244.0","1920x1080","","3452.100000023842","61.90","img/314/4/2/bw/001.png","","","appealing"
"","","","","","animation","245","1672759","0.0-245.0","1920x1080","","3662.599999964237","75.79","img/314/5.5/0.5/bw/001.png","","","appealing"
"","","","","","animation","246","1676208","0.0-246.0","1920x1080","","3448.5","36.24","img/117/3.5/2/bw/001.png","","","appealing"
"","","","","","animation","247","1678558","0.0-247.0","1920x1080","","2348.699999988079","5.29","img/238/2.5/2/bw/001.png","","","appealing"
"","","","","","animation","248","1682663","0.0-248.0","1920x1080","","4103.900000035763","36.11","img/238/3.5/1/bw/001.png","","","appealing"
"","","","","","animation","249","1686767","0.0-249.0","1920x1080","","4102","75.26","img/117/4.5/0.66667/bw/001.png","","","appealing"
"","","","","","animation","250","1690308","0.0-250.0","1920x1080","","3539.899999976158","51.59","img/238/3.5/1.5/bw/001.png","","","appealing"
"","","","","","animation","251","1694760","0.0-251.0","1920x1080","","4450.100000023842","11.24","img/238/2.5/1/bw/001.png","","","appealing"
"","","","","","animation","252","1704127","0.0-252.0","1920x1080","","9365.5","63.36","img/238/4/1/bw/001.png","","","appealing"
"","","","","","animation","253","1710183","0.0-253.0","1920x1080","","6054.200000047684","52.12","img/314/3.5/1.5/bw/001.png","","","appealing"
"","","","","","animation","254","1714127","0.0-254.0","1920x1080","","3942.199999988079","43.39","img/238/4.5/1/bw/001.png","","","appealing"
"","","","","","animation","255","1717279","0.0-255.0","1920x1080","","3150.199999988079","66.14","img/117/4/2/bw/001.png","","","appealing"
"","","","","","animation","256","1729726","0.0-256.0","1920x1080","","12446.399999976158","78.44","img/117/4.5/2/bw/001.png","","","appealing"
"","","","","","animation","257","1736758","0.0-257.0","1920x1080","","7028.699999988079","83.73","img/238/5.5/0.66667/bw/001.png","","","appealing"
"","","","","","animation","258","1746708","0.0-258.0","1920x1080","","9948.399999976158","66.14","img/238/5.5/1.5/bw/001.png","","","appealing"
"","","","","","animation","259","1749783","0.0-259.0","1920x1080","","3073.600000023842","10.85","img/238/2.5/1.5/bw/001.png","","","appealing"
"","","","","","animation","260","1783091","0.0-260.0","1920x1080","","33307","49.21","img/314/4/1.5/bw/001.png","","","appealing"
"","","","","","animation","261","1788262","0.0-261.0","1920x1080","","5170.300000011921","64.95","img/117/3.5/0.5/bw/001.png","","","appealing"
"","","","","","animation","262","1791413","0.0-262.0","1920x1080","","3148.900000035763","13.89","img/117/2.5/0.5/bw/001.png","","","appealing"
"","","","","","animation","263","1797477","0.0-263.0","1920x1080","","6062.699999988079","57.94","img/238/4.5/2/bw/001.png","","","appealing"
"","","","","","animation","264","1801522","0.0-264.0","1920x1080","","4044.300000011921","67.59","img/314/4.5/1/bw/001.png","","","appealing"
"","","","","","animation","265","1805877","0.0-265.0","1920x1080","","4353","99","img/314/5.5/1.5/bw/001.png","","","appealing"
"","","","","","animation","266","1809197","0.0-266.0","1920x1080","","3318.699999988079","84.79","img/314/4.5/2/bw/001.png","","","appealing"
"","","","","","animation","267","1811490","0.0-267.0","1920x1080","","2291.7999999523163","5.16","img/314/2.5/0.5/bw/001.png","","","appealing"
"","","","","","animation","268","1815873","0.0-268.0","1920x1080","","4381.700000047684","61.64","img/238/4/1.5/bw/001.png","","","appealing"
"","","","","","animation","269","1819629","0.0-269.0","1920x1080","","3754.699999988079","86.24","img/314/5.5/0.66667/bw/001.png","","","appealing"
"","","","","","animation","270","1826925","0.0-270.0","1920x1080","","7294.5","28.57","img/314/3.5/2/bw/001.png","","","appealing"
"","","","","","animation","271","1829689","0.0-271.0","1920x1080","","2763.199999988079","31.08","img/314/3.5/0.66667/bw/001.png","","","appealing"
"","","","","","animation","272","1832756","0.0-272.0","1920x1080","","3065.699999988079","66.40","img/314/4.5/1.5/bw/001.png","","","appealing"
"","","","","","animation","273","1835156","0.0-273.0","1920x1080","","2398.899999976158","15.08","img/238/2.5/0.66667/bw/001.png","","","appealing"
"","","","","","animation","274","1837340","0.0-274.0","1920x1080","","2183","2.78","img/314/2.5/1/bw/001.png","","","appealing"
"","","","","","animation","275","1840706","0.0-275.0","1920x1080","","3364.699999988079","67.46","img/238/4/0.66667/bw/001.png","","","appealing"
"","","","","","animation","276","1842890","0.0-276.0","1920x1080","","2181.699999988079","56.48","img/117/3.5/1.5/bw/001.png","","","appealing"
"","","","","","animation","277","1850679","0.0-277.0","1920x1080","","7785.899999976158","67.72","img/117/5.5/2/bw/001.png","","","appealing"
"","","","","","animation","278","1855679","0.0-278.0","1920x1080","","4998.800000011921","86.77","img/117/5.5/0.5/bw/001.png","","","appealing"
"","","","","","animation","279","1858942","0.0-279.0","1920x1080","","3262.2000000476837","65.48","img/117/4.5/1.5/bw/001.png","","","appealing"
"","","","","","animation","280","1861775","0.0-280.0","1920x1080","","2831.300000011921","64.02","img/117/4/1.5/bw/001.png","","","appealing"
"","","","","","animation","281","1864258","0.0-281.0","1920x1080","","2482.300000011921","20.24","img/117/2.5/2/bw/001.png","","","appealing"
"","","","","","animation","282","1869310","0.0-282.0","1920x1080","","5051.099999964237","99","img/117/5.5/1/bw/001.png","","","appealing"
"","","","","","animation","283","1874091","0.0-283.0","1920x1080","","4780","58.73","img/238/4.5/0.66667/bw/001.png","","","appealing"
"","","","","","animation","284","1877814","0.0-284.0","1920x1080","","3721.699999988079","0.93","img/117/2.5/0.66667/bw/001.png","","","appealing"
"","","","","","animation","285","1881013","0.0-285.0","1920x1080","","3197.699999988079","33.07","img/314/3.5/1/bw/001.png","","","appealing"
"","","","","","animation","286","1886575","0.0-286.0","1920x1080","","5560.099999964237","70.11","img/314/5.5/1/bw/001.png","","","appealing"
"","","","","","animation","287","1892862","0.0-287.0","1920x1080","","6286.199999988079","24.87","img/238/3.5/2/bw/001.png","","","appealing"
"","","","","","animation","288","1903858","0.0-288.0","1920x1080","","10992.899999976158","66.27","img/117/4/1/bw/001.png","","","appealing"
"","","","","","animation","289","1914324","0.0-289.0","1920x1080","","10464.899999976158","34.79","img/238/3.5/0.5/bw/001.png","","","appealing"
"","","","","","animation","290","1917514","0.0-290.0","1920x1080","","3188.600000023842","66.53","img/117/4.5/1/bw/001.png","","","appealing"
"","","","","","animation","291","1920441","0.0-291.0","1920x1080","","2924.899999976158","42.46","img/238/3.5/0.66667/bw/001.png","","","appealing"
"","","","","","animation","292","1925062","0.0-292.0","1920x1080","","4620.299999952316","66.93","img/314/4.5/0.66667/bw/001.png","","","appealing"
"","","","","","animation","293","1930857","0.0-293.0","1920x1080","","5793.800000011921","84.13","img/314/5.5/2/bw/001.png","","","appealing"
"","","","","","animation","294","1934598","0.0-294.0","1920x1080","","3739.800000011921","62.70","img/117/3.5/1/bw/001.png","","","appealing"
"","","","","","animation","295","1937382","0.0-295.0","1920x1080","","2782.800000011921","13.36","img/314/2.5/0.66667/bw/001.png","","","appealing"
"","","","","","animation","296","1951294","0.0-296.0","1920x1080","","13909.899999976158","65.87","img/238/4/2/bw/001.png","","","appealing"
"","","","","","animation","297","1959846","0.0-297.0","1920x1080","","8550.799999952316","71.83","img/314/4/0.66667/bw/001.png","","","appealing"
"","","","","","animation","298","1963910","0.0-298.0","1920x1080","","4062.399999976158","78.84","img/117/4/0.5/bw/001.png","","","appealing"
"","","","","","animation","299","1966846","0.0-299.0","1920x1080","","2934.699999988079","52.65","img/314/4/1/bw/001.png","","","appealing"
"","","","","","animation","300","1973631","0.0-300.0","1920x1080","","6776.899999976158","83.60","img/238/5.5/1/bw/001.png","","","appealing"
"","","","","","animation","301","1977349","0.0-301.0","1920x1080","","3715.600000023842","76.72","img/238/4/0.5/bw/001.png","","","appealing"
"","","","","","animation","302","1980665","0.0-302.0","1920x1080","","3314.599999964237","66.80","img/238/4.5/0.5/bw/001.png","","","appealing"
"","","","","","animation","303","1983615","0.0-303.0","1920x1080","","2948.699999988079","15.61","img/314/2.5/2/bw/001.png","","","appealing"
"","","","","","animation","304","1987872","0.0-304.0","1920x1080","","4255.900000035763","13.36","img/314/2.5/1.5/bw/001.png","","","appealing"
"","","","","","animation","305","1991805","0.0-305.0","1920x1080","","3929.800000011921","10.85","img/117/2.5/1.5/bw/001.png","","","appealing"
"","","","","","animation","306","1995365","0.0-306.0","1920x1080","","3558.199999988079","76.06","img/117/4.5/0.5/bw/001.png","","","appealing"
"","","","","","animation","307","1999131","0.0-307.0","1920x1080","","3765","69.71","img/117/4/0.66667/bw/001.png","","","appealing"
"","","","","","animation","308","2003082","0.0-308.0","1920x1080","","3948.899999976158","70.63","img/238/5.5/2/bw/001.png","","","appealing"
"","","","","","animation","309","2006848","0.0-309.0","1920x1080","","3765.2999999523163","82.67","img/238/4.5/1.5/bw/001.png","","","appealing"
"","","","","","animation","310","2011565","0.0-310.0","1920x1080","","4715.399999976158","92.33","img/238/5.5/0.5/bw/001.png","","","appealing"
"","","","","","animation","311","2014901","0.0-311.0","1920x1080","","3335","41.93","img/117/3.5/0.66667/bw/001.png","","","appealing"
"","","","","","animation","312","2016990","0.0-312.0","1920x1080","","2088","20.90","img/117/2.5/1/bw/001.png","","","appealing"
"","","","","","html-button-response","313","2037847","0.0-313.0","1920x1080","","20854.100000023842","","<div class=""intro"">You are about to view a new series of animations.<br><br></div><div class=""intro"">You will evaluate them based on a different descriptor.<br><br></div><div class=""intro"">Move the slider to indicate how <strong style=""text-transform:capitalize"">INTERESTING</strong> you find each animation.<br><br></div><div class=""intro"">0 = Least Interesting<br></div><div class=""intro"">1 = Most Interesting<br><br></div><div class=""intro"">Remember to use the <strong><em>entire range</em></strong> of the slider to make your ratings.<br></div><div class=""intro"">Please <strong><em>take your time</em></strong> and carefully consider each rating you make.<br><br></div>","0","",""
"","","","","","call-function","314","2037849","0.0-314.0","1920x1080","","","","","","",""
"","","","","","animation","315","2051670","0.0-315.0","1920x1080","","13820","16.40","img/314/2.5/0.66667/bw/001.png","","","interesting"
"","","","","","animation","316","2060382","0.0-316.0","1920x1080","","8710.899999976158","75.40","img/238/4.5/0.5/bw/001.png","","","interesting"
"","","","","","animation","317","2066699","0.0-317.0","1920x1080","","6315.400000035763","86.77","img/238/4.5/2/bw/001.png","","","interesting"
"","","","","","animation","318","2072065","0.0-318.0","1920x1080","","5365","37.43","img/117/5.5/0.66667/bw/001.png","","","interesting"
"","","","","","animation","319","2075118","0.0-319.0","1920x1080","","3051.2999999523163","2.51","img/314/2.5/1.5/bw/001.png","","","interesting"
"","","","","","animation","320","2078098","0.0-320.0","1920x1080","","2979.099999964237","0.93","img/238/2.5/0.5/bw/001.png","","","interesting"
"","","","","","animation","321","2086670","0.0-321.0","1920x1080","","8570.300000011921","46.03","img/238/3.5/1.5/bw/001.png","","","interesting"
"","","","","","animation","322","2093134","0.0-322.0","1920x1080","","6462.399999976158","44.58","img/238/3.5/2/bw/001.png","","","interesting"
"","","","","","animation","323","2099238","0.0-323.0","1920x1080","","6103.100000023842","66.01","img/238/4/0.5/bw/001.png","","","interesting"
"","","","","","animation","324","2103601","0.0-324.0","1920x1080","","4361.400000035763","9.13","img/117/2.5/1/bw/001.png","","","interesting"
"","","","","","animation","325","2115266","0.0-325.0","1920x1080","","11662","68.52","img/117/5.5/0.5/bw/001.png","","","interesting"
"","","","","","animation","326","2126070","0.0-326.0","1920x1080","","10802.899999976158","90.08","img/314/4/1.5/bw/001.png","","","interesting"
"","","","","","animation","327","2137166","0.0-327.0","1920x1080","","11094.5","75.00","img/117/4.5/0.5/bw/001.png","","","interesting"
"","","","","","animation","328","2143519","0.0-328.0","1920x1080","","6351.699999988079","62.83","img/314/4/0.66667/bw/001.png","","","interesting"
"","","","","","animation","329","2156596","0.0-329.0","1920x1080","","13085.800000011921","57.41","img/314/5.5/0.66667/bw/001.png","","","interesting"
"","","","","","animation","330","2163064","0.0-330.0","1920x1080","","6466.100000023842","8.86","img/117/2.5/2/bw/001.png","","","interesting"
"","","","","","animation","331","2202005","0.0-331.0","1920x1080","","38938.39999997616","68.52","img/238/4/1/bw/001.png","","","interesting"
"","","","","","animation","332","2211106","0.0-332.0","1920x1080","","9099.599999964237","65.08","img/314/5.5/1/bw/001.png","","","interesting"
"","","","","","animation","333","2225298","0.0-333.0","1920x1080","","14190.199999988079","90.21","img/314/4.5/1.5/bw/001.png","","","interesting"
"","","","","","animation","334","2229332","0.0-334.0","1920x1080","","4032.300000011921","72.49","img/314/5.5/0.5/bw/001.png","","","interesting"
"","","","","","animation","335","2237540","0.0-335.0","1920x1080","","8206.100000023842","28.44","img/238/5.5/1/bw/001.png","","","interesting"
"","","","","","animation","336","2241028","0.0-336.0","1920x1080","","3486.699999988079","53.57","img/117/4/0.66667/bw/001.png","","","interesting"
"","","","","","animation","337","2255844","0.0-337.0","1920x1080","","14814.600000023842","43.65","img/314/5.5/1.5/bw/001.png","","","interesting"
"","","","","","animation","338","2261155","0.0-338.0","1920x1080","","5309.600000023842","25.00","img/238/5.5/1.5/bw/001.png","","","interesting"
"","","","","","animation","339","2266705","0.0-339.0","1920x1080","","5549.600000023842","40.34","img/238/5.5/0.5/bw/001.png","","","interesting"
"","","","","","animation","340","2269787","0.0-340.0","1920x1080","","3081.300000011921","69.18","img/314/4.5/1/bw/001.png","","","interesting"
"","","","","","animation","341","2283398","0.0-341.0","1920x1080","","13608.800000011921","61.64","img/314/5.5/2/bw/001.png","","","interesting"
"","","","","","animation","342","2287405","0.0-342.0","1920x1080","","4005.600000023842","84.79","img/314/4.5/0.5/bw/001.png","","","interesting"
"","","","","","animation","343","2290155","0.0-343.0","1920x1080","","2748.599999964237","6.08","img/314/2.5/0.5/bw/001.png","","","interesting"
"","","","","","animation","344","2294271","0.0-344.0","1920x1080","","4115.199999988079","71.30","img/117/3.5/0.5/bw/001.png","","","interesting"
"","","","","","animation","345","2297355","0.0-345.0","1920x1080","","3082","44.58","img/117/3.5/1/bw/001.png","","","interesting"
"","","","","","animation","346","2302971","0.0-346.0","1920x1080","","5614.800000011921","43.25","img/238/4/0.66667/bw/001.png","","","interesting"
"","","","","","animation","347","2311946","0.0-347.0","1920x1080","","8974","71.16","img/117/4/1.5/bw/001.png","","","interesting"
"","","","","","animation","348","2318907","0.0-348.0","1920x1080","","6959.399999976158","60.32","img/314/3.5/1/bw/001.png","","","interesting"
"","","","","","animation","349","2323655","0.0-349.0","1920x1080","","4746.299999952316","90.08","img/117/3.5/2/bw/001.png","","","interesting"
"","","","","","animation","350","2329957","0.0-350.0","1920x1080","","6298.099999964237","86.38","img/238/4.5/1.5/bw/001.png","","","interesting"
"","","","","","animation","351","2336525","0.0-351.0","1920x1080","","6566.699999988079","81.22","img/117/4.5/2/bw/001.png","","","interesting"
"","","","","","animation","352","2353630","0.0-352.0","1920x1080","","17103.69999998808","50.79","img/314/4/1/bw/001.png","","","interesting"
"","","","","","animation","353","2357689","0.0-353.0","1920x1080","","4057.899999976158","38.23","img/238/3.5/0.5/bw/001.png","","","interesting"
"","","","","","animation","354","2359923","0.0-354.0","1920x1080","","2231.899999976158","12.43","img/117/2.5/0.5/bw/001.png","","","interesting"
"","","","","","animation","355","2363480","0.0-355.0","1920x1080","","3555.600000023842","73.15","img/117/4/0.5/bw/001.png","","","interesting"
"","","","","","animation","356","2369045","0.0-356.0","1920x1080","","5563.599999964237","99","img/117/4.5/1.5/bw/001.png","","","interesting"
"","","","","","animation","357","2375433","0.0-357.0","1920x1080","","6386.100000023842","75.79","img/117/4/1/bw/001.png","","","interesting"
"","","","","","animation","358","2393832","0.0-358.0","1920x1080","","18387.5","65.61","img/238/3.5/0.66667/bw/001.png","","","interesting"
"","","","","","animation","359","2402000","0.0-359.0","1920x1080","","8165.699999988079","86.77","img/238/4/2/bw/001.png","","","interesting"
"","","","","","animation","360","2410732","0.0-360.0","1920x1080","","8730.699999988079","95","img/117/4.5/0.66667/bw/001.png","","","interesting"
"","","","","","animation","361","2417832","0.0-361.0","1920x1080","","7098","4.37","img/314/2.5/1/bw/001.png","","","interesting"
"","","","","","animation","362","2439854","0.0-362.0","1920x1080","","22020.19999998808","59.13","img/314/4.5/2/bw/001.png","","","interesting"
"","","","","","animation","363","2452669","0.0-363.0","1920x1080","","12813.199999988079","67.46","img/117/3.5/1.5/bw/001.png","","","interesting"
"","","","","","animation","364","2458990","0.0-364.0","1920x1080","","6319.300000011921","19.71","img/314/2.5/2/bw/001.png","","","interesting"
"","","","","","animation","365","2468210","0.0-365.0","1920x1080","","9218","50.93","img/314/3.5/0.5/bw/001.png","","","interesting"
"","","","","","animation","366","2479576","0.0-366.0","1920x1080","","11363.099999964237","14.15","img/117/2.5/1.5/bw/001.png","","","interesting"
"","","","","","animation","367","2487300","0.0-367.0","1920x1080","","7720.800000011921","10.98","img/238/2.5/1.5/bw/001.png","","","interesting"
"","","","","","animation","368","2498074","0.0-368.0","1920x1080","","10771.900000035763","80.16","img/238/4.5/0.66667/bw/001.png","","","interesting"
"","","","","","animation","369","2511758","0.0-369.0","1920x1080","","13689.300000011921","73.28","img/117/4.5/1/bw/001.png","","","interesting"
"","","","","","animation","370","2521459","0.0-370.0","1920x1080","","9699.800000011921","42.20","img/314/3.5/2/bw/001.png","","","interesting"
"","","","","","animation","371","2536552","0.0-371.0","1920x1080","","15091.600000023842","54.10","img/117/3.5/0.66667/bw/001.png","","","interesting"
"","","","","","animation","372","2545770","0.0-372.0","1920x1080","","9216","99","img/117/5.5/1.5/bw/001.png","","","interesting"
"","","","","","animation","373","2552419","0.0-373.0","1920x1080","","6647.099999964237","19.84","img/117/2.5/0.66667/bw/001.png","","","interesting"
"","","","","","animation","374","2569191","0.0-374.0","1920x1080","","16769.899999976158","62.17","img/117/5.5/1/bw/001.png","","","interesting"
"","","","","","animation","375","2582105","0.0-375.0","1920x1080","","12917.800000011921","46.69","img/117/5.5/2/bw/001.png","","","interesting"
"","","","","","animation","376","2592385","0.0-376.0","1920x1080","","10278.600000023842","5.56","img/238/2.5/1/bw/001.png","","","interesting"
"","","","","","animation","377","2615273","0.0-377.0","1920x1080","","22885.700000047684","47.49","img/238/5.5/2/bw/001.png","","","interesting"
"","","","","","animation","378","2627860","0.0-378.0","1920x1080","","12585.199999988079","71.96","img/238/4/1.5/bw/001.png","","","interesting"
"","","","","","animation","379","2631027","0.0-379.0","1920x1080","","3164.300000011921","81.61","img/117/4/2/bw/001.png","","","interesting"
"","","","","","animation","380","2636020","0.0-380.0","1920x1080","","4991.400000035763","60.71","img/314/3.5/0.66667/bw/001.png","","","interesting"
"","","","","","animation","381","2643893","0.0-381.0","1920x1080","","7871.800000011921","66.40","img/238/3.5/1/bw/001.png","","","interesting"
"","","","","","animation","382","2648884","0.0-382.0","1920x1080","","4989.199999988079","97","img/314/4.5/0.66667/bw/001.png","","","interesting"
"","","","","","animation","383","2653894","0.0-383.0","1920x1080","","5007.800000011921","64.95","img/314/4/2/bw/001.png","","","interesting"
"","","","","","animation","384","2659781","0.0-384.0","1920x1080","","5885.100000023842","5.03","img/238/2.5/0.66667/bw/001.png","","","interesting"
"","","","","","animation","385","2666678","0.0-385.0","1920x1080","","6894","58.33","img/238/5.5/0.66667/bw/001.png","","","interesting"
"","","","","","animation","386","2672843","0.0-386.0","1920x1080","","6163.099999964237","35.58","img/314/3.5/1.5/bw/001.png","","","interesting"
"","","","","","animation","387","2681670","0.0-387.0","1920x1080","","8824.099999964237","8.20","img/238/2.5/2/bw/001.png","","","interesting"
"","","","","","animation","388","2687720","0.0-388.0","1920x1080","","6048.200000047684","69.05","img/238/4.5/1/bw/001.png","","","interesting"
"","","","","","animation","389","2695925","0.0-389.0","1920x1080","","8191.899999976158","59.39","img/314/4/0.5/bw/001.png","","","interesting"
"","","","","","html-button-response","390","2737047","0.0-390.0","1920x1080","","41118.30000001192","","<strong>Study Debriefing</strong><br><p class=""debrief""><strong>Background:</strong> The patterns you rated are called <em>fractals</em>. The term fractal describes a class of irregular curves or shapes for which any suitably chosen part is similar in shape to a given larger or smaller part when magnified or reduced to the same size. Fractal properties are found throughout the natural and manmade world. The series of animations you saw today displayed animated fractal patterns of a varying complexity.</p><p class=""debrief""><strong>Purpose of this study:</strong> We hope to better understand how the perception of static fractals differs from the perception of animated fractals, and how the speed of the animated patterns influences people&apos;s perception of them. Fractals allow us to study the perception of aesthetic properties (e.g. the perceived level of beauty in an image) without using recognizable content, which makes them an excellent tool for studying abstract aesthetic judgement.</p><p class=""debrief""><strong>Your part:</strong> Your participation has helped us to further understand how humans perceive these patterns across different levels of speed and complexity. This research with allow us to better understand how the visual system and brain process our ever-changing visual environments.<p class=""debrief""><strong>Feedback and Further information:</strong> If you have additional questions about this study, please feel free to ask the researcher, Nathan Gonzales-Hess at nhess @ uoregon.edu. If you have any questions concerning your rights as a research participant, please contact Research Compliance Services, 5237 University of Oregon, Eugene, OR 97403, 541-346-2510, or email researchCompliance @ uoregon.edu. You can also email the Human Subjects Coordinator for psychology and linguistics research at hscoord @ uoregon.edu. ","0","",""
"","","","","","html-button-response","391","2739870","0.0-391.0","1920x1080","","2818.600000023842","","Thank you for participating in this study. <br>Please click below to finish the experiment and submit your responses.<br><br>","0","",""
"true","","","","","fullscreen","392","2740892","0.0-392.0","1920x1080","13:46 4/11/2022","","","","","",""
