"success","timeout","failed_images","failed_audio","failed_video","trial_type","trial_index","time_elapsed","internal_node_id","resolution","timeStamp","rt","response","stimulus","button_pressed","value","descriptor"
"true","false","[]","[]","[]","preload","0","31783","0.0-0.0","1920x1080","","","","","","",""
"true","false","[]","[]","[]","preload","1","64270","0.0-1.0","1920x1080","","","","","","",""
"true","false","[]","[]","[]","preload","2","92006","0.0-2.0","1920x1080","","","","","","",""
"true","","","","","fullscreen","3","97228","0.0-3.0","1920x1080","12:52 11/10/2022","","","","","",""
"","","","","","survey-html-form","4","106438","0.0-4.0","1920x1080","","9207.700000047684","{""age"":""18"",""gender"":""female""}","","","",""
"","","","","","html-button-response","5","156775","0.0-5.0","1920x1080","","50334.799999952316","","<div class=""complex"">You are going to see a series of animations.<br><br></div><div class=""complex"">Move the slider to indicate how <strong style=""text-transform:capitalize"">COMPLEX</strong> you find each animation.<br><br></div><div class=""complex"">0 = Least Complex<br></div><div class=""complex"">1 = Most Complex<br><br></div><div class=""complex"">Remember to use the <strong><em>entire range</em></strong> of the slider to make your ratings.<br></div><div class=""complex"">Please <strong><em>take your time</em></strong> and carefully consider each rating you make.<br><br></div><div class=""complex"">The study has five sections and will take about 45 minutes to complete.<br><br></div>","0","",""
"","","","","","call-function","6","156775","0.0-6.0","1920x1080","","","","","","",""
"","","","","","animation","7","167695","0.0-7.0","1920x1080","","10916.699999988079","-1.72","img/314/4/0.5/bw/001.png","","","complex"
"","","","","","animation","8","175438","0.0-8.0","1920x1080","","7742.5","29.76","img/117/2.5/0.5/bw/001.png","","","complex"
"","","","","","animation","9","179062","0.0-9.0","1920x1080","","3623.699999988079","2.65","img/117/4/0.5/bw/001.png","","","complex"
"","","","","","animation","10","183870","0.0-10.0","1920x1080","","4807","0.00","img/314/4.5/0.66667/bw/001.png","","","complex"
"","","","","","animation","11","194006","0.0-11.0","1920x1080","","10135.100000023842","72.49","img/117/2.5/1/bw/001.png","","","complex"
"","","","","","animation","12","222167","0.0-12.0","1920x1080","","28160","46.96","img/117/5.5/1.5/bw/001.png","","","complex"
"","","","","","animation","13","229141","0.0-13.0","1920x1080","","6974.100000023842","44.58","img/117/5.5/0.66667/bw/001.png","","","complex"
"","","","","","animation","14","236037","0.0-14.0","1920x1080","","6895.300000011921","14.81","img/238/3.5/0.5/bw/001.png","","","complex"
"","","","","","animation","15","239518","0.0-15.0","1920x1080","","3479.399999976158","16.14","img/117/4/0.66667/bw/001.png","","","complex"
"","","","","","animation","16","258462","0.0-16.0","1920x1080","","18943.100000023842","24.47","img/238/5.5/1.5/bw/001.png","","","complex"
"","","","","","animation","17","268342","0.0-17.0","1920x1080","","9879.300000011921","16","img/117/3.5/0.5/bw/001.png","","","complex"
"","","","","","animation","18","289798","0.0-18.0","1920x1080","","21454.69999998808","21","img/314/4.5/1.5/bw/001.png","","","complex"
"","","","","","animation","19","299310","0.0-19.0","1920x1080","","9511.200000047684","44.31","img/314/5.5/0.66667/bw/001.png","","","complex"
"","","","","","animation","20","306622","0.0-20.0","1920x1080","","7311.599999964237","16.93","img/117/3.5/1.5/bw/001.png","","","complex"
"","","","","","animation","21","319638","0.0-21.0","1920x1080","","13015.199999988079","33","img/117/4.5/0.5/bw/001.png","","","complex"
"","","","","","animation","22","324222","0.0-22.0","1920x1080","","4583","53","img/314/5.5/2/bw/001.png","","","complex"
"","","","","","animation","23","327534","0.0-23.0","1920x1080","","3311","2","img/238/2.5/1.5/bw/001.png","","","complex"
"","","","","","animation","24","332446","0.0-24.0","1920x1080","","4911.900000035763","39.29","img/314/4/2/bw/001.png","","","complex"
"","","","","","animation","25","339999","0.0-25.0","1920x1080","","7551","60","img/314/4.5/1/bw/001.png","","","complex"
"","","","","","animation","26","343319","0.0-26.0","1920x1080","","3318.899999976158","1","img/117/2.5/0.66667/bw/001.png","","","complex"
"","","","","","animation","27","356247","0.0-27.0","1920x1080","","12927.399999976158","57.14","img/238/5.5/1/bw/001.png","","","complex"
"","","","","","animation","28","359263","0.0-28.0","1920x1080","","3015.199999988079","45.50","img/117/4.5/2/bw/001.png","","","complex"
"","","","","","animation","29","363639","0.0-29.0","1920x1080","","4374.600000023842","0.53","img/314/2.5/1.5/bw/001.png","","","complex"
"","","","","","animation","30","369399","0.0-30.0","1920x1080","","5759.5","37.30","img/117/4.5/1.5/bw/001.png","","","complex"
"","","","","","animation","31","377583","0.0-31.0","1920x1080","","8183.100000023842","83.47","img/238/5.5/0.5/bw/001.png","","","complex"
"","","","","","animation","32","383439","0.0-32.0","1920x1080","","5854.699999988079","78.57","img/314/5.5/0.5/bw/001.png","","","complex"
"","","","","","animation","33","389407","0.0-33.0","1920x1080","","5967.300000011921","8.47","img/314/3.5/1.5/bw/001.png","","","complex"
"","","","","","animation","34","392679","0.0-34.0","1920x1080","","3271.2999999523163","1.19","img/238/2.5/2/bw/001.png","","","complex"
"","","","","","animation","35","396454","0.0-35.0","1920x1080","","3774.900000035763","0","img/314/2.5/0.66667/bw/001.png","","","complex"
"","","","","","animation","36","410606","0.0-36.0","1920x1080","","14151.399999976158","33.47","img/238/4/1/bw/001.png","","","complex"
"","","","","","animation","37","423526","0.0-37.0","1920x1080","","12918.899999976158","65","img/117/5.5/2/bw/001.png","","","complex"
"","","","","","animation","38","426790","0.0-38.0","1920x1080","","3263","8","img/117/2.5/2/bw/001.png","","","complex"
"","","","","","animation","39","430919","0.0-39.0","1920x1080","","4127.699999988079","37.30","img/238/4.5/0.66667/bw/001.png","","","complex"
"","","","","","animation","40","434622","0.0-40.0","1920x1080","","3703","45.77","img/238/4.5/1.5/bw/001.png","","","complex"
"","","","","","animation","41","438414","0.0-41.0","1920x1080","","3791.400000035763","3.44","img/238/2.5/1/bw/001.png","","","complex"
"","","","","","animation","42","442199","0.0-42.0","1920x1080","","3783.100000023842","15.21","img/314/3.5/2/bw/001.png","","","complex"
"","","","","","animation","43","446278","0.0-43.0","1920x1080","","4079.099999964237","4.63","img/314/3.5/0.66667/bw/001.png","","","complex"
"","","","","","animation","44","455463","0.0-44.0","1920x1080","","9183.099999964237","26.06","img/314/4/0.66667/bw/001.png","","","complex"
"","","","","","animation","45","462831","0.0-45.0","1920x1080","","7366.800000011921","44.71","img/314/4.5/2/bw/001.png","","","complex"
"","","","","","animation","46","466559","0.0-46.0","1920x1080","","3727.399999976158","22.49","img/238/3.5/2/bw/001.png","","","complex"
"","","","","","animation","47","470839","0.0-47.0","1920x1080","","4278.599999964237","21.03","img/238/4/2/bw/001.png","","","complex"
"","","","","","animation","48","473769","0.0-48.0","1920x1080","","2929.5","23.02","img/238/4/1.5/bw/001.png","","","complex"
"","","","","","animation","49","477727","0.0-49.0","1920x1080","","3956.600000023842","86","img/117/5.5/0.5/bw/001.png","","","complex"
"","","","","","animation","50","481807","0.0-50.0","1920x1080","","4079","65","img/117/4.5/0.66667/bw/001.png","","","complex"
"","","","","","animation","51","488823","0.0-51.0","1920x1080","","7015.199999988079","39.68","img/314/4/1.5/bw/001.png","","","complex"
"","","","","","animation","52","504095","0.0-52.0","1920x1080","","15271.099999964237","68.52","img/238/4.5/2/bw/001.png","","","complex"
"","","","","","animation","53","511943","0.0-53.0","1920x1080","","7846.799999952316","55.82","img/238/4.5/0.5/bw/001.png","","","complex"
"","","","","","animation","54","523207","0.0-54.0","1920x1080","","11262.699999988079","82.80","img/238/5.5/0.66667/bw/001.png","","","complex"
"","","","","","animation","55","532639","0.0-55.0","1920x1080","","9431.200000047684","3.17","img/117/2.5/1.5/bw/001.png","","","complex"
"","","","","","animation","56","550791","0.0-56.0","1920x1080","","18150.899999976158","50.40","img/238/4/0.66667/bw/001.png","","","complex"
"","","","","","animation","57","567185","0.0-57.0","1920x1080","","16393.600000023842","75","img/238/5.5/2/bw/001.png","","","complex"
"","","","","","animation","58","570487","0.0-58.0","1920x1080","","3300.2999999523163","3.57","img/314/2.5/1/bw/001.png","","","complex"
"","","","","","animation","59","579975","0.0-59.0","1920x1080","","9486.899999976158","82.67","img/314/5.5/1.5/bw/001.png","","","complex"
"","","","","","animation","60","590847","0.0-60.0","1920x1080","","10869.800000011921","50","img/238/4.5/1/bw/001.png","","","complex"
"","","","","","animation","61","607720","0.0-61.0","1920x1080","","16870.80000001192","25.40","img/117/4/2/bw/001.png","","","complex"
"","","","","","animation","62","613775","0.0-62.0","1920x1080","","6054.300000011921","12","img/238/3.5/1/bw/001.png","","","complex"
"","","","","","animation","63","619191","0.0-63.0","1920x1080","","5414.800000011921","35.98","img/314/4/1/bw/001.png","","","complex"
"","","","","","animation","64","625079","0.0-64.0","1920x1080","","5886.599999964237","12.04","img/314/3.5/1/bw/001.png","","","complex"
"","","","","","animation","65","681975","0.0-65.0","1920x1080","","56894.5","46.30","img/238/4/0.5/bw/001.png","","","complex"
"","","","","","animation","66","686264","0.0-66.0","1920x1080","","4286.800000011921","2.65","img/314/2.5/2/bw/001.png","","","complex"
"","","","","","animation","67","692936","0.0-67.0","1920x1080","","6671.599999964237","48.41","img/117/4.5/1/bw/001.png","","","complex"
"","","","","","animation","68","698191","0.0-68.0","1920x1080","","5253.899999976158","20.77","img/238/3.5/0.66667/bw/001.png","","","complex"
"","","","","","animation","69","703223","0.0-69.0","1920x1080","","5030.600000023842","7.80","img/117/3.5/1/bw/001.png","","","complex"
"","","","","","animation","70","711431","0.0-70.0","1920x1080","","8207","25.26","img/117/3.5/2/bw/001.png","","","complex"
"","","","","","animation","71","718007","0.0-71.0","1920x1080","","6572","45.50","img/117/4/1.5/bw/001.png","","","complex"
"","","","","","animation","72","721607","0.0-72.0","1920x1080","","3599.099999964237","0","img/238/2.5/0.5/bw/001.png","","","complex"
"","","","","","animation","73","730255","0.0-73.0","1920x1080","","8647","62","img/314/4.5/0.5/bw/001.png","","","complex"
"","","","","","animation","74","735711","0.0-74.0","1920x1080","","5455.199999988079","49.47","img/117/4/1/bw/001.png","","","complex"
"","","","","","animation","75","739103","0.0-75.0","1920x1080","","3390.800000011921","31.88","img/314/3.5/0.5/bw/001.png","","","complex"
"","","","","","animation","76","746303","0.0-76.0","1920x1080","","7199.5","19","img/117/3.5/0.66667/bw/001.png","","","complex"
"","","","","","animation","77","753759","0.0-77.0","1920x1080","","7454.899999976158","22.22","img/238/3.5/1.5/bw/001.png","","","complex"
"","","","","","animation","78","764207","0.0-78.0","1920x1080","","10447","79.63","img/117/5.5/1/bw/001.png","","","complex"
"","","","","","animation","79","768863","0.0-79.0","1920x1080","","4654.900000035763","0","img/314/2.5/0.5/bw/001.png","","","complex"
"","","","","","animation","80","775271","0.0-80.0","1920x1080","","6406.5","0","img/238/2.5/0.66667/bw/001.png","","","complex"
"","","","","","animation","81","782927","0.0-81.0","1920x1080","","7655.199999988079","73.15","img/314/5.5/1/bw/001.png","","","complex"
"","","","","","html-button-response","82","802976","0.0-82.0","1920x1080","","20047.099999964237","","<div class=""intro"">You are about to view a new series of animations.<br><br></div><div class=""intro"">You will evaluate them based on a different descriptor.<br><br></div><div class=""intro"">Move the slider to indicate how <strong style=""text-transform:capitalize"">APPEALING</strong> you find each animation.<br><br></div><div class=""intro"">0 = Least Appealing<br></div><div class=""intro"">1 = Most Appealing<br><br></div><div class=""intro"">Remember to use the <strong><em>entire range</em></strong> of the slider to make your ratings.<br></div><div class=""intro"">Please <strong><em>take your time</em></strong> and carefully consider each rating you make.<br><br></div>","0","",""
"","","","","","call-function","83","802977","0.0-83.0","1920x1080","","","","","","",""
"","","","","","animation","84","816575","0.0-84.0","1920x1080","","13597.699999988079","86.11","img/238/5.5/2/bw/001.png","","","appealing"
"","","","","","animation","85","820743","0.0-85.0","1920x1080","","4163.900000035763","3.44","img/117/3.5/1.5/bw/001.png","","","appealing"
"","","","","","animation","86","824585","0.0-86.0","1920x1080","","3841.100000023842","2.78","img/117/4/1.5/bw/001.png","","","appealing"
"","","","","","animation","87","828552","0.0-87.0","1920x1080","","3965.399999976158","1","img/314/4/1/bw/001.png","","","appealing"
"","","","","","animation","88","832447","0.0-88.0","1920x1080","","3894","0","img/117/3.5/0.66667/bw/001.png","","","appealing"
"","","","","","animation","89","835495","0.0-89.0","1920x1080","","3046.5","0.00","img/314/2.5/1.5/bw/001.png","","","appealing"
"","","","","","animation","90","845003","0.0-90.0","1920x1080","","9506.699999988079","94.58","img/238/5.5/0.66667/bw/001.png","","","appealing"
"","","","","","animation","91","850143","0.0-91.0","1920x1080","","5137","0","img/117/2.5/0.66667/bw/001.png","","","appealing"
"","","","","","animation","92","854791","0.0-92.0","1920x1080","","4646.800000011921","0.00","img/117/2.5/2/bw/001.png","","","appealing"
"","","","","","animation","93","861375","0.0-93.0","1920x1080","","6582.699999988079","32.67","img/238/4/0.5/bw/001.png","","","appealing"
"","","","","","animation","94","865969","0.0-94.0","1920x1080","","4593.100000023842","3.70","img/117/2.5/1.5/bw/001.png","","","appealing"
"","","","","","animation","95","873135","0.0-95.0","1920x1080","","7165.099999964237","19.71","img/314/3.5/2/bw/001.png","","","appealing"
"","","","","","animation","96","889471","0.0-96.0","1920x1080","","16334.099999964237","84.39","img/238/5.5/1.5/bw/001.png","","","appealing"
"","","","","","animation","97","892820","0.0-97.0","1920x1080","","3347.100000023842","16.01","img/238/3.5/1/bw/001.png","","","appealing"
"","","","","","animation","98","898992","0.0-98.0","1920x1080","","6171.200000047684","0.00","img/117/2.5/1/bw/001.png","","","appealing"
"","","","","","animation","99","908392","0.0-99.0","1920x1080","","9398.699999988079","62","img/238/4.5/0.66667/bw/001.png","","","appealing"
"","","","","","animation","100","914640","0.0-100.0","1920x1080","","6246.800000011921","40.08","img/117/4/0.5/bw/001.png","","","appealing"
"","","","","","animation","101","923152","0.0-101.0","1920x1080","","8510.699999988079","56.35","img/238/4.5/1/bw/001.png","","","appealing"
"","","","","","animation","102","927336","0.0-102.0","1920x1080","","4183.400000035763","21.83","img/117/3.5/1/bw/001.png","","","appealing"
"","","","","","animation","103","942786","0.0-103.0","1920x1080","","15447.800000011921","64","img/117/4.5/1.5/bw/001.png","","","appealing"
"","","","","","animation","104","956912","0.0-104.0","1920x1080","","14125.199999988079","94","img/117/5.5/1.5/bw/001.png","","","appealing"
"","","","","","animation","105","965824","0.0-105.0","1920x1080","","8909.900000035763","80.03","img/238/4.5/2/bw/001.png","","","appealing"
"","","","","","animation","106","976035","0.0-106.0","1920x1080","","10210.399999976158","94.97","img/117/5.5/1/bw/001.png","","","appealing"
"","","","","","animation","107","984185","0.0-107.0","1920x1080","","8149.200000047684","7.94","img/238/3.5/0.66667/bw/001.png","","","appealing"
"","","","","","animation","108","988487","0.0-108.0","1920x1080","","4301.100000023842","0","img/238/2.5/0.5/bw/001.png","","","appealing"
"","","","","","animation","109","997792","0.0-109.0","1920x1080","","9303.5","96","img/314/5.5/0.5/bw/001.png","","","appealing"
"","","","","","animation","110","1009848","0.0-110.0","1920x1080","","12053.800000011921","35.71","img/314/4/1.5/bw/001.png","","","appealing"
"","","","","","animation","111","1018703","0.0-111.0","1920x1080","","8854.200000047684","30","img/238/4/0.66667/bw/001.png","","","appealing"
"","","","","","animation","112","1022152","0.0-112.0","1920x1080","","3447.600000023842","3.97","img/314/2.5/0.5/bw/001.png","","","appealing"
"","","","","","animation","113","1031436","0.0-113.0","1920x1080","","9283","43.12","img/314/4.5/2/bw/001.png","","","appealing"
"","","","","","animation","114","1037775","0.0-114.0","1920x1080","","6338.299999952316","31.48","img/238/3.5/2/bw/001.png","","","appealing"
"","","","","","animation","115","1055168","0.0-115.0","1920x1080","","17390.80000001192","90.48","img/117/5.5/0.66667/bw/001.png","","","appealing"
"","","","","","animation","116","1057824","0.0-116.0","1920x1080","","2654.199999988079","0","img/314/2.5/0.66667/bw/001.png","","","appealing"
"","","","","","animation","117","1062064","0.0-117.0","1920x1080","","4239","94.97","img/314/5.5/1.5/bw/001.png","","","appealing"
"","","","","","animation","118","1070696","0.0-118.0","1920x1080","","8630.800000011921","94.18","img/314/5.5/2/bw/001.png","","","appealing"
"","","","","","animation","119","1076464","0.0-119.0","1920x1080","","5764.300000011921","37.30","img/117/4.5/0.5/bw/001.png","","","appealing"
"","","","","","animation","120","1080072","0.0-120.0","1920x1080","","3606.199999988079","23.02","img/314/3.5/1.5/bw/001.png","","","appealing"
"","","","","","animation","121","1085944","0.0-121.0","1920x1080","","5871.099999964237","27.12","img/117/4.5/1/bw/001.png","","","appealing"
"","","","","","animation","122","1089970","0.0-122.0","1920x1080","","4024.7000000476837","0.40","img/117/2.5/0.5/bw/001.png","","","appealing"
"","","","","","animation","123","1093402","0.0-123.0","1920x1080","","3431.5","5.29","img/314/3.5/0.66667/bw/001.png","","","appealing"
"","","","","","animation","124","1096944","0.0-124.0","1920x1080","","3540.699999988079","15.48","img/117/4/0.66667/bw/001.png","","","appealing"
"","","","","","animation","125","1103440","0.0-125.0","1920x1080","","6494.399999976158","92.99","img/238/5.5/1/bw/001.png","","","appealing"
"","","","","","animation","126","1105992","0.0-126.0","1920x1080","","2550.099999964237","1.32","img/238/2.5/0.66667/bw/001.png","","","appealing"
"","","","","","animation","127","1122224","0.0-127.0","1920x1080","","16231.099999964237","35.58","img/238/4.5/0.5/bw/001.png","","","appealing"
"","","","","","animation","128","1129943","0.0-128.0","1920x1080","","7718.600000023842","89.68","img/117/5.5/0.5/bw/001.png","","","appealing"
"","","","","","animation","129","1138896","0.0-129.0","1920x1080","","8951.199999988079","59.26","img/314/4.5/0.5/bw/001.png","","","appealing"
"","","","","","animation","130","1143264","0.0-130.0","1920x1080","","4366.799999952316","10.32","img/117/3.5/2/bw/001.png","","","appealing"
"","","","","","animation","131","1145655","0.0-131.0","1920x1080","","2390.5","1.98","img/314/2.5/1/bw/001.png","","","appealing"
"","","","","","animation","132","1149002","0.0-132.0","1920x1080","","3345.800000011921","31","img/117/4.5/0.66667/bw/001.png","","","appealing"
"","","","","","animation","133","1157328","0.0-133.0","1920x1080","","8324.5","32.94","img/117/4.5/2/bw/001.png","","","appealing"
"","","","","","animation","134","1162035","0.0-134.0","1920x1080","","4706.700000047684","30.82","img/238/4/1/bw/001.png","","","appealing"
"","","","","","animation","135","1167552","0.0-135.0","1920x1080","","5515.600000023842","42.20","img/314/4.5/1.5/bw/001.png","","","appealing"
"","","","","","animation","136","1170511","0.0-136.0","1920x1080","","2958.699999988079","14.15","img/238/3.5/1.5/bw/001.png","","","appealing"
"","","","","","animation","137","1174623","0.0-137.0","1920x1080","","4110.900000035763","88.89","img/117/5.5/2/bw/001.png","","","appealing"
"","","","","","animation","138","1190002","0.0-138.0","1920x1080","","15377","6.08","img/117/3.5/0.5/bw/001.png","","","appealing"
"","","","","","animation","139","1199808","0.0-139.0","1920x1080","","9804.100000023842","66","img/314/4.5/0.66667/bw/001.png","","","appealing"
"","","","","","animation","140","1201872","0.0-140.0","1920x1080","","2062.5","37.57","img/314/4/0.5/bw/001.png","","","appealing"
"","","","","","animation","141","1204576","0.0-141.0","1920x1080","","2703.5","22.09","img/314/3.5/1/bw/001.png","","","appealing"
"","","","","","animation","142","1207336","0.0-142.0","1920x1080","","2759.2000000476837","30.82","img/117/4/1/bw/001.png","","","appealing"
"","","","","","animation","143","1211056","0.0-143.0","1920x1080","","3718.099999964237","43.39","img/314/4.5/1/bw/001.png","","","appealing"
"","","","","","animation","144","1213696","0.0-144.0","1920x1080","","2639","1.32","img/238/2.5/1/bw/001.png","","","appealing"
"","","","","","animation","145","1218419","0.0-145.0","1920x1080","","4722.199999988079","98","img/238/5.5/0.5/bw/001.png","","","appealing"
"","","","","","animation","146","1222008","0.0-146.0","1920x1080","","3587.5","9.79","img/314/4/2/bw/001.png","","","appealing"
"","","","","","animation","147","1227112","0.0-147.0","1920x1080","","5103","81.22","img/314/5.5/0.66667/bw/001.png","","","appealing"
"","","","","","animation","148","1229952","0.0-148.0","1920x1080","","2839.099999964237","28.17","img/238/4/2/bw/001.png","","","appealing"
"","","","","","animation","149","1232819","0.0-149.0","1920x1080","","2865.699999988079","17.46","img/314/4/0.66667/bw/001.png","","","appealing"
"","","","","","animation","150","1235119","0.0-150.0","1920x1080","","2299.5","23.81","img/238/4/1.5/bw/001.png","","","appealing"
"","","","","","animation","151","1237544","0.0-151.0","1920x1080","","2423.599999964237","22.09","img/117/4/2/bw/001.png","","","appealing"
"","","","","","animation","152","1239576","0.0-152.0","1920x1080","","2030.8999999761581","12.04","img/314/3.5/0.5/bw/001.png","","","appealing"
"","","","","","animation","153","1243071","0.0-153.0","1920x1080","","3494.699999988079","4.37","img/314/2.5/2/bw/001.png","","","appealing"
"","","","","","animation","154","1246703","0.0-154.0","1920x1080","","3630.900000035763","1.98","img/238/2.5/2/bw/001.png","","","appealing"
"","","","","","animation","155","1253271","0.0-155.0","1920x1080","","6567.199999988079","0","img/238/2.5/1.5/bw/001.png","","","appealing"
"","","","","","animation","156","1256602","0.0-156.0","1920x1080","","3330","23.54","img/238/3.5/0.5/bw/001.png","","","appealing"
"","","","","","animation","157","1262192","0.0-157.0","1920x1080","","5588.099999964237","41.93","img/238/4.5/1.5/bw/001.png","","","appealing"
"","","","","","animation","158","1266512","0.0-158.0","1920x1080","","4318.599999964237","81.35","img/314/5.5/1/bw/001.png","","","appealing"
"","","","","","html-button-response","159","1287032","0.0-159.0","1920x1080","","20518.5","","<div class=""intro"">You are about to view a new series of animations.<br><br></div><div class=""intro"">You will evaluate them based on a different descriptor.<br><br></div><div class=""intro"">Move the slider to indicate how <strong style=""text-transform:capitalize"">INTERESTING</strong> you find each animation.<br><br></div><div class=""intro"">0 = Least Interesting<br></div><div class=""intro"">1 = Most Interesting<br><br></div><div class=""intro"">Remember to use the <strong><em>entire range</em></strong> of the slider to make your ratings.<br></div><div class=""intro"">Please <strong><em>take your time</em></strong> and carefully consider each rating you make.<br><br></div>","0","",""
"","","","","","call-function","160","1287033","0.0-160.0","1920x1080","","","","","","",""
"","","","","","animation","161","1292128","0.0-161.0","1920x1080","","5093.899999976158","88.49","img/117/5.5/0.66667/bw/001.png","","","interesting"
"","","","","","animation","162","1295112","0.0-162.0","1920x1080","","2982.699999988079","86.24","img/314/5.5/0.66667/bw/001.png","","","interesting"
"","","","","","animation","163","1301688","0.0-163.0","1920x1080","","6574.300000011921","61.24","img/238/4.5/1.5/bw/001.png","","","interesting"
"","","","","","animation","164","1307041","0.0-164.0","1920x1080","","5351.200000047684","10.71","img/117/3.5/1.5/bw/001.png","","","interesting"
"","","","","","animation","165","1310793","0.0-165.0","1920x1080","","3751.099999964237","0.53","img/314/2.5/0.5/bw/001.png","","","interesting"
"","","","","","animation","166","1314337","0.0-166.0","1920x1080","","3542.800000011921","1.32","img/314/2.5/2/bw/001.png","","","interesting"
"","","","","","animation","167","1317945","0.0-167.0","1920x1080","","3606.900000035763","89.42","img/117/5.5/0.5/bw/001.png","","","interesting"
"","","","","","animation","168","1322377","0.0-168.0","1920x1080","","4430.899999976158","25.40","img/314/4/0.66667/bw/001.png","","","interesting"
"","","","","","animation","169","1325304","0.0-169.0","1920x1080","","2926.699999988079","3.17","img/117/2.5/1.5/bw/001.png","","","interesting"
"","","","","","animation","170","1327993","0.0-170.0","1920x1080","","2687.199999988079","0","img/117/2.5/0.66667/bw/001.png","","","interesting"
"","","","","","animation","171","1335113","0.0-171.0","1920x1080","","7118.800000011921","55.16","img/314/4.5/1.5/bw/001.png","","","interesting"
"","","","","","animation","172","1342361","0.0-172.0","1920x1080","","7246.900000035763","81.75","img/117/5.5/1.5/bw/001.png","","","interesting"
"","","","","","animation","173","1349745","0.0-173.0","1920x1080","","7382.700000047684","27.38","img/238/4/1/bw/001.png","","","interesting"
"","","","","","animation","174","1358920","0.0-174.0","1920x1080","","9174.599999964237","64.81","img/117/4.5/1/bw/001.png","","","interesting"
"","","","","","animation","175","1368770","0.0-175.0","1920x1080","","9849","39.15","img/117/4/0.5/bw/001.png","","","interesting"
"","","","","","animation","176","1371622","0.0-176.0","1920x1080","","2850.099999964237","1.59","img/238/2.5/0.5/bw/001.png","","","interesting"
"","","","","","animation","177","1375361","0.0-177.0","1920x1080","","3737.100000023842","17.59","img/314/4/2/bw/001.png","","","interesting"
"","","","","","animation","178","1379637","0.0-178.0","1920x1080","","4275.100000023842","32.94","img/117/4.5/0.5/bw/001.png","","","interesting"
"","","","","","animation","179","1382537","0.0-179.0","1920x1080","","2898.800000011921","2.51","img/238/2.5/1/bw/001.png","","","interesting"
"","","","","","animation","180","1386056","0.0-180.0","1920x1080","","3518.399999976158","0","img/117/2.5/1/bw/001.png","","","interesting"
"","","","","","animation","181","1400409","0.0-181.0","1920x1080","","14351.200000047684","88.89","img/314/5.5/0.5/bw/001.png","","","interesting"
"","","","","","animation","182","1405488","0.0-182.0","1920x1080","","5078.100000023842","94.18","img/314/5.5/1/bw/001.png","","","interesting"
"","","","","","animation","183","1411273","0.0-183.0","1920x1080","","5783.5","1.72","img/238/3.5/2/bw/001.png","","","interesting"
"","","","","","animation","184","1421673","0.0-184.0","1920x1080","","10396.199999988079","74.47","img/314/5.5/1.5/bw/001.png","","","interesting"
"","","","","","animation","185","1435321","0.0-185.0","1920x1080","","13646.800000011921","85","img/238/5.5/2/bw/001.png","","","interesting"
"","","","","","animation","186","1438409","0.0-186.0","1920x1080","","3087.399999976158","3.70","img/314/3.5/2/bw/001.png","","","interesting"
"","","","","","animation","187","1441637","0.0-187.0","1920x1080","","3226.399999976158","0","img/238/3.5/0.5/bw/001.png","","","interesting"
"","","","","","animation","188","1447504","0.0-188.0","1920x1080","","5866.100000023842","6.48","img/314/4.5/2/bw/001.png","","","interesting"
"","","","","","animation","189","1452504","0.0-189.0","1920x1080","","4998.700000047684","84.66","img/117/5.5/1/bw/001.png","","","interesting"
"","","","","","animation","190","1456593","0.0-190.0","1920x1080","","4087.300000011921","0.53","img/314/2.5/0.66667/bw/001.png","","","interesting"
"","","","","","animation","191","1459177","0.0-191.0","1920x1080","","2582.899999976158","7.28","img/117/4/1/bw/001.png","","","interesting"
"","","","","","animation","192","1461553","0.0-192.0","1920x1080","","2375.099999964237","4.37","img/314/3.5/1.5/bw/001.png","","","interesting"
"","","","","","animation","193","1464745","0.0-193.0","1920x1080","","3190.5","29.37","img/117/4.5/1.5/bw/001.png","","","interesting"
"","","","","","animation","194","1466713","0.0-194.0","1920x1080","","1966.3999999761581","3.31","img/117/2.5/2/bw/001.png","","","interesting"
"","","","","","animation","195","1470587","0.0-195.0","1920x1080","","3873","17","img/314/4/1/bw/001.png","","","interesting"
"","","","","","animation","196","1475941","0.0-196.0","1920x1080","","5353.199999988079","79.76","img/314/5.5/2/bw/001.png","","","interesting"
"","","","","","animation","197","1479177","0.0-197.0","1920x1080","","3233.400000035763","31.22","img/238/4/0.5/bw/001.png","","","interesting"
"","","","","","animation","198","1481737","0.0-198.0","1920x1080","","2557.600000023842","26.06","img/117/4/0.66667/bw/001.png","","","interesting"
"","","","","","animation","199","1489871","0.0-199.0","1920x1080","","8132.400000035763","22.09","img/238/4.5/0.5/bw/001.png","","","interesting"
"","","","","","animation","200","1496870","0.0-200.0","1920x1080","","6998.400000035763","84","img/238/5.5/0.5/bw/001.png","","","interesting"
"","","","","","animation","201","1502170","0.0-201.0","1920x1080","","5298.900000035763","27.91","img/314/4/0.5/bw/001.png","","","interesting"
"","","","","","animation","202","1505771","0.0-202.0","1920x1080","","3598.900000035763","21.83","img/238/4/1.5/bw/001.png","","","interesting"
"","","","","","animation","203","1511729","0.0-203.0","1920x1080","","5956.800000011921","19.71","img/238/4.5/1/bw/001.png","","","interesting"
"","","","","","animation","204","1517961","0.0-204.0","1920x1080","","6229.599999964237","20.11","img/117/4/2/bw/001.png","","","interesting"
"","","","","","animation","205","1522145","0.0-205.0","1920x1080","","4182.699999988079","0.79","img/314/2.5/1/bw/001.png","","","interesting"
"","","","","","animation","206","1526237","0.0-206.0","1920x1080","","4090.7000000476837","0","img/117/3.5/1/bw/001.png","","","interesting"
"","","","","","animation","207","1530987","0.0-207.0","1920x1080","","4747.900000035763","0","img/117/2.5/0.5/bw/001.png","","","interesting"
"","","","","","animation","208","1538554","0.0-208.0","1920x1080","","7564.899999976158","96","img/238/5.5/1/bw/001.png","","","interesting"
"","","","","","animation","209","1543554","0.0-209.0","1920x1080","","4997.100000023842","1.59","img/238/2.5/2/bw/001.png","","","interesting"
"","","","","","animation","210","1546737","0.0-210.0","1920x1080","","3181.800000011921","1.59","img/238/2.5/1.5/bw/001.png","","","interesting"
"","","","","","animation","211","1549487","0.0-211.0","1920x1080","","2748.400000035763","1.32","img/238/2.5/0.66667/bw/001.png","","","interesting"
"","","","","","animation","212","1556009","0.0-212.0","1920x1080","","6520.799999952316","9","img/314/3.5/1/bw/001.png","","","interesting"
"","","","","","animation","213","1559854","0.0-213.0","1920x1080","","3843.699999988079","32.67","img/117/4.5/0.66667/bw/001.png","","","interesting"
"","","","","","animation","214","1564409","0.0-214.0","1920x1080","","4553.800000011921","17.99","img/238/3.5/1/bw/001.png","","","interesting"
"","","","","","animation","215","1571687","0.0-215.0","1920x1080","","7276.699999988079","52.12","img/238/4.5/0.66667/bw/001.png","","","interesting"
"","","","","","animation","216","1581421","0.0-216.0","1920x1080","","9730.099999964237","27.25","img/117/3.5/0.66667/bw/001.png","","","interesting"
"","","","","","animation","217","1583473","0.0-217.0","1920x1080","","2049.300000011921","14.42","img/117/3.5/2/bw/001.png","","","interesting"
"","","","","","animation","218","1587145","0.0-218.0","1920x1080","","3670.800000011921","6.48","img/238/4/2/bw/001.png","","","interesting"
"","","","","","animation","219","1594644","0.0-219.0","1920x1080","","7498.300000011921","94","img/238/5.5/0.66667/bw/001.png","","","interesting"
"","","","","","animation","220","1599754","0.0-220.0","1920x1080","","5104.599999964237","85.71","img/117/5.5/2/bw/001.png","","","interesting"
"","","","","","animation","221","1602641","0.0-221.0","1920x1080","","2884.699999988079","1.32","img/314/2.5/1.5/bw/001.png","","","interesting"
"","","","","","animation","222","1606337","0.0-222.0","1920x1080","","3695.300000011921","2.25","img/238/3.5/1.5/bw/001.png","","","interesting"
"","","","","","animation","223","1616271","0.0-223.0","1920x1080","","9931.899999976158","87","img/238/5.5/1.5/bw/001.png","","","interesting"
"","","","","","animation","224","1623887","0.0-224.0","1920x1080","","7615.100000023842","36.51","img/314/4.5/1/bw/001.png","","","interesting"
"","","","","","animation","225","1629088","0.0-225.0","1920x1080","","5200.199999988079","33.20","img/117/4.5/2/bw/001.png","","","interesting"
"","","","","","animation","226","1635825","0.0-226.0","1920x1080","","6734.900000035763","23.02","img/314/4.5/0.5/bw/001.png","","","interesting"
"","","","","","animation","227","1639393","0.0-227.0","1920x1080","","3566","7.67","img/314/3.5/0.66667/bw/001.png","","","interesting"
"","","","","","animation","228","1641745","0.0-228.0","1920x1080","","2350.800000011921","2.65","img/238/3.5/0.66667/bw/001.png","","","interesting"
"","","","","","animation","229","1645254","0.0-229.0","1920x1080","","3507.599999964237","7.14","img/314/4/1.5/bw/001.png","","","interesting"
"","","","","","animation","230","1647425","0.0-230.0","1920x1080","","2169.899999976158","4.10","img/238/4/0.66667/bw/001.png","","","interesting"
"","","","","","animation","231","1650009","0.0-231.0","1920x1080","","2582.5","0","img/314/3.5/0.5/bw/001.png","","","interesting"
"","","","","","animation","232","1661804","0.0-232.0","1920x1080","","11793.699999988079","46","img/238/4.5/2/bw/001.png","","","interesting"
"","","","","","animation","233","1664657","0.0-233.0","1920x1080","","2850","16.40","img/117/3.5/0.5/bw/001.png","","","interesting"
"","","","","","animation","234","1668721","0.0-234.0","1920x1080","","4062.599999964237","17.33","img/117/4/1.5/bw/001.png","","","interesting"
"","","","","","animation","235","1672609","0.0-235.0","1920x1080","","3887","34.13","img/314/4.5/0.66667/bw/001.png","","","interesting"
"","","","","","html-button-response","236","1693514","0.0-236.0","1920x1080","","20902.5","","<div class=""intro"">You are about to view a new series of animations.<br><br></div><div class=""intro"">You will evaluate them based on a different descriptor.<br><br></div><div class=""intro"">Move the slider to indicate how <strong style=""text-transform:capitalize"">NATURAL</strong> you find each animation.<br><br></div><div class=""intro"">0 = Least Natural<br></div><div class=""intro"">1 = Most Natural<br><br></div><div class=""intro"">Remember to use the <strong><em>entire range</em></strong> of the slider to make your ratings.<br></div><div class=""intro"">Please <strong><em>take your time</em></strong> and carefully consider each rating you make.<br><br></div>","0","",""
"","","","","","call-function","237","1693516","0.0-237.0","1920x1080","","","","","","",""
"","","","","","animation","238","1700004","0.0-238.0","1920x1080","","6487.400000035763","2.38","img/238/4/0.5/bw/001.png","","","natural"
"","","","","","animation","239","1702561","0.0-239.0","1920x1080","","2554.300000011921","0","img/117/3.5/0.5/bw/001.png","","","natural"
"","","","","","animation","240","1705838","0.0-240.0","1920x1080","","3275.099999964237","12.57","img/238/4/1.5/bw/001.png","","","natural"
"","","","","","animation","241","1712040","0.0-241.0","1920x1080","","6201","3.44","img/238/3.5/0.66667/bw/001.png","","","natural"
"","","","","","animation","242","1717621","0.0-242.0","1920x1080","","5579.099999964237","37.43","img/314/4.5/0.5/bw/001.png","","","natural"
"","","","","","animation","243","1722571","0.0-243.0","1920x1080","","4948.600000023842","100","img/314/2.5/1/bw/001.png","","","natural"
"","","","","","animation","244","1737754","0.0-244.0","1920x1080","","15182","29.63","img/117/4/1.5/bw/001.png","","","natural"
"","","","","","animation","245","1742977","0.0-245.0","1920x1080","","5220.800000011921","100","img/314/2.5/2/bw/001.png","","","natural"
"","","","","","animation","246","1748289","0.0-246.0","1920x1080","","5309.900000035763","89","img/238/2.5/0.5/bw/001.png","","","natural"
"","","","","","animation","247","1751409","0.0-247.0","1920x1080","","3119","90.08","img/117/2.5/1.5/bw/001.png","","","natural"
"","","","","","animation","248","1755673","0.0-248.0","1920x1080","","4261.800000011921","100","img/117/2.5/0.66667/bw/001.png","","","natural"
"","","","","","animation","249","1769625","0.0-249.0","1920x1080","","13948.900000035763","10.19","img/238/4.5/0.5/bw/001.png","","","natural"
"","","","","","animation","250","1774920","0.0-250.0","1920x1080","","5293.699999988079","22.22","img/238/4.5/1.5/bw/001.png","","","natural"
"","","","","","animation","251","1778621","0.0-251.0","1920x1080","","3698.7000000476837","97","img/117/2.5/2/bw/001.png","","","natural"
"","","","","","animation","252","1787345","0.0-252.0","1920x1080","","8721.899999976158","44","img/238/4.5/2/bw/001.png","","","natural"
"","","","","","animation","253","1790196","0.0-253.0","1920x1080","","2849.7000000476837","96","img/314/2.5/1.5/bw/001.png","","","natural"
"","","","","","animation","254","1797937","0.0-254.0","1920x1080","","7736.800000011921","94.97","img/314/5.5/2/bw/001.png","","","natural"
"","","","","","animation","255","1801225","0.0-255.0","1920x1080","","3286.100000023842","49.07","img/117/4.5/1.5/bw/001.png","","","natural"
"","","","","","animation","256","1804225","0.0-256.0","1920x1080","","2998.399999976158","31","img/314/4.5/2/bw/001.png","","","natural"
"","","","","","animation","257","1807841","0.0-257.0","1920x1080","","3614.2000000476837","34.92","img/117/4.5/2/bw/001.png","","","natural"
"","","","","","animation","258","1817621","0.0-258.0","1920x1080","","9778.5","91.53","img/314/5.5/1.5/bw/001.png","","","natural"
"","","","","","animation","259","1821129","0.0-259.0","1920x1080","","3506.7999999523163","82.94","img/117/5.5/0.66667/bw/001.png","","","natural"
"","","","","","animation","260","1825121","0.0-260.0","1920x1080","","3989","14.29","img/117/3.5/1/bw/001.png","","","natural"
"","","","","","animation","261","1827745","0.0-261.0","1920x1080","","2622.600000023842","10.71","img/314/3.5/0.66667/bw/001.png","","","natural"
"","","","","","animation","262","1833571","0.0-262.0","1920x1080","","5824.699999988079","8.99","img/117/3.5/2/bw/001.png","","","natural"
"","","","","","animation","263","1839345","0.0-263.0","1920x1080","","5772.700000047684","35.32","img/238/4/0.66667/bw/001.png","","","natural"
"","","","","","animation","264","1844704","0.0-264.0","1920x1080","","5357.300000011921","59.79","img/314/5.5/0.5/bw/001.png","","","natural"
"","","","","","animation","265","1848088","0.0-265.0","1920x1080","","3382.7000000476837","12.57","img/117/4/2/bw/001.png","","","natural"
"","","","","","animation","266","1852488","0.0-266.0","1920x1080","","4398.600000023842","68.92","img/117/5.5/2/bw/001.png","","","natural"
"","","","","","animation","267","1861888","0.0-267.0","1920x1080","","9397.300000011921","77.78","img/238/5.5/2/bw/001.png","","","natural"
"","","","","","animation","268","1865777","0.0-268.0","1920x1080","","3886.800000011921","100","img/314/2.5/0.5/bw/001.png","","","natural"
"","","","","","animation","269","1870037","0.0-269.0","1920x1080","","4258.300000011921","16.27","img/117/4.5/0.66667/bw/001.png","","","natural"
"","","","","","animation","270","1872921","0.0-270.0","1920x1080","","2881.699999988079","14.42","img/314/4/1.5/bw/001.png","","","natural"
"","","","","","animation","271","1876354","0.0-271.0","1920x1080","","3431.5","11.24","img/238/3.5/2/bw/001.png","","","natural"
"","","","","","animation","272","1879504","0.0-272.0","1920x1080","","3149.5","97","img/314/2.5/0.66667/bw/001.png","","","natural"
"","","","","","animation","273","1882971","0.0-273.0","1920x1080","","3465.300000011921","80.29","img/314/5.5/1/bw/001.png","","","natural"
"","","","","","animation","274","1891238","0.0-274.0","1920x1080","","8265.199999988079","70.90","img/117/5.5/0.5/bw/001.png","","","natural"
"","","","","","animation","275","1895161","0.0-275.0","1920x1080","","3921.300000011921","80.69","img/117/5.5/1.5/bw/001.png","","","natural"
"","","","","","animation","276","1897505","0.0-276.0","1920x1080","","2341.100000023842","29.63","img/238/4/1/bw/001.png","","","natural"
"","","","","","animation","277","1899821","0.0-277.0","1920x1080","","2315.199999988079","18.25","img/314/4/1/bw/001.png","","","natural"
"","","","","","animation","278","1903577","0.0-278.0","1920x1080","","3754.899999976158","98","img/238/2.5/0.66667/bw/001.png","","","natural"
"","","","","","animation","279","1906361","0.0-279.0","1920x1080","","2782.5","6.08","img/117/4/0.5/bw/001.png","","","natural"
"","","","","","animation","280","1912938","0.0-280.0","1920x1080","","6575.300000011921","93.25","img/238/5.5/1/bw/001.png","","","natural"
"","","","","","animation","281","1917305","0.0-281.0","1920x1080","","4365.300000011921","99","img/238/2.5/1/bw/001.png","","","natural"
"","","","","","animation","282","1922505","0.0-282.0","1920x1080","","5198.699999988079","39","img/117/4.5/1/bw/001.png","","","natural"
"","","","","","animation","283","1925472","0.0-283.0","1920x1080","","2965.5","19.71","img/314/4/0.66667/bw/001.png","","","natural"
"","","","","","animation","284","1927921","0.0-284.0","1920x1080","","2447.800000011921","6.75","img/314/3.5/1.5/bw/001.png","","","natural"
"","","","","","animation","285","1930441","0.0-285.0","1920x1080","","2518.300000011921","7.28","img/314/3.5/1/bw/001.png","","","natural"
"","","","","","animation","286","1932538","0.0-286.0","1920x1080","","2095.600000023842","9.26","img/314/3.5/0.5/bw/001.png","","","natural"
"","","","","","animation","287","1935309","0.0-287.0","1920x1080","","2769.800000011921","25.53","img/238/4.5/1/bw/001.png","","","natural"
"","","","","","animation","288","1939529","0.0-288.0","1920x1080","","4218.5","58.86","img/238/4.5/0.66667/bw/001.png","","","natural"
"","","","","","animation","289","1944438","0.0-289.0","1920x1080","","4907.600000023842","29.76","img/117/4.5/0.5/bw/001.png","","","natural"
"","","","","","animation","290","1958475","0.0-290.0","1920x1080","","14035.600000023842","68.12","img/314/5.5/0.66667/bw/001.png","","","natural"
"","","","","","animation","291","1960797","0.0-291.0","1920x1080","","2320","11.51","img/238/3.5/1/bw/001.png","","","natural"
"","","","","","animation","292","1963888","0.0-292.0","1920x1080","","3089.899999976158","99","img/238/2.5/1.5/bw/001.png","","","natural"
"","","","","","animation","293","1970161","0.0-293.0","1920x1080","","6271","50.13","img/314/4.5/1.5/bw/001.png","","","natural"
"","","","","","animation","294","1973088","0.0-294.0","1920x1080","","2925.399999976158","16.53","img/238/3.5/1.5/bw/001.png","","","natural"
"","","","","","animation","295","1976305","0.0-295.0","1920x1080","","3215.099999964237","21.83","img/238/4/2/bw/001.png","","","natural"
"","","","","","animation","296","1979977","0.0-296.0","1920x1080","","3671.100000023842","23.28","img/117/4/1/bw/001.png","","","natural"
"","","","","","animation","297","1983409","0.0-297.0","1920x1080","","3430","23.68","img/314/4/2/bw/001.png","","","natural"
"","","","","","animation","298","1990561","0.0-298.0","1920x1080","","7149.900000035763","12.43","img/117/3.5/0.66667/bw/001.png","","","natural"
"","","","","","animation","299","1995091","0.0-299.0","1920x1080","","4529.099999964237","31.08","img/314/4.5/1/bw/001.png","","","natural"
"","","","","","animation","300","1998238","0.0-300.0","1920x1080","","3145","4.37","img/314/3.5/2/bw/001.png","","","natural"
"","","","","","animation","301","2001961","0.0-301.0","1920x1080","","3721.399999976158","98","img/117/2.5/1/bw/001.png","","","natural"
"","","","","","animation","302","2007095","0.0-302.0","1920x1080","","5132.100000023842","89.81","img/238/2.5/2/bw/001.png","","","natural"
"","","","","","animation","303","2011288","0.0-303.0","1920x1080","","4190.5","39.02","img/314/4.5/0.66667/bw/001.png","","","natural"
"","","","","","animation","304","2014040","0.0-304.0","1920x1080","","2750.599999964237","17.06","img/117/3.5/1.5/bw/001.png","","","natural"
"","","","","","animation","305","2021540","0.0-305.0","1920x1080","","7497.300000011921","76.85","img/238/5.5/0.66667/bw/001.png","","","natural"
"","","","","","animation","306","2025438","0.0-306.0","1920x1080","","3897.399999976158","73.02","img/238/5.5/0.5/bw/001.png","","","natural"
"","","","","","animation","307","2031055","0.0-307.0","1920x1080","","5614.099999964237","55.56","img/238/3.5/0.5/bw/001.png","","","natural"
"","","","","","animation","308","2038178","0.0-308.0","1920x1080","","7120.900000035763","61.64","img/238/5.5/1.5/bw/001.png","","","natural"
"","","","","","animation","309","2041998","0.0-309.0","1920x1080","","3819.199999988079","77.51","img/117/2.5/0.5/bw/001.png","","","natural"
"","","","","","animation","310","2046193","0.0-310.0","1920x1080","","4192.5","25.13","img/117/4/0.66667/bw/001.png","","","natural"
"","","","","","animation","311","2050722","0.0-311.0","1920x1080","","4527.400000035763","72.09","img/117/5.5/1/bw/001.png","","","natural"
"","","","","","animation","312","2054561","0.0-312.0","1920x1080","","3838.099999964237","26.98","img/314/4/0.5/bw/001.png","","","natural"
"","","","","","html-button-response","313","2075740","0.0-313.0","1920x1080","","21176.099999964237","","<div class=""intro"">You are about to view a new series of animations.<br><br></div><div class=""intro"">You will evaluate them based on a different descriptor.<br><br></div><div class=""intro"">Move the slider to indicate how <strong style=""text-transform:capitalize"">RELAXING</strong> you find each animation.<br><br></div><div class=""intro"">0 = Least Relaxing<br></div><div class=""intro"">1 = Most Relaxing<br><br></div><div class=""intro"">Remember to use the <strong><em>entire range</em></strong> of the slider to make your ratings.<br></div><div class=""intro"">Please <strong><em>take your time</em></strong> and carefully consider each rating you make.<br><br></div>","0","",""
"","","","","","call-function","314","2075743","0.0-314.0","1920x1080","","","","","","",""
"","","","","","animation","315","2079427","0.0-315.0","1920x1080","","3683.900000035763","18.78","img/117/3.5/0.66667/bw/001.png","","","relaxing"
"","","","","","animation","316","2081946","0.0-316.0","1920x1080","","2516.699999988079","0","img/314/2.5/0.66667/bw/001.png","","","relaxing"
"","","","","","animation","317","2086762","0.0-317.0","1920x1080","","4814.5","69.44","img/117/5.5/0.66667/bw/001.png","","","relaxing"
"","","","","","animation","318","2089522","0.0-318.0","1920x1080","","2758.899999976158","77","img/314/5.5/2/bw/001.png","","","relaxing"
"","","","","","animation","319","2092772","0.0-319.0","1920x1080","","3248.599999964237","54.23","img/117/4.5/2/bw/001.png","","","relaxing"
"","","","","","animation","320","2096025","0.0-320.0","1920x1080","","3251.599999964237","41.67","img/314/2.5/2/bw/001.png","","","relaxing"
"","","","","","animation","321","2100594","0.0-321.0","1920x1080","","4567","36.90","img/314/4.5/1.5/bw/001.png","","","relaxing"
"","","","","","animation","322","2103977","0.0-322.0","1920x1080","","3382","6.08","img/117/2.5/0.66667/bw/001.png","","","relaxing"
"","","","","","animation","323","2106972","0.0-323.0","1920x1080","","2992.7000000476837","31.75","img/117/4.5/1.5/bw/001.png","","","relaxing"
"","","","","","animation","324","2109539","0.0-324.0","1920x1080","","2565.7000000476837","3.84","img/238/2.5/1/bw/001.png","","","relaxing"
"","","","","","animation","325","2112362","0.0-325.0","1920x1080","","2821.699999988079","32.28","img/314/3.5/1.5/bw/001.png","","","relaxing"
"","","","","","animation","326","2116605","0.0-326.0","1920x1080","","4242","6.48","img/238/3.5/0.5/bw/001.png","","","relaxing"
"","","","","","animation","327","2120179","0.0-327.0","1920x1080","","3571.900000035763","2.78","img/238/2.5/0.5/bw/001.png","","","relaxing"
"","","","","","animation","328","2122847","0.0-328.0","1920x1080","","2667","70.37","img/117/5.5/0.5/bw/001.png","","","relaxing"
"","","","","","animation","329","2126009","0.0-329.0","1920x1080","","3160.199999988079","2.78","img/117/2.5/2/bw/001.png","","","relaxing"
"","","","","","animation","330","2128946","0.0-330.0","1920x1080","","2934.699999988079","89.29","img/314/5.5/1/bw/001.png","","","relaxing"
"","","","","","animation","331","2135045","0.0-331.0","1920x1080","","6097.599999964237","5.29","img/238/3.5/0.66667/bw/001.png","","","relaxing"
"","","","","","animation","332","2137444","0.0-332.0","1920x1080","","2397.399999976158","6","img/314/3.5/0.66667/bw/001.png","","","relaxing"
"","","","","","animation","333","2141289","0.0-333.0","1920x1080","","3842.699999988079","18.92","img/117/4.5/0.5/bw/001.png","","","relaxing"
"","","","","","animation","334","2143821","0.0-334.0","1920x1080","","2530.300000011921","6.48","img/314/4/0.5/bw/001.png","","","relaxing"
"","","","","","animation","335","2149409","0.0-335.0","1920x1080","","5586.5","29.63","img/314/4.5/1/bw/001.png","","","relaxing"
"","","","","","animation","336","2157504","0.0-336.0","1920x1080","","8092.699999988079","19.44","img/238/4.5/0.5/bw/001.png","","","relaxing"
"","","","","","animation","337","2166410","0.0-337.0","1920x1080","","8904.299999952316","86","img/238/5.5/1.5/bw/001.png","","","relaxing"
"","","","","","animation","338","2169238","0.0-338.0","1920x1080","","2825.5","2.78","img/314/2.5/0.5/bw/001.png","","","relaxing"
"","","","","","animation","339","2171977","0.0-339.0","1920x1080","","2737","14.55","img/117/4/0.66667/bw/001.png","","","relaxing"
"","","","","","animation","340","2175595","0.0-340.0","1920x1080","","3616.199999988079","3.44","img/238/2.5/1.5/bw/001.png","","","relaxing"
"","","","","","animation","341","2178009","0.0-341.0","1920x1080","","2411.699999988079","3.70","img/314/2.5/1.5/bw/001.png","","","relaxing"
"","","","","","animation","342","2184316","0.0-342.0","1920x1080","","6304.900000035763","36.24","img/117/4.5/1/bw/001.png","","","relaxing"
"","","","","","animation","343","2188106","0.0-343.0","1920x1080","","3789.100000023842","28.97","img/117/4.5/0.66667/bw/001.png","","","relaxing"
"","","","","","animation","344","2190799","0.0-344.0","1920x1080","","2690.900000035763","24.34","img/314/4.5/0.66667/bw/001.png","","","relaxing"
"","","","","","animation","345","2207026","0.0-345.0","1920x1080","","16222.899999976158","91","img/117/5.5/1.5/bw/001.png","","","relaxing"
"","","","","","animation","346","2211289","0.0-346.0","1920x1080","","4261.600000023842","66.40","img/238/4.5/1.5/bw/001.png","","","relaxing"
"","","","","","animation","347","2216195","0.0-347.0","1920x1080","","4904.699999988079","44.71","img/238/4/1.5/bw/001.png","","","relaxing"
"","","","","","animation","348","2218258","0.0-348.0","1920x1080","","2060.400000035763","22","img/314/3.5/1/bw/001.png","","","relaxing"
"","","","","","animation","349","2220980","0.0-349.0","1920x1080","","2721.399999976158","14","img/238/3.5/1.5/bw/001.png","","","relaxing"
"","","","","","animation","350","2225142","0.0-350.0","1920x1080","","4159.300000011921","27","img/238/4/2/bw/001.png","","","relaxing"
"","","","","","animation","351","2229110","0.0-351.0","1920x1080","","3966.2999999523163","80.29","img/314/5.5/1.5/bw/001.png","","","relaxing"
"","","","","","animation","352","2231939","0.0-352.0","1920x1080","","2827.400000035763","8.47","img/238/3.5/2/bw/001.png","","","relaxing"
"","","","","","animation","353","2236456","0.0-353.0","1920x1080","","4515.399999976158","9.66","img/238/4.5/0.66667/bw/001.png","","","relaxing"
"","","","","","animation","354","2244058","0.0-354.0","1920x1080","","7599.5","79.10","img/314/5.5/0.66667/bw/001.png","","","relaxing"
"","","","","","animation","355","2246756","0.0-355.0","1920x1080","","2696.2999999523163","4.37","img/238/2.5/0.66667/bw/001.png","","","relaxing"
"","","","","","animation","356","2257622","0.0-356.0","1920x1080","","10865.200000047684","68.12","img/238/5.5/2/bw/001.png","","","relaxing"
"","","","","","animation","357","2260962","0.0-357.0","1920x1080","","3338.400000035763","79.89","img/117/5.5/1/bw/001.png","","","relaxing"
"","","","","","animation","358","2263539","0.0-358.0","1920x1080","","2575.800000011921","1.59","img/314/2.5/1/bw/001.png","","","relaxing"
"","","","","","animation","359","2266225","0.0-359.0","1920x1080","","2684.5","0","img/117/4/1.5/bw/001.png","","","relaxing"
"","","","","","animation","360","2269611","0.0-360.0","1920x1080","","3384.600000023842","89.02","img/238/5.5/1/bw/001.png","","","relaxing"
"","","","","","animation","361","2274993","0.0-361.0","1920x1080","","5379.5","15","img/238/4/0.5/bw/001.png","","","relaxing"
"","","","","","animation","362","2278871","0.0-362.0","1920x1080","","3875.5","37.30","img/238/4.5/2/bw/001.png","","","relaxing"
"","","","","","animation","363","2281955","0.0-363.0","1920x1080","","3081","11","img/314/4/0.66667/bw/001.png","","","relaxing"
"","","","","","animation","364","2284777","0.0-364.0","1920x1080","","2820.399999976158","1.32","img/117/2.5/0.5/bw/001.png","","","relaxing"
"","","","","","animation","365","2289873","0.0-365.0","1920x1080","","5093.600000023842","72.35","img/314/5.5/0.5/bw/001.png","","","relaxing"
"","","","","","animation","366","2294330","0.0-366.0","1920x1080","","4455.399999976158","14","img/117/4/2/bw/001.png","","","relaxing"
"","","","","","animation","367","2297733","0.0-367.0","1920x1080","","3400.699999988079","97","img/238/5.5/0.5/bw/001.png","","","relaxing"
"","","","","","animation","368","2302471","0.0-368.0","1920x1080","","4735.699999988079","20.24","img/238/4/1/bw/001.png","","","relaxing"
"","","","","","animation","369","2307361","0.0-369.0","1920x1080","","4887.599999964237","9.13","img/117/3.5/1/bw/001.png","","","relaxing"
"","","","","","animation","370","2309863","0.0-370.0","1920x1080","","2501.099999964237","5.69","img/117/3.5/2/bw/001.png","","","relaxing"
"","","","","","animation","371","2313722","0.0-371.0","1920x1080","","3856.5","6.08","img/314/4/1/bw/001.png","","","relaxing"
"","","","","","animation","372","2318123","0.0-372.0","1920x1080","","4400.100000023842","5.03","img/117/4/0.5/bw/001.png","","","relaxing"
"","","","","","animation","373","2322722","0.0-373.0","1920x1080","","4580.099999964237","26.32","img/314/4/2/bw/001.png","","","relaxing"
"","","","","","animation","374","2325339","0.0-374.0","1920x1080","","2614.5","15.08","img/117/3.5/1.5/bw/001.png","","","relaxing"
"","","","","","animation","375","2328139","0.0-375.0","1920x1080","","2798.599999964237","2.91","img/117/3.5/0.5/bw/001.png","","","relaxing"
"","","","","","animation","376","2331487","0.0-376.0","1920x1080","","3345.899999976158","1.98","img/117/2.5/1/bw/001.png","","","relaxing"
"","","","","","animation","377","2334739","0.0-377.0","1920x1080","","3248","8.73","img/117/2.5/1.5/bw/001.png","","","relaxing"
"","","","","","animation","378","2343158","0.0-378.0","1920x1080","","8418.199999988079","61","img/238/4.5/1/bw/001.png","","","relaxing"
"","","","","","animation","379","2348625","0.0-379.0","1920x1080","","5464.700000047684","7.80","img/238/3.5/1/bw/001.png","","","relaxing"
"","","","","","animation","380","2356177","0.0-380.0","1920x1080","","7549.699999988079","79.63","img/117/5.5/2/bw/001.png","","","relaxing"
"","","","","","animation","381","2361948","0.0-381.0","1920x1080","","5768.800000011921","9.13","img/117/4/1/bw/001.png","","","relaxing"
"","","","","","animation","382","2369181","0.0-382.0","1920x1080","","7230.5","39.55","img/314/4.5/2/bw/001.png","","","relaxing"
"","","","","","animation","383","2371489","0.0-383.0","1920x1080","","2306.5","12.30","img/238/4/0.66667/bw/001.png","","","relaxing"
"","","","","","animation","384","2375355","0.0-384.0","1920x1080","","3864.900000035763","88.76","img/238/5.5/0.66667/bw/001.png","","","relaxing"
"","","","","","animation","385","2379050","0.0-385.0","1920x1080","","3691.100000023842","1.72","img/314/3.5/2/bw/001.png","","","relaxing"
"","","","","","animation","386","2381123","0.0-386.0","1920x1080","","2071.699999988079","1.98","img/314/4/1.5/bw/001.png","","","relaxing"
"","","","","","animation","387","2383406","0.0-387.0","1920x1080","","2282.099999964237","2.25","img/238/2.5/2/bw/001.png","","","relaxing"
"","","","","","animation","388","2385656","0.0-388.0","1920x1080","","2247.899999976158","2","img/314/3.5/0.5/bw/001.png","","","relaxing"
"","","","","","animation","389","2389399","0.0-389.0","1920x1080","","3741.800000011921","13.10","img/314/4.5/0.5/bw/001.png","","","relaxing"
"","","","","","html-button-response","390","2409948","0.0-390.0","1920x1080","","20547.399999976158","","<strong>Study Debriefing</strong><br><p class=""debrief""><strong>Background:</strong> The patterns you rated are called <em>fractals</em>. The term fractal describes a class of irregular curves or shapes for which any suitably chosen part is similar in shape to a given larger or smaller part when magnified or reduced to the same size. Fractal properties are found throughout the natural and manmade world. The series of animations you saw today displayed animated fractal patterns of a varying complexity.</p><p class=""debrief""><strong>Purpose of this study:</strong> We hope to better understand how the perception of static fractals differs from the perception of animated fractals, and how the speed of the animated patterns influences people&apos;s perception of them. Fractals allow us to study the perception of aesthetic properties (e.g. the perceived level of beauty in an image) without using recognizable content, which makes them an excellent tool for studying abstract aesthetic judgement.</p><p class=""debrief""><strong>Your part:</strong> Your participation has helped us to further understand how humans perceive these patterns across different levels of speed and complexity. This research with allow us to better understand how the visual system and brain process our ever-changing visual environments.<p class=""debrief""><strong>Feedback and Further information:</strong> If you have additional questions about this study, please feel free to ask the researcher, Nathan Gonzales-Hess at nhess @ uoregon.edu. If you have any questions concerning your rights as a research participant, please contact Research Compliance Services, 5237 University of Oregon, Eugene, OR 97403, 541-346-2510, or email researchCompliance @ uoregon.edu. You can also email the Human Subjects Coordinator for psychology and linguistics research at hscoord @ uoregon.edu. ","0","",""
"","","","","","html-button-response","391","2412730","0.0-391.0","1920x1080","","2777.099999964237","","Thank you for participating in this study. <br>Please click below to finish the experiment and submit your responses.<br><br>","0","",""
"true","","","","","fullscreen","392","2413756","0.0-392.0","1920x1080","13:30 11/10/2022","","","","","",""
