"success","timeout","failed_images","failed_audio","failed_video","trial_type","trial_index","time_elapsed","internal_node_id","resolution","timeStamp","rt","response","stimulus","button_pressed","value","descriptor"
"true","false","[]","[]","[]","preload","0","6030","0.0-0.0","1920x1080","","","","","","",""
"true","false","[]","[]","[]","preload","1","12190","0.0-1.0","1920x1080","","","","","","",""
"true","false","[]","[]","[]","preload","2","18143","0.0-2.0","1920x1080","","","","","","",""
"true","","","","","fullscreen","3","859338","0.0-3.0","1920x1080","15:45 12/10/2022","","","","","",""
"","","","","","survey-html-form","4","870935","0.0-4.0","1920x1080","","11593.399999976158","{""age"":""19"",""gender"":""female""}","","","",""
"","","","","","html-button-response","5","930552","0.0-5.0","1920x1080","","59614.80000001192","","<div class=""complex"">You are going to see a series of animations.<br><br></div><div class=""complex"">Move the slider to indicate how <strong style=""text-transform:capitalize"">COMPLEX</strong> you find each animation.<br><br></div><div class=""complex"">0 = Least Complex<br></div><div class=""complex"">1 = Most Complex<br><br></div><div class=""complex"">Remember to use the <strong><em>entire range</em></strong> of the slider to make your ratings.<br></div><div class=""complex"">Please <strong><em>take your time</em></strong> and carefully consider each rating you make.<br><br></div><div class=""complex"">The study has five sections and will take about 45 minutes to complete.<br><br></div>","0","",""
"","","","","","call-function","6","930552","0.0-6.0","1920x1080","","","","","","",""
"","","","","","animation","7","953263","0.0-7.0","1920x1080","","22709.80000001192","60.19","img/117/3.5/2/bw/001.png","","","complex"
"","","","","","animation","8","961735","0.0-8.0","1920x1080","","8471","51","img/238/3.5/1/bw/001.png","","","complex"
"","","","","","animation","9","969319","0.0-9.0","1920x1080","","7583.100000023842","35.32","img/117/3.5/1/bw/001.png","","","complex"
"","","","","","animation","10","978287","0.0-10.0","1920x1080","","8967.300000011921","69.71","img/314/3.5/0.66667/bw/001.png","","","complex"
"","","","","","animation","11","983256","0.0-11.0","1920x1080","","4967.300000011921","95","img/117/2.5/2/bw/001.png","","","complex"
"","","","","","animation","12","990495","0.0-12.0","1920x1080","","7238.699999988079","97","img/314/2.5/2/bw/001.png","","","complex"
"","","","","","animation","13","996087","0.0-13.0","1920x1080","","5591.399999976158","89.95","img/314/2.5/0.66667/bw/001.png","","","complex"
"","","","","","animation","14","999999","0.0-14.0","1920x1080","","3910.800000011921","10.05","img/238/4.5/2/bw/001.png","","","complex"
"","","","","","animation","15","1002791","0.0-15.0","1920x1080","","2791.199999988079","24.87","img/314/4/1/bw/001.png","","","complex"
"","","","","","animation","16","1006463","0.0-16.0","1920x1080","","3671.7000000476837","17","img/238/4/1/bw/001.png","","","complex"
"","","","","","animation","17","1011127","0.0-17.0","1920x1080","","4662.900000035763","10.19","img/117/5.5/0.5/bw/001.png","","","complex"
"","","","","","animation","18","1016031","0.0-18.0","1920x1080","","4903.600000023842","29.63","img/314/4.5/0.5/bw/001.png","","","complex"
"","","","","","animation","19","1018815","0.0-19.0","1920x1080","","2783.399999976158","91.40","img/238/2.5/1.5/bw/001.png","","","complex"
"","","","","","animation","20","1023063","0.0-20.0","1920x1080","","4246.800000011921","98","img/238/2.5/0.66667/bw/001.png","","","complex"
"","","","","","animation","21","1027183","0.0-21.0","1920x1080","","4119.5","97","img/238/2.5/2/bw/001.png","","","complex"
"","","","","","animation","22","1030824","0.0-22.0","1920x1080","","3640","18.25","img/314/5.5/0.66667/bw/001.png","","","complex"
"","","","","","animation","23","1039503","0.0-23.0","1920x1080","","8678.300000011921","37.70","img/238/3.5/2/bw/001.png","","","complex"
"","","","","","animation","24","1047583","0.0-24.0","1920x1080","","8079.100000023842","38","img/238/4/1.5/bw/001.png","","","complex"
"","","","","","animation","25","1050311","0.0-25.0","1920x1080","","2727.199999988079","61","img/117/3.5/0.66667/bw/001.png","","","complex"
"","","","","","animation","26","1055199","0.0-26.0","1920x1080","","4887.399999976158","20.77","img/314/5.5/1/bw/001.png","","","complex"
"","","","","","animation","27","1064199","0.0-27.0","1920x1080","","8999.399999976158","27","img/314/4/2/bw/001.png","","","complex"
"","","","","","animation","28","1068111","0.0-28.0","1920x1080","","3911.199999988079","27.51","img/117/4.5/1/bw/001.png","","","complex"
"","","","","","animation","29","1071703","0.0-29.0","1920x1080","","3591.600000023842","25.79","img/117/4.5/0.66667/bw/001.png","","","complex"
"","","","","","animation","30","1075487","0.0-30.0","1920x1080","","3783.2000000476837","66.01","img/314/3.5/0.5/bw/001.png","","","complex"
"","","","","","animation","31","1079551","0.0-31.0","1920x1080","","4063","30","img/314/4.5/1/bw/001.png","","","complex"
"","","","","","animation","32","1091263","0.0-32.0","1920x1080","","11710.800000011921","21.30","img/117/5.5/0.66667/bw/001.png","","","complex"
"","","","","","animation","33","1095263","0.0-33.0","1920x1080","","3999.2999999523163","87.57","img/238/2.5/0.5/bw/001.png","","","complex"
"","","","","","animation","34","1099335","0.0-34.0","1920x1080","","4071.300000011921","32.80","img/314/4.5/2/bw/001.png","","","complex"
"","","","","","animation","35","1104863","0.0-35.0","1920x1080","","5527","20.11","img/117/5.5/1/bw/001.png","","","complex"
"","","","","","animation","36","1109725","0.0-36.0","1920x1080","","4862.800000011921","21.16","img/238/5.5/0.66667/bw/001.png","","","complex"
"","","","","","animation","37","1113765","0.0-37.0","1920x1080","","4039.300000011921","60.71","img/117/4/0.66667/bw/001.png","","","complex"
"","","","","","animation","38","1120055","0.0-38.0","1920x1080","","6289.5","46.30","img/314/4/0.66667/bw/001.png","","","complex"
"","","","","","animation","39","1124580","0.0-39.0","1920x1080","","4524.5","29.50","img/238/4/2/bw/001.png","","","complex"
"","","","","","animation","40","1130341","0.0-40.0","1920x1080","","5759.799999952316","31","img/314/4.5/1.5/bw/001.png","","","complex"
"","","","","","animation","41","1134533","0.0-41.0","1920x1080","","4191.400000035763","37.57","img/314/4/1.5/bw/001.png","","","complex"
"","","","","","animation","42","1137997","0.0-42.0","1920x1080","","3463","75","img/117/2.5/0.66667/bw/001.png","","","complex"
"","","","","","animation","43","1140797","0.0-43.0","1920x1080","","2798.699999988079","41.14","img/238/4.5/1.5/bw/001.png","","","complex"
"","","","","","animation","44","1145085","0.0-44.0","1920x1080","","4287.300000011921","16.01","img/314/5.5/0.5/bw/001.png","","","complex"
"","","","","","animation","45","1151141","0.0-45.0","1920x1080","","6055.5","22.09","img/117/5.5/1.5/bw/001.png","","","complex"
"","","","","","animation","46","1156293","0.0-46.0","1920x1080","","5151.100000023842","59.26","img/238/3.5/1.5/bw/001.png","","","complex"
"","","","","","animation","47","1158613","0.0-47.0","1920x1080","","2319.100000023842","65.87","img/314/4/0.5/bw/001.png","","","complex"
"","","","","","animation","48","1163749","0.0-48.0","1920x1080","","5135.600000023842","64.81","img/117/4/1/bw/001.png","","","complex"
"","","","","","animation","49","1169662","0.0-49.0","1920x1080","","5910.5","61.77","img/238/4/0.66667/bw/001.png","","","complex"
"","","","","","animation","50","1174575","0.0-50.0","1920x1080","","4911.699999988079","49.87","img/238/4.5/1/bw/001.png","","","complex"
"","","","","","animation","51","1181551","0.0-51.0","1920x1080","","6974.299999952316","34.66","img/314/5.5/2/bw/001.png","","","complex"
"","","","","","animation","52","1185558","0.0-52.0","1920x1080","","4005.899999976158","79.37","img/314/2.5/0.5/bw/001.png","","","complex"
"","","","","","animation","53","1189359","0.0-53.0","1920x1080","","3800.300000011921","35.85","img/314/5.5/1.5/bw/001.png","","","complex"
"","","","","","animation","54","1196110","0.0-54.0","1920x1080","","6749.799999952316","34","img/117/4/1.5/bw/001.png","","","complex"
"","","","","","animation","55","1202359","0.0-55.0","1920x1080","","6247.599999964237","21","img/117/5.5/2/bw/001.png","","","complex"
"","","","","","animation","56","1204878","0.0-56.0","1920x1080","","2518.5","54.63","img/314/3.5/2/bw/001.png","","","complex"
"","","","","","animation","57","1207287","0.0-57.0","1920x1080","","2407.5","63.89","img/117/3.5/0.5/bw/001.png","","","complex"
"","","","","","animation","58","1212175","0.0-58.0","1920x1080","","4887.600000023842","77","img/238/2.5/1/bw/001.png","","","complex"
"","","","","","animation","59","1217857","0.0-59.0","1920x1080","","5678.300000011921","53.17","img/117/4/2/bw/001.png","","","complex"
"","","","","","animation","60","1222294","0.0-60.0","1920x1080","","4436","56.61","img/117/4.5/0.5/bw/001.png","","","complex"
"","","","","","animation","61","1225628","0.0-61.0","1920x1080","","3335.199999988079","41.93","img/117/4.5/2/bw/001.png","","","complex"
"","","","","","animation","62","1229444","0.0-62.0","1920x1080","","3814.899999976158","64","img/314/3.5/1.5/bw/001.png","","","complex"
"","","","","","animation","63","1234660","0.0-63.0","1920x1080","","5215","55.16","img/117/4.5/1.5/bw/001.png","","","complex"
"","","","","","animation","64","1237564","0.0-64.0","1920x1080","","2903.400000035763","74.47","img/117/2.5/1/bw/001.png","","","complex"
"","","","","","animation","65","1248284","0.0-65.0","1920x1080","","10719.100000023842","61","img/238/4.5/0.5/bw/001.png","","","complex"
"","","","","","animation","66","1253021","0.0-66.0","1920x1080","","4735.300000011921","80","img/314/2.5/1/bw/001.png","","","complex"
"","","","","","animation","67","1260205","0.0-67.0","1920x1080","","7183.300000011921","16","img/238/5.5/1.5/bw/001.png","","","complex"
"","","","","","animation","68","1263222","0.0-68.0","1920x1080","","3016","41.14","img/238/3.5/0.5/bw/001.png","","","complex"
"","","","","","animation","69","1267156","0.0-69.0","1920x1080","","3933.399999976158","61.51","img/238/3.5/0.66667/bw/001.png","","","complex"
"","","","","","animation","70","1270628","0.0-70.0","1920x1080","","3470.899999976158","69","img/238/4/0.5/bw/001.png","","","complex"
"","","","","","animation","71","1273396","0.0-71.0","1920x1080","","2766.800000011921","77.38","img/117/3.5/1.5/bw/001.png","","","complex"
"","","","","","animation","72","1275748","0.0-72.0","1920x1080","","2350.900000035763","87.30","img/117/2.5/0.5/bw/001.png","","","complex"
"","","","","","animation","73","1280132","0.0-73.0","1920x1080","","4383.699999988079","31.61","img/117/4/0.5/bw/001.png","","","complex"
"","","","","","animation","74","1284276","0.0-74.0","1920x1080","","4142.699999988079","16.40","img/314/4.5/0.66667/bw/001.png","","","complex"
"","","","","","animation","75","1287802","0.0-75.0","1920x1080","","3528.800000011921","43.78","img/314/3.5/1/bw/001.png","","","complex"
"","","","","","animation","76","1291513","0.0-76.0","1920x1080","","3709.300000011921","75","img/314/2.5/1.5/bw/001.png","","","complex"
"","","","","","animation","77","1298018","0.0-77.0","1920x1080","","6504.400000035763","27","img/238/4.5/0.66667/bw/001.png","","","complex"
"","","","","","animation","78","1300656","0.0-78.0","1920x1080","","2637.2999999523163","75","img/117/2.5/1.5/bw/001.png","","","complex"
"","","","","","animation","79","1308936","0.0-79.0","1920x1080","","8279.099999964237","7","img/238/5.5/1/bw/001.png","","","complex"
"","","","","","animation","80","1319472","0.0-80.0","1920x1080","","10534.400000035763","6.22","img/238/5.5/2/bw/001.png","","","complex"
"","","","","","animation","81","1324960","0.0-81.0","1920x1080","","5486.900000035763","13.76","img/238/5.5/0.5/bw/001.png","","","complex"
"","","","","","html-button-response","82","1345832","0.0-82.0","1920x1080","","20862.5","","<div class=""intro"">You are about to view a new series of animations.<br><br></div><div class=""intro"">You will evaluate them based on a different descriptor.<br><br></div><div class=""intro"">Move the slider to indicate how <strong style=""text-transform:capitalize"">APPEALING</strong> you find each animation.<br><br></div><div class=""intro"">0 = Least Appealing<br></div><div class=""intro"">1 = Most Appealing<br><br></div><div class=""intro"">Remember to use the <strong><em>entire range</em></strong> of the slider to make your ratings.<br></div><div class=""intro"">Please <strong><em>take your time</em></strong> and carefully consider each rating you make.<br><br></div>","0","",""
"","","","","","call-function","83","1345833","0.0-83.0","1920x1080","","","","","","",""
"","","","","","animation","84","1349259","0.0-84.0","1920x1080","","3425","27.91","img/314/4.5/1/bw/001.png","","","appealing"
"","","","","","animation","85","1353075","0.0-85.0","1920x1080","","3815.399999976158","16.40","img/314/4/1/bw/001.png","","","appealing"
"","","","","","animation","86","1356504","0.0-86.0","1920x1080","","3427.300000011921","31.88","img/314/4.5/0.5/bw/001.png","","","appealing"
"","","","","","animation","87","1361143","0.0-87.0","1920x1080","","4638.399999976158","11.11","img/314/2.5/0.66667/bw/001.png","","","appealing"
"","","","","","animation","88","1364527","0.0-88.0","1920x1080","","3382.899999976158","36.38","img/117/4.5/1.5/bw/001.png","","","appealing"
"","","","","","animation","89","1368984","0.0-89.0","1920x1080","","4454.699999988079","63.49","img/314/5.5/1.5/bw/001.png","","","appealing"
"","","","","","animation","90","1372475","0.0-90.0","1920x1080","","3490.400000035763","14.81","img/238/2.5/2/bw/001.png","","","appealing"
"","","","","","animation","91","1376704","0.0-91.0","1920x1080","","4227.900000035763","78.44","img/238/5.5/1.5/bw/001.png","","","appealing"
"","","","","","animation","92","1380104","0.0-92.0","1920x1080","","3398.7000000476837","29.23","img/238/3.5/2/bw/001.png","","","appealing"
"","","","","","animation","93","1384016","0.0-93.0","1920x1080","","3910.599999964237","8.20","img/238/2.5/1/bw/001.png","","","appealing"
"","","","","","animation","94","1388743","0.0-94.0","1920x1080","","4726.899999976158","19.05","img/117/2.5/0.66667/bw/001.png","","","appealing"
"","","","","","animation","95","1392288","0.0-95.0","1920x1080","","3543.300000011921","3","img/117/3.5/0.5/bw/001.png","","","appealing"
"","","","","","animation","96","1397752","0.0-96.0","1920x1080","","5462.700000047684","68","img/117/5.5/2/bw/001.png","","","appealing"
"","","","","","animation","97","1400711","0.0-97.0","1920x1080","","2958.599999964237","35.85","img/117/4.5/0.5/bw/001.png","","","appealing"
"","","","","","animation","98","1406340","0.0-98.0","1920x1080","","5631.800000011921","24.47","img/314/4/0.5/bw/001.png","","","appealing"
"","","","","","animation","99","1411892","0.0-99.0","1920x1080","","5550.400000035763","11.77","img/238/4/0.66667/bw/001.png","","","appealing"
"","","","","","animation","100","1415039","0.0-100.0","1920x1080","","3145.800000011921","31.48","img/238/4.5/1/bw/001.png","","","appealing"
"","","","","","animation","101","1419428","0.0-101.0","1920x1080","","4387.699999988079","40.61","img/314/4.5/2/bw/001.png","","","appealing"
"","","","","","animation","102","1423116","0.0-102.0","1920x1080","","3687","88.10","img/314/5.5/1/bw/001.png","","","appealing"
"","","","","","animation","103","1426244","0.0-103.0","1920x1080","","3126.7000000476837","31.08","img/117/4/1.5/bw/001.png","","","appealing"
"","","","","","animation","104","1428406","0.0-104.0","1920x1080","","2161.100000023842","26.46","img/117/4/0.5/bw/001.png","","","appealing"
"","","","","","animation","105","1431588","0.0-105.0","1920x1080","","3181.5","6.75","img/314/2.5/0.5/bw/001.png","","","appealing"
"","","","","","animation","106","1434916","0.0-106.0","1920x1080","","3326","82.41","img/117/5.5/1/bw/001.png","","","appealing"
"","","","","","animation","107","1439316","0.0-107.0","1920x1080","","4399","20.50","img/117/4.5/0.66667/bw/001.png","","","appealing"
"","","","","","animation","108","1443116","0.0-108.0","1920x1080","","3798.600000023842","28.44","img/238/4.5/1.5/bw/001.png","","","appealing"
"","","","","","animation","109","1447380","0.0-109.0","1920x1080","","4263","14.42","img/117/3.5/0.66667/bw/001.png","","","appealing"
"","","","","","animation","110","1450671","0.0-110.0","1920x1080","","3290.300000011921","9.79","img/238/2.5/0.5/bw/001.png","","","appealing"
"","","","","","animation","111","1453115","0.0-111.0","1920x1080","","2443.800000011921","29","img/314/3.5/1.5/bw/001.png","","","appealing"
"","","","","","animation","112","1460012","0.0-112.0","1920x1080","","6894.900000035763","92.99","img/238/5.5/1/bw/001.png","","","appealing"
"","","","","","animation","113","1462123","0.0-113.0","1920x1080","","2109.899999976158","41.80","img/117/4/2/bw/001.png","","","appealing"
"","","","","","animation","114","1465889","0.0-114.0","1920x1080","","3767.099999964237","10.85","img/117/2.5/0.5/bw/001.png","","","appealing"
"","","","","","animation","115","1469869","0.0-115.0","1920x1080","","3979.2000000476837","13.23","img/238/3.5/1/bw/001.png","","","appealing"
"","","","","","animation","116","1472457","0.0-116.0","1920x1080","","2587.099999964237","6.48","img/238/2.5/1.5/bw/001.png","","","appealing"
"","","","","","animation","117","1475441","0.0-117.0","1920x1080","","2983.099999964237","26.19","img/238/3.5/0.5/bw/001.png","","","appealing"
"","","","","","animation","118","1478921","0.0-118.0","1920x1080","","3479.2999999523163","97","img/238/5.5/0.66667/bw/001.png","","","appealing"
"","","","","","animation","119","1481857","0.0-119.0","1920x1080","","2934.899999976158","28","img/238/4/2/bw/001.png","","","appealing"
"","","","","","animation","120","1484361","0.0-120.0","1920x1080","","2503","19.71","img/314/3.5/1/bw/001.png","","","appealing"
"","","","","","animation","121","1488305","0.0-121.0","1920x1080","","3942.599999964237","90.34","img/314/5.5/0.5/bw/001.png","","","appealing"
"","","","","","animation","122","1490937","0.0-122.0","1920x1080","","2631.099999964237","16.01","img/314/2.5/1.5/bw/001.png","","","appealing"
"","","","","","animation","123","1494969","0.0-123.0","1920x1080","","4031.199999988079","18.78","img/238/4/1/bw/001.png","","","appealing"
"","","","","","animation","124","1497193","0.0-124.0","1920x1080","","2223.599999964237","20","img/117/3.5/1/bw/001.png","","","appealing"
"","","","","","animation","125","1502971","0.0-125.0","1920x1080","","5776.300000011921","98","img/117/5.5/0.5/bw/001.png","","","appealing"
"","","","","","animation","126","1507019","0.0-126.0","1920x1080","","4046.600000023842","2","img/117/2.5/1/bw/001.png","","","appealing"
"","","","","","animation","127","1510714","0.0-127.0","1920x1080","","3693.599999964237","2","img/117/2.5/2/bw/001.png","","","appealing"
"","","","","","animation","128","1512921","0.0-128.0","1920x1080","","2206.300000011921","11.11","img/314/4/0.66667/bw/001.png","","","appealing"
"","","","","","animation","129","1515409","0.0-129.0","1920x1080","","2487.2000000476837","21.69","img/238/4/0.5/bw/001.png","","","appealing"
"","","","","","animation","130","1518889","0.0-130.0","1920x1080","","3479","55.29","img/314/4/1.5/bw/001.png","","","appealing"
"","","","","","animation","131","1521237","0.0-131.0","1920x1080","","2347.100000023842","40","img/117/3.5/1.5/bw/001.png","","","appealing"
"","","","","","animation","132","1527277","0.0-132.0","1920x1080","","6034.900000035763","44.05","img/117/4/1/bw/001.png","","","appealing"
"","","","","","animation","133","1530857","0.0-133.0","1920x1080","","3578.899999976158","15.08","img/117/2.5/1.5/bw/001.png","","","appealing"
"","","","","","animation","134","1534691","0.0-134.0","1920x1080","","3832.699999988079","0.79","img/238/3.5/0.66667/bw/001.png","","","appealing"
"","","","","","animation","135","1537674","0.0-135.0","1920x1080","","2981.899999976158","19.71","img/314/4/2/bw/001.png","","","appealing"
"","","","","","animation","136","1540277","0.0-136.0","1920x1080","","2601.800000011921","9.13","img/238/2.5/0.66667/bw/001.png","","","appealing"
"","","","","","animation","137","1543873","0.0-137.0","1920x1080","","3595.199999988079","85.32","img/238/5.5/0.5/bw/001.png","","","appealing"
"","","","","","animation","138","1547781","0.0-138.0","1920x1080","","3906.900000035763","90.34","img/117/5.5/1.5/bw/001.png","","","appealing"
"","","","","","animation","139","1550025","0.0-139.0","1920x1080","","2242.400000035763","31","img/117/3.5/2/bw/001.png","","","appealing"
"","","","","","animation","140","1552101","0.0-140.0","1920x1080","","2075.300000011921","11.90","img/314/2.5/2/bw/001.png","","","appealing"
"","","","","","animation","141","1554774","0.0-141.0","1920x1080","","2672.099999964237","22.09","img/314/3.5/0.5/bw/001.png","","","appealing"
"","","","","","animation","142","1557489","0.0-142.0","1920x1080","","2714.300000011921","23.94","img/314/3.5/0.66667/bw/001.png","","","appealing"
"","","","","","animation","143","1560829","0.0-143.0","1920x1080","","3338.900000035763","26.72","img/117/4/0.66667/bw/001.png","","","appealing"
"","","","","","animation","144","1563149","0.0-144.0","1920x1080","","2318.800000011921","29.37","img/238/4/1.5/bw/001.png","","","appealing"
"","","","","","animation","145","1567197","0.0-145.0","1920x1080","","4047.199999988079","21.43","img/314/3.5/2/bw/001.png","","","appealing"
"","","","","","animation","146","1571877","0.0-146.0","1920x1080","","4678.599999964237","90.21","img/117/5.5/0.66667/bw/001.png","","","appealing"
"","","","","","animation","147","1575101","0.0-147.0","1920x1080","","3223.100000023842","84.92","img/117/4.5/1/bw/001.png","","","appealing"
"","","","","","animation","148","1578590","0.0-148.0","1920x1080","","3488.5","37","img/238/4.5/0.5/bw/001.png","","","appealing"
"","","","","","animation","149","1581473","0.0-149.0","1920x1080","","2881","23.54","img/238/3.5/1.5/bw/001.png","","","appealing"
"","","","","","animation","150","1583974","0.0-150.0","1920x1080","","2500.199999988079","76.19","img/314/5.5/0.66667/bw/001.png","","","appealing"
"","","","","","animation","151","1587688","0.0-151.0","1920x1080","","3714.7999999523163","71","img/314/5.5/2/bw/001.png","","","appealing"
"","","","","","animation","152","1592627","0.0-152.0","1920x1080","","4938","64.29","img/238/5.5/2/bw/001.png","","","appealing"
"","","","","","animation","153","1595443","0.0-153.0","1920x1080","","2814.800000011921","33","img/314/4.5/1.5/bw/001.png","","","appealing"
"","","","","","animation","154","1598331","0.0-154.0","1920x1080","","2887.100000023842","24.74","img/117/4.5/2/bw/001.png","","","appealing"
"","","","","","animation","155","1601771","0.0-155.0","1920x1080","","3438.399999976158","25.93","img/314/4.5/0.66667/bw/001.png","","","appealing"
"","","","","","animation","156","1605763","0.0-156.0","1920x1080","","3990.699999988079","24.47","img/238/4.5/2/bw/001.png","","","appealing"
"","","","","","animation","157","1610163","0.0-157.0","1920x1080","","4399","7.54","img/314/2.5/1/bw/001.png","","","appealing"
"","","","","","animation","158","1613222","0.0-158.0","1920x1080","","3057.900000035763","14.81","img/238/4.5/0.66667/bw/001.png","","","appealing"
"","","","","","html-button-response","159","1641812","0.0-159.0","1920x1080","","28587.899999976158","","<div class=""intro"">You are about to view a new series of animations.<br><br></div><div class=""intro"">You will evaluate them based on a different descriptor.<br><br></div><div class=""intro"">Move the slider to indicate how <strong style=""text-transform:capitalize"">NATURAL</strong> you find each animation.<br><br></div><div class=""intro"">0 = Least Natural<br></div><div class=""intro"">1 = Most Natural<br><br></div><div class=""intro"">Remember to use the <strong><em>entire range</em></strong> of the slider to make your ratings.<br></div><div class=""intro"">Please <strong><em>take your time</em></strong> and carefully consider each rating you make.<br><br></div>","0","",""
"","","","","","call-function","160","1641818","0.0-160.0","1920x1080","","","","","","",""
"","","","","","animation","161","1644915","0.0-161.0","1920x1080","","3096.400000035763","11.90","img/314/4.5/0.5/bw/001.png","","","natural"
"","","","","","animation","162","1647410","0.0-162.0","1920x1080","","2494.099999964237","29.10","img/117/4.5/2/bw/001.png","","","natural"
"","","","","","animation","163","1651270","0.0-163.0","1920x1080","","3858.699999988079","57","img/314/5.5/0.5/bw/001.png","","","natural"
"","","","","","animation","164","1655746","0.0-164.0","1920x1080","","4475.399999976158","73.15","img/238/5.5/0.66667/bw/001.png","","","natural"
"","","","","","animation","165","1658522","0.0-165.0","1920x1080","","2774.699999988079","16.67","img/314/3.5/1/bw/001.png","","","natural"
"","","","","","animation","166","1662254","0.0-166.0","1920x1080","","3731.699999988079","19.71","img/238/4.5/2/bw/001.png","","","natural"
"","","","","","animation","167","1665426","0.0-167.0","1920x1080","","3170.300000011921","17.20","img/238/3.5/1.5/bw/001.png","","","natural"
"","","","","","animation","168","1669290","0.0-168.0","1920x1080","","3862.300000011921","41.80","img/314/4/2/bw/001.png","","","natural"
"","","","","","animation","169","1671538","0.0-169.0","1920x1080","","2246.599999964237","71.69","img/117/5.5/1.5/bw/001.png","","","natural"
"","","","","","animation","170","1673987","0.0-170.0","1920x1080","","2448.199999988079","74.87","img/314/5.5/1.5/bw/001.png","","","natural"
"","","","","","animation","171","1679914","0.0-171.0","1920x1080","","5926.599999964237","21","img/238/2.5/0.5/bw/001.png","","","natural"
"","","","","","animation","172","1683730","0.0-172.0","1920x1080","","3813.300000011921","63.89","img/314/2.5/2/bw/001.png","","","natural"
"","","","","","animation","173","1688122","0.0-173.0","1920x1080","","4390.5","43.65","img/238/3.5/2/bw/001.png","","","natural"
"","","","","","animation","174","1690778","0.0-174.0","1920x1080","","2655.699999988079","27.51","img/238/2.5/0.66667/bw/001.png","","","natural"
"","","","","","animation","175","1694610","0.0-175.0","1920x1080","","3831","28.57","img/238/4/1/bw/001.png","","","natural"
"","","","","","animation","176","1697226","0.0-176.0","1920x1080","","2615.099999964237","19","img/238/4.5/0.5/bw/001.png","","","natural"
"","","","","","animation","177","1699738","0.0-177.0","1920x1080","","2510.300000011921","25.26","img/238/4.5/1/bw/001.png","","","natural"
"","","","","","animation","178","1701810","0.0-178.0","1920x1080","","2071.600000023842","33.60","img/314/4.5/1/bw/001.png","","","natural"
"","","","","","animation","179","1707513","0.0-179.0","1920x1080","","5703.199999988079","34.26","img/314/4/0.5/bw/001.png","","","natural"
"","","","","","animation","180","1710904","0.0-180.0","1920x1080","","3389.5","13.23","img/117/2.5/0.66667/bw/001.png","","","natural"
"","","","","","animation","181","1719285","0.0-181.0","1920x1080","","8380.099999964237","69.05","img/117/3.5/1/bw/001.png","","","natural"
"","","","","","animation","182","1727272","0.0-182.0","1920x1080","","7986.300000011921","82.28","img/314/5.5/2/bw/001.png","","","natural"
"","","","","","animation","183","1729840","0.0-183.0","1920x1080","","2566.899999976158","27.91","img/117/4/1/bw/001.png","","","natural"
"","","","","","animation","184","1732360","0.0-184.0","1920x1080","","2519","21.16","img/117/3.5/0.66667/bw/001.png","","","natural"
"","","","","","animation","185","1735836","0.0-185.0","1920x1080","","3474.599999964237","79.63","img/117/5.5/2/bw/001.png","","","natural"
"","","","","","animation","186","1737728","0.0-186.0","1920x1080","","1891.300000011921","35","img/314/4.5/1.5/bw/001.png","","","natural"
"","","","","","animation","187","1740560","0.0-187.0","1920x1080","","2830.800000011921","13.49","img/314/4/1/bw/001.png","","","natural"
"","","","","","animation","188","1743713","0.0-188.0","1920x1080","","3151.7000000476837","27.25","img/314/2.5/0.5/bw/001.png","","","natural"
"","","","","","animation","189","1758886","0.0-189.0","1920x1080","","15171.599999964237","58.33","img/117/4.5/1/bw/001.png","","","natural"
"","","","","","animation","190","1763868","0.0-190.0","1920x1080","","4981.5","90.08","img/238/5.5/2/bw/001.png","","","natural"
"","","","","","animation","191","1766551","0.0-191.0","1920x1080","","2681.5","28","img/238/4/0.5/bw/001.png","","","natural"
"","","","","","animation","192","1772185","0.0-192.0","1920x1080","","5632.800000011921","10.45","img/314/2.5/0.66667/bw/001.png","","","natural"
"","","","","","animation","193","1776656","0.0-193.0","1920x1080","","4469.199999988079","20","img/314/4/0.66667/bw/001.png","","","natural"
"","","","","","animation","194","1782019","0.0-194.0","1920x1080","","5362.5","23","img/238/4.5/0.66667/bw/001.png","","","natural"
"","","","","","animation","195","1786168","0.0-195.0","1920x1080","","4147.5","23","img/314/3.5/1.5/bw/001.png","","","natural"
"","","","","","animation","196","1789271","0.0-196.0","1920x1080","","3102.5","26","img/117/4/1.5/bw/001.png","","","natural"
"","","","","","animation","197","1792535","0.0-197.0","1920x1080","","3262.699999988079","10.85","img/117/2.5/2/bw/001.png","","","natural"
"","","","","","animation","198","1796104","0.0-198.0","1920x1080","","3567.199999988079","28.17","img/314/3.5/2/bw/001.png","","","natural"
"","","","","","animation","199","1800101","0.0-199.0","1920x1080","","3996.199999988079","71","img/238/5.5/1/bw/001.png","","","natural"
"","","","","","animation","200","1804103","0.0-200.0","1920x1080","","4001","10","img/117/4/2/bw/001.png","","","natural"
"","","","","","animation","201","1808056","0.0-201.0","1920x1080","","3951.300000011921","21.69","img/238/3.5/0.5/bw/001.png","","","natural"
"","","","","","animation","202","1810776","0.0-202.0","1920x1080","","2718.699999988079","26","img/314/3.5/0.66667/bw/001.png","","","natural"
"","","","","","animation","203","1813635","0.0-203.0","1920x1080","","2857.7999999523163","29.10","img/117/4/0.66667/bw/001.png","","","natural"
"","","","","","animation","204","1817202","0.0-204.0","1920x1080","","3565.800000011921","82","img/238/5.5/0.5/bw/001.png","","","natural"
"","","","","","animation","205","1819776","0.0-205.0","1920x1080","","2572.899999976158","16","img/117/2.5/0.5/bw/001.png","","","natural"
"","","","","","animation","206","1822368","0.0-206.0","1920x1080","","2591.800000011921","22","img/314/4.5/0.66667/bw/001.png","","","natural"
"","","","","","animation","207","1825103","0.0-207.0","1920x1080","","2733.899999976158","28","img/238/3.5/0.66667/bw/001.png","","","natural"
"","","","","","animation","208","1827890","0.0-208.0","1920x1080","","2783","31.75","img/117/4/0.5/bw/001.png","","","natural"
"","","","","","animation","209","1832088","0.0-209.0","1920x1080","","4196.900000035763","12.70","img/117/2.5/1.5/bw/001.png","","","natural"
"","","","","","animation","210","1834906","0.0-210.0","1920x1080","","2816.699999988079","71","img/117/4.5/0.5/bw/001.png","","","natural"
"","","","","","animation","211","1841671","0.0-211.0","1920x1080","","6763.600000023842","47","img/117/3.5/0.5/bw/001.png","","","natural"
"","","","","","animation","212","1850171","0.0-212.0","1920x1080","","8498.800000011921","33.33","img/238/4/0.66667/bw/001.png","","","natural"
"","","","","","animation","213","1853188","0.0-213.0","1920x1080","","3015.399999976158","72.88","img/117/5.5/0.66667/bw/001.png","","","natural"
"","","","","","animation","214","1857355","0.0-214.0","1920x1080","","4166.100000023842","18.39","img/238/4.5/1.5/bw/001.png","","","natural"
"","","","","","animation","215","1859962","0.0-215.0","1920x1080","","2606.199999988079","81.35","img/117/5.5/1/bw/001.png","","","natural"
"","","","","","animation","216","1863437","0.0-216.0","1920x1080","","3474","14.81","img/238/2.5/2/bw/001.png","","","natural"
"","","","","","animation","217","1867506","0.0-217.0","1920x1080","","4067.199999988079","62","img/117/4.5/1.5/bw/001.png","","","natural"
"","","","","","animation","218","1873254","0.0-218.0","1920x1080","","5747","33.33","img/314/4.5/2/bw/001.png","","","natural"
"","","","","","animation","219","1879042","0.0-219.0","1920x1080","","5786.5","23","img/238/2.5/1/bw/001.png","","","natural"
"","","","","","animation","220","1881362","0.0-220.0","1920x1080","","2319.199999988079","28.31","img/238/3.5/1/bw/001.png","","","natural"
"","","","","","animation","221","1886392","0.0-221.0","1920x1080","","5030.799999952316","17.86","img/238/4/1.5/bw/001.png","","","natural"
"","","","","","animation","222","1888986","0.0-222.0","1920x1080","","2592.099999964237","70","img/238/5.5/1.5/bw/001.png","","","natural"
"","","","","","animation","223","1895936","0.0-223.0","1920x1080","","6949.199999988079","53.04","img/117/3.5/1.5/bw/001.png","","","natural"
"","","","","","animation","224","1898656","0.0-224.0","1920x1080","","2719.400000035763","32.28","img/238/4/2/bw/001.png","","","natural"
"","","","","","animation","225","1901608","0.0-225.0","1920x1080","","2950.900000035763","21","img/314/2.5/1.5/bw/001.png","","","natural"
"","","","","","animation","226","1906672","0.0-226.0","1920x1080","","5062.299999952316","20.11","img/117/3.5/2/bw/001.png","","","natural"
"","","","","","animation","227","1910272","0.0-227.0","1920x1080","","3599.2999999523163","84","img/314/5.5/0.66667/bw/001.png","","","natural"
"","","","","","animation","228","1914344","0.0-228.0","1920x1080","","4070.7999999523163","25","img/314/3.5/0.5/bw/001.png","","","natural"
"","","","","","animation","229","1917945","0.0-229.0","1920x1080","","3599","79","img/314/5.5/1/bw/001.png","","","natural"
"","","","","","animation","230","1921436","0.0-230.0","1920x1080","","3490","24.60","img/117/4.5/0.66667/bw/001.png","","","natural"
"","","","","","animation","231","1924720","0.0-231.0","1920x1080","","3282.699999988079","81","img/117/5.5/0.5/bw/001.png","","","natural"
"","","","","","animation","232","1926553","0.0-232.0","1920x1080","","1832.199999988079","24.87","img/238/2.5/1.5/bw/001.png","","","natural"
"","","","","","animation","233","1929719","0.0-233.0","1920x1080","","3165.300000011921","22.62","img/314/2.5/1/bw/001.png","","","natural"
"","","","","","animation","234","1932208","0.0-234.0","1920x1080","","2487.900000035763","9","img/117/2.5/1/bw/001.png","","","natural"
"","","","","","animation","235","1934240","0.0-235.0","1920x1080","","2030.9000000357628","33","img/314/4/1.5/bw/001.png","","","natural"
"","","","","","html-button-response","236","1955546","0.0-236.0","1920x1080","","21295.899999976158","","<div class=""intro"">You are about to view a new series of animations.<br><br></div><div class=""intro"">You will evaluate them based on a different descriptor.<br><br></div><div class=""intro"">Move the slider to indicate how <strong style=""text-transform:capitalize"">RELAXING</strong> you find each animation.<br><br></div><div class=""intro"">0 = Least Relaxing<br></div><div class=""intro"">1 = Most Relaxing<br><br></div><div class=""intro"">Remember to use the <strong><em>entire range</em></strong> of the slider to make your ratings.<br></div><div class=""intro"">Please <strong><em>take your time</em></strong> and carefully consider each rating you make.<br><br></div>","0","",""
"","","","","","call-function","237","1955548","0.0-237.0","1920x1080","","","","","","",""
"","","","","","animation","238","1958297","0.0-238.0","1920x1080","","2748","24.07","img/314/4/0.5/bw/001.png","","","relaxing"
"","","","","","animation","239","1962769","0.0-239.0","1920x1080","","4471","66.53","img/238/5.5/1.5/bw/001.png","","","relaxing"
"","","","","","animation","240","1965160","0.0-240.0","1920x1080","","2390.300000011921","25.79","img/117/4.5/1/bw/001.png","","","relaxing"
"","","","","","animation","241","1969817","0.0-241.0","1920x1080","","4655.5","72","img/314/5.5/0.66667/bw/001.png","","","relaxing"
"","","","","","animation","242","1973045","0.0-242.0","1920x1080","","3225.7000000476837","51.59","img/117/4/1.5/bw/001.png","","","relaxing"
"","","","","","animation","243","1975127","0.0-243.0","1920x1080","","2081.599999964237","38","img/314/4/2/bw/001.png","","","relaxing"
"","","","","","animation","244","1978595","0.0-244.0","1920x1080","","3465.899999976158","70","img/238/5.5/1/bw/001.png","","","relaxing"
"","","","","","animation","245","1981744","0.0-245.0","1920x1080","","3148.199999988079","17.72","img/314/3.5/0.66667/bw/001.png","","","relaxing"
"","","","","","animation","246","1985049","0.0-246.0","1920x1080","","3303.399999976158","23.54","img/314/4/1/bw/001.png","","","relaxing"
"","","","","","animation","247","1990311","0.0-247.0","1920x1080","","5260.800000011921","74.60","img/117/5.5/1/bw/001.png","","","relaxing"
"","","","","","animation","248","1997527","0.0-248.0","1920x1080","","7214.799999952316","24","img/238/2.5/1.5/bw/001.png","","","relaxing"
"","","","","","animation","249","2003970","0.0-249.0","1920x1080","","6439.400000035763","33.20","img/238/4/0.5/bw/001.png","","","relaxing"
"","","","","","animation","250","2007288","0.0-250.0","1920x1080","","3321.100000023842","6","img/314/2.5/0.5/bw/001.png","","","relaxing"
"","","","","","animation","251","2012042","0.0-251.0","1920x1080","","4753.199999988079","92.99","img/238/5.5/0.66667/bw/001.png","","","relaxing"
"","","","","","animation","252","2014338","0.0-252.0","1920x1080","","2294.100000023842","24.07","img/238/3.5/0.5/bw/001.png","","","relaxing"
"","","","","","animation","253","2017890","0.0-253.0","1920x1080","","3547.900000035763","24.60","img/117/4.5/0.5/bw/001.png","","","relaxing"
"","","","","","animation","254","2022388","0.0-254.0","1920x1080","","4497.199999988079","40","img/314/4.5/2/bw/001.png","","","relaxing"
"","","","","","animation","255","2024472","0.0-255.0","1920x1080","","2082.699999988079","26.72","img/238/4.5/0.5/bw/001.png","","","relaxing"
"","","","","","animation","256","2028604","0.0-256.0","1920x1080","","4131.100000023842","15.08","img/117/3.5/1.5/bw/001.png","","","relaxing"
"","","","","","animation","257","2030971","0.0-257.0","1920x1080","","2365.300000011921","16.53","img/314/2.5/0.66667/bw/001.png","","","relaxing"
"","","","","","animation","258","2033004","0.0-258.0","1920x1080","","2032.300000011921","19.18","img/314/2.5/1/bw/001.png","","","relaxing"
"","","","","","animation","259","2036088","0.0-259.0","1920x1080","","3082.199999988079","25.66","img/238/4/1.5/bw/001.png","","","relaxing"
"","","","","","animation","260","2043426","0.0-260.0","1920x1080","","7337.199999988079","73.15","img/314/5.5/0.5/bw/001.png","","","relaxing"
"","","","","","animation","261","2047688","0.0-261.0","1920x1080","","4259.899999976158","19.71","img/238/4.5/0.66667/bw/001.png","","","relaxing"
"","","","","","animation","262","2049946","0.0-262.0","1920x1080","","2253.600000023842","22.49","img/117/3.5/2/bw/001.png","","","relaxing"
"","","","","","animation","263","2052562","0.0-263.0","1920x1080","","2614.5","14","img/238/3.5/1/bw/001.png","","","relaxing"
"","","","","","animation","264","2054937","0.0-264.0","1920x1080","","2374.2000000476837","20.77","img/238/4.5/1/bw/001.png","","","relaxing"
"","","","","","animation","265","2060674","0.0-265.0","1920x1080","","5735.100000023842","16.27","img/238/2.5/0.66667/bw/001.png","","","relaxing"
"","","","","","animation","266","2063188","0.0-266.0","1920x1080","","2512.899999976158","23.54","img/314/3.5/1/bw/001.png","","","relaxing"
"","","","","","animation","267","2065704","0.0-267.0","1920x1080","","2515.699999988079","14","img/117/4/0.66667/bw/001.png","","","relaxing"
"","","","","","animation","268","2070137","0.0-268.0","1920x1080","","4432.099999964237","86","img/238/5.5/0.5/bw/001.png","","","relaxing"
"","","","","","animation","269","2072937","0.0-269.0","1920x1080","","2798.7999999523163","5","img/238/2.5/0.5/bw/001.png","","","relaxing"
"","","","","","animation","270","2076441","0.0-270.0","1920x1080","","3503","17","img/314/4.5/1/bw/001.png","","","relaxing"
"","","","","","animation","271","2085409","0.0-271.0","1920x1080","","8966.899999976158","48","img/117/4/2/bw/001.png","","","relaxing"
"","","","","","animation","272","2088754","0.0-272.0","1920x1080","","3343.100000023842","41.93","img/117/3.5/1/bw/001.png","","","relaxing"
"","","","","","animation","273","2091593","0.0-273.0","1920x1080","","2838.5","30.69","img/314/3.5/1.5/bw/001.png","","","relaxing"
"","","","","","animation","274","2100073","0.0-274.0","1920x1080","","8478.300000011921","71","img/117/5.5/2/bw/001.png","","","relaxing"
"","","","","","animation","275","2103177","0.0-275.0","1920x1080","","3103.100000023842","25.79","img/314/3.5/2/bw/001.png","","","relaxing"
"","","","","","animation","276","2105421","0.0-276.0","1920x1080","","2242.199999988079","22","img/117/3.5/0.5/bw/001.png","","","relaxing"
"","","","","","animation","277","2109761","0.0-277.0","1920x1080","","4339.400000035763","55.82","img/314/5.5/2/bw/001.png","","","relaxing"
"","","","","","animation","278","2111761","0.0-278.0","1920x1080","","1998.6000000238419","28.31","img/117/3.5/0.66667/bw/001.png","","","relaxing"
"","","","","","animation","279","2113561","0.0-279.0","1920x1080","","1798.7000000476837","26","img/238/3.5/0.66667/bw/001.png","","","relaxing"
"","","","","","animation","280","2115921","0.0-280.0","1920x1080","","2358.300000011921","34","img/238/4/1/bw/001.png","","","relaxing"
"","","","","","animation","281","2118854","0.0-281.0","1920x1080","","2932.300000011921","10.85","img/117/2.5/1/bw/001.png","","","relaxing"
"","","","","","animation","282","2121537","0.0-282.0","1920x1080","","2681.7999999523163","32.94","img/238/4/0.66667/bw/001.png","","","relaxing"
"","","","","","animation","283","2126836","0.0-283.0","1920x1080","","5299.199999988079","67","img/238/5.5/2/bw/001.png","","","relaxing"
"","","","","","animation","284","2131207","0.0-284.0","1920x1080","","4369.800000011921","24.21","img/117/4.5/2/bw/001.png","","","relaxing"
"","","","","","animation","285","2133719","0.0-285.0","1920x1080","","2510.100000023842","39.81","img/238/4.5/1.5/bw/001.png","","","relaxing"
"","","","","","animation","286","2137786","0.0-286.0","1920x1080","","4065.399999976158","39.95","img/314/5.5/1/bw/001.png","","","relaxing"
"","","","","","animation","287","2139887","0.0-287.0","1920x1080","","2100.100000023842","16.14","img/117/2.5/0.66667/bw/001.png","","","relaxing"
"","","","","","animation","288","2142186","0.0-288.0","1920x1080","","2297.5","33.07","img/117/4/1/bw/001.png","","","relaxing"
"","","","","","animation","289","2144576","0.0-289.0","1920x1080","","2388.800000011921","38","img/117/4.5/0.66667/bw/001.png","","","relaxing"
"","","","","","animation","290","2149087","0.0-290.0","1920x1080","","4510.199999988079","61.11","img/117/5.5/0.66667/bw/001.png","","","relaxing"
"","","","","","animation","291","2152471","0.0-291.0","1920x1080","","3381.899999976158","70.77","img/117/5.5/1.5/bw/001.png","","","relaxing"
"","","","","","animation","292","2154586","0.0-292.0","1920x1080","","2113.300000011921","25","img/314/2.5/2/bw/001.png","","","relaxing"
"","","","","","animation","293","2156786","0.0-293.0","1920x1080","","2199.100000023842","73","img/117/5.5/0.5/bw/001.png","","","relaxing"
"","","","","","animation","294","2159023","0.0-294.0","1920x1080","","2236.399999976158","25","img/238/4/2/bw/001.png","","","relaxing"
"","","","","","animation","295","2161823","0.0-295.0","1920x1080","","2798.5","17.59","img/117/4/0.5/bw/001.png","","","relaxing"
"","","","","","animation","296","2164936","0.0-296.0","1920x1080","","3111.400000035763","82.41","img/314/5.5/1.5/bw/001.png","","","relaxing"
"","","","","","animation","297","2167452","0.0-297.0","1920x1080","","2515.199999988079","18.78","img/238/2.5/1/bw/001.png","","","relaxing"
"","","","","","animation","298","2170069","0.0-298.0","1920x1080","","2615.400000035763","25","img/314/4.5/0.66667/bw/001.png","","","relaxing"
"","","","","","animation","299","2172471","0.0-299.0","1920x1080","","2400.800000011921","26.06","img/314/4/0.66667/bw/001.png","","","relaxing"
"","","","","","animation","300","2178471","0.0-300.0","1920x1080","","5999.199999988079","15","img/314/3.5/0.5/bw/001.png","","","relaxing"
"","","","","","animation","301","2183423","0.0-301.0","1920x1080","","4949.799999952316","5","img/117/2.5/1.5/bw/001.png","","","relaxing"
"","","","","","animation","302","2186792","0.0-302.0","1920x1080","","3357.699999988079","19.84","img/238/2.5/2/bw/001.png","","","relaxing"
"","","","","","animation","303","2190096","0.0-303.0","1920x1080","","3302.900000035763","12.43","img/314/4.5/0.5/bw/001.png","","","relaxing"
"","","","","","animation","304","2193761","0.0-304.0","1920x1080","","3663.600000023842","19.71","img/117/4.5/1.5/bw/001.png","","","relaxing"
"","","","","","animation","305","2196745","0.0-305.0","1920x1080","","2981.900000035763","15.87","img/117/2.5/2/bw/001.png","","","relaxing"
"","","","","","animation","306","2199695","0.0-306.0","1920x1080","","2948.5","71.03","img/314/4.5/1.5/bw/001.png","","","relaxing"
"","","","","","animation","307","2202229","0.0-307.0","1920x1080","","2532.199999988079","9","img/117/2.5/0.5/bw/001.png","","","relaxing"
"","","","","","animation","308","2205729","0.0-308.0","1920x1080","","3498.599999964237","14.15","img/238/4.5/2/bw/001.png","","","relaxing"
"","","","","","animation","309","2207861","0.0-309.0","1920x1080","","2131.300000011921","21.03","img/238/3.5/2/bw/001.png","","","relaxing"
"","","","","","animation","310","2211048","0.0-310.0","1920x1080","","3186.2000000476837","9","img/314/2.5/1.5/bw/001.png","","","relaxing"
"","","","","","animation","311","2213995","0.0-311.0","1920x1080","","2945.899999976158","29.23","img/314/4/1.5/bw/001.png","","","relaxing"
"","","","","","animation","312","2215962","0.0-312.0","1920x1080","","1964.800000011921","16","img/238/3.5/1.5/bw/001.png","","","relaxing"
"","","","","","html-button-response","313","2236362","0.0-313.0","1920x1080","","20399.30000001192","","<div class=""intro"">You are about to view a new series of animations.<br><br></div><div class=""intro"">You will evaluate them based on a different descriptor.<br><br></div><div class=""intro"">Move the slider to indicate how <strong style=""text-transform:capitalize"">INTERESTING</strong> you find each animation.<br><br></div><div class=""intro"">0 = Least Interesting<br></div><div class=""intro"">1 = Most Interesting<br><br></div><div class=""intro"">Remember to use the <strong><em>entire range</em></strong> of the slider to make your ratings.<br></div><div class=""intro"">Please <strong><em>take your time</em></strong> and carefully consider each rating you make.<br><br></div>","0","",""
"","","","","","call-function","314","2236364","0.0-314.0","1920x1080","","","","","","",""
"","","","","","animation","315","2240128","0.0-315.0","1920x1080","","3763.899999976158","67.59","img/238/5.5/0.66667/bw/001.png","","","interesting"
"","","","","","animation","316","2242296","0.0-316.0","1920x1080","","2166.899999976158","26.19","img/117/3.5/0.5/bw/001.png","","","interesting"
"","","","","","animation","317","2244845","0.0-317.0","1920x1080","","2547.900000035763","49.74","img/117/4/1/bw/001.png","","","interesting"
"","","","","","animation","318","2247023","0.0-318.0","1920x1080","","2182.199999988079","33.86","img/238/4.5/0.66667/bw/001.png","","","interesting"
"","","","","","animation","319","2251640","0.0-319.0","1920x1080","","4615.399999976158","30.03","img/314/4.5/0.66667/bw/001.png","","","interesting"
"","","","","","animation","320","2254763","0.0-320.0","1920x1080","","3122","17.20","img/238/2.5/0.5/bw/001.png","","","interesting"
"","","","","","animation","321","2256806","0.0-321.0","1920x1080","","2041.3999999761581","22","img/117/3.5/1/bw/001.png","","","interesting"
"","","","","","animation","322","2258933","0.0-322.0","1920x1080","","2125.899999976158","35.71","img/314/4.5/0.5/bw/001.png","","","interesting"
"","","","","","animation","323","2262261","0.0-323.0","1920x1080","","3326.5","74.47","img/117/3.5/1.5/bw/001.png","","","interesting"
"","","","","","animation","324","2265389","0.0-324.0","1920x1080","","3126.800000011921","65.74","img/238/3.5/1/bw/001.png","","","interesting"
"","","","","","animation","325","2269373","0.0-325.0","1920x1080","","3982.099999964237","78.70","img/314/5.5/0.5/bw/001.png","","","interesting"
"","","","","","animation","326","2271275","0.0-326.0","1920x1080","","1900.2999999523163","40.74","img/314/4/0.66667/bw/001.png","","","interesting"
"","","","","","animation","327","2274330","0.0-327.0","1920x1080","","3054.2999999523163","16","img/238/2.5/1/bw/001.png","","","interesting"
"","","","","","animation","328","2277245","0.0-328.0","1920x1080","","2913.2000000476837","15.74","img/314/3.5/0.5/bw/001.png","","","interesting"
"","","","","","animation","329","2279579","0.0-329.0","1920x1080","","2332.300000011921","70","img/117/5.5/0.66667/bw/001.png","","","interesting"
"","","","","","animation","330","2282273","0.0-330.0","1920x1080","","2692.699999988079","21","img/314/2.5/0.66667/bw/001.png","","","interesting"
"","","","","","animation","331","2284706","0.0-331.0","1920x1080","","2431.899999976158","40.74","img/238/4/1.5/bw/001.png","","","interesting"
"","","","","","animation","332","2287266","0.0-332.0","1920x1080","","2558.099999964237","9","img/117/2.5/2/bw/001.png","","","interesting"
"","","","","","animation","333","2291045","0.0-333.0","1920x1080","","3777.599999964237","21","img/238/3.5/0.5/bw/001.png","","","interesting"
"","","","","","animation","334","2294968","0.0-334.0","1920x1080","","3921.899999976158","87.96","img/238/5.5/0.5/bw/001.png","","","interesting"
"","","","","","animation","335","2297979","0.0-335.0","1920x1080","","3008.7000000476837","26","img/238/2.5/0.66667/bw/001.png","","","interesting"
"","","","","","animation","336","2300213","0.0-336.0","1920x1080","","2233.2000000476837","38.62","img/117/4/1.5/bw/001.png","","","interesting"
"","","","","","animation","337","2304410","0.0-337.0","1920x1080","","4195.800000011921","21.69","img/238/4/0.66667/bw/001.png","","","interesting"
"","","","","","animation","338","2307702","0.0-338.0","1920x1080","","3293.099999964237","71.03","img/238/5.5/1.5/bw/001.png","","","interesting"
"","","","","","animation","339","2311353","0.0-339.0","1920x1080","","3649.199999988079","36","img/117/4.5/1/bw/001.png","","","interesting"
"","","","","","animation","340","2315287","0.0-340.0","1920x1080","","3932.699999988079","21.30","img/238/2.5/1.5/bw/001.png","","","interesting"
"","","","","","animation","341","2319360","0.0-341.0","1920x1080","","4071.099999964237","29","img/238/5.5/1/bw/001.png","","","interesting"
"","","","","","animation","342","2323120","0.0-342.0","1920x1080","","3758.599999964237","19","img/314/3.5/1.5/bw/001.png","","","interesting"
"","","","","","animation","343","2326914","0.0-343.0","1920x1080","","3792.600000023842","23.02","img/117/4/0.66667/bw/001.png","","","interesting"
"","","","","","animation","344","2338278","0.0-344.0","1920x1080","","11363","11.64","img/117/2.5/0.66667/bw/001.png","","","interesting"
"","","","","","animation","345","2341826","0.0-345.0","1920x1080","","3543.599999964237","72.49","img/117/5.5/0.5/bw/001.png","","","interesting"
"","","","","","animation","346","2345639","0.0-346.0","1920x1080","","3812.300000011921","25","img/314/3.5/2/bw/001.png","","","interesting"
"","","","","","animation","347","2354577","0.0-347.0","1920x1080","","8936.100000023842","69.18","img/238/3.5/2/bw/001.png","","","interesting"
"","","","","","animation","348","2357855","0.0-348.0","1920x1080","","3276.100000023842","83.33","img/117/4.5/2/bw/001.png","","","interesting"
"","","","","","animation","349","2363453","0.0-349.0","1920x1080","","5596","39.55","img/238/4.5/2/bw/001.png","","","interesting"
"","","","","","animation","350","2369112","0.0-350.0","1920x1080","","5659.399999976158","58.47","img/117/4.5/0.5/bw/001.png","","","interesting"
"","","","","","animation","351","2371889","0.0-351.0","1920x1080","","2775","78.31","img/314/5.5/0.66667/bw/001.png","","","interesting"
"","","","","","animation","352","2374818","0.0-352.0","1920x1080","","2927.100000023842","21.30","img/117/4/2/bw/001.png","","","interesting"
"","","","","","animation","353","2377574","0.0-353.0","1920x1080","","2754.800000011921","7.80","img/314/2.5/1/bw/001.png","","","interesting"
"","","","","","animation","354","2379926","0.0-354.0","1920x1080","","2349.899999976158","26","img/238/3.5/1.5/bw/001.png","","","interesting"
"","","","","","animation","355","2383369","0.0-355.0","1920x1080","","3441.099999964237","63.10","img/314/2.5/2/bw/001.png","","","interesting"
"","","","","","animation","356","2387105","0.0-356.0","1920x1080","","3734.5","74.60","img/314/4.5/2/bw/001.png","","","interesting"
"","","","","","animation","357","2392962","0.0-357.0","1920x1080","","5854.900000035763","9.39","img/238/2.5/2/bw/001.png","","","interesting"
"","","","","","animation","358","2396438","0.0-358.0","1920x1080","","3471.900000035763","22","img/117/2.5/1.5/bw/001.png","","","interesting"
"","","","","","animation","359","2403718","0.0-359.0","1920x1080","","7278.699999988079","20","img/117/3.5/2/bw/001.png","","","interesting"
"","","","","","animation","360","2410102","0.0-360.0","1920x1080","","6382.699999988079","41.80","img/238/4/2/bw/001.png","","","interesting"
"","","","","","animation","361","2413135","0.0-361.0","1920x1080","","3032.2000000476837","28.17","img/238/4.5/1.5/bw/001.png","","","interesting"
"","","","","","animation","362","2419052","0.0-362.0","1920x1080","","5915.400000035763","64","img/238/3.5/0.66667/bw/001.png","","","interesting"
"","","","","","animation","363","2425175","0.0-363.0","1920x1080","","6119.799999952316","38","img/314/4/0.5/bw/001.png","","","interesting"
"","","","","","animation","364","2431023","0.0-364.0","1920x1080","","5834.300000011921","25.40","img/117/3.5/0.66667/bw/001.png","","","interesting"
"","","","","","animation","365","2435112","0.0-365.0","1920x1080","","4087.300000011921","27.51","img/117/4.5/0.66667/bw/001.png","","","interesting"
"","","","","","animation","366","2440096","0.0-366.0","1920x1080","","4982.699999988079","69.44","img/314/5.5/1/bw/001.png","","","interesting"
"","","","","","animation","367","2444879","0.0-367.0","1920x1080","","4781.399999976158","21.56","img/314/2.5/1.5/bw/001.png","","","interesting"
"","","","","","animation","368","2450162","0.0-368.0","1920x1080","","5280.5","28.97","img/117/5.5/2/bw/001.png","","","interesting"
"","","","","","animation","369","2456585","0.0-369.0","1920x1080","","6421","36.11","img/117/4.5/1.5/bw/001.png","","","interesting"
"","","","","","animation","370","2462153","0.0-370.0","1920x1080","","5566.399999976158","41.93","img/314/3.5/0.66667/bw/001.png","","","interesting"
"","","","","","animation","371","2465465","0.0-371.0","1920x1080","","3309.800000011921","37","img/117/4/0.5/bw/001.png","","","interesting"
"","","","","","animation","372","2468553","0.0-372.0","1920x1080","","3086.900000035763","24","img/314/4/1/bw/001.png","","","interesting"
"","","","","","animation","373","2475933","0.0-373.0","1920x1080","","7378.399999976158","44.58","img/117/2.5/1/bw/001.png","","","interesting"
"","","","","","animation","374","2485886","0.0-374.0","1920x1080","","9961","31.88","img/238/4.5/0.5/bw/001.png","","","interesting"
"","","","","","animation","375","2493553","0.0-375.0","1920x1080","","7665","20","img/238/4/0.5/bw/001.png","","","interesting"
"","","","","","animation","376","2499058","0.0-376.0","1920x1080","","5503.599999964237","38.10","img/314/5.5/2/bw/001.png","","","interesting"
"","","","","","animation","377","2505623","0.0-377.0","1920x1080","","6563.900000035763","30.82","img/117/5.5/1.5/bw/001.png","","","interesting"
"","","","","","animation","378","2509793","0.0-378.0","1920x1080","","4165.899999976158","55.16","img/314/4.5/1.5/bw/001.png","","","interesting"
"","","","","","animation","379","2516996","0.0-379.0","1920x1080","","7201.799999952316","30.56","img/238/4.5/1/bw/001.png","","","interesting"
"","","","","","animation","380","2523721","0.0-380.0","1920x1080","","6723","37.04","img/314/5.5/1.5/bw/001.png","","","interesting"
"","","","","","animation","381","2533830","0.0-381.0","1920x1080","","10107.399999976158","44.84","img/117/5.5/1/bw/001.png","","","interesting"
"","","","","","animation","382","2540167","0.0-382.0","1920x1080","","6336","34.66","img/238/5.5/2/bw/001.png","","","interesting"
"","","","","","animation","383","2547329","0.0-383.0","1920x1080","","7150.5","11.64","img/314/2.5/0.5/bw/001.png","","","interesting"
"","","","","","animation","384","2553934","0.0-384.0","1920x1080","","6602.800000011921","26.59","img/314/4/2/bw/001.png","","","interesting"
"","","","","","animation","385","2559957","0.0-385.0","1920x1080","","6021.799999952316","24.60","img/117/2.5/0.5/bw/001.png","","","interesting"
"","","","","","animation","386","2568129","0.0-386.0","1920x1080","","8170.200000047684","27.38","img/314/3.5/1/bw/001.png","","","interesting"
"","","","","","animation","387","2576746","0.0-387.0","1920x1080","","8615.700000047684","55","img/314/4/1.5/bw/001.png","","","interesting"
"","","","","","animation","388","2579363","0.0-388.0","1920x1080","","2615.5","24.47","img/238/4/1/bw/001.png","","","interesting"
"","","","","","animation","389","2586478","0.0-389.0","1920x1080","","7114","26.32","img/314/4.5/1/bw/001.png","","","interesting"
"","","","","","html-button-response","390","2644970","0.0-390.0","1920x1080","","58489.5","","<strong>Study Debriefing</strong><br><p class=""debrief""><strong>Background:</strong> The patterns you rated are called <em>fractals</em>. The term fractal describes a class of irregular curves or shapes for which any suitably chosen part is similar in shape to a given larger or smaller part when magnified or reduced to the same size. Fractal properties are found throughout the natural and manmade world. The series of animations you saw today displayed animated fractal patterns of a varying complexity.</p><p class=""debrief""><strong>Purpose of this study:</strong> We hope to better understand how the perception of static fractals differs from the perception of animated fractals, and how the speed of the animated patterns influences people&apos;s perception of them. Fractals allow us to study the perception of aesthetic properties (e.g. the perceived level of beauty in an image) without using recognizable content, which makes them an excellent tool for studying abstract aesthetic judgement.</p><p class=""debrief""><strong>Your part:</strong> Your participation has helped us to further understand how humans perceive these patterns across different levels of speed and complexity. This research with allow us to better understand how the visual system and brain process our ever-changing visual environments.<p class=""debrief""><strong>Feedback and Further information:</strong> If you have additional questions about this study, please feel free to ask the researcher, Nathan Gonzales-Hess at nhess @ uoregon.edu. If you have any questions concerning your rights as a research participant, please contact Research Compliance Services, 5237 University of Oregon, Eugene, OR 97403, 541-346-2510, or email researchCompliance @ uoregon.edu. You can also email the Human Subjects Coordinator for psychology and linguistics research at hscoord @ uoregon.edu. ","0","",""
"","","","","","html-button-response","391","2650320","0.0-391.0","1920x1080","","5347.099999964237","","Thank you for participating in this study. <br>Please click below to finish the experiment and submit your responses.<br><br>","0","",""
"true","","","","","fullscreen","392","2651339","0.0-392.0","1920x1080","16:29 12/10/2022","","","","","",""
