"success","timeout","failed_images","failed_audio","failed_video","trial_type","trial_index","time_elapsed","internal_node_id","resolution","timeStamp","rt","response","stimulus","button_pressed","value","descriptor"
"true","false","[]","[]","[]","preload","0","6037","0.0-0.0","1920x1080","","","","","","",""
"true","false","[]","[]","[]","preload","1","12181","0.0-1.0","1920x1080","","","","","","",""
"true","false","[]","[]","[]","preload","2","18149","0.0-2.0","1920x1080","","","","","","",""
"true","","","","","fullscreen","3","1013361","0.0-3.0","1920x1080","13:15 20/10/2022","","","","","",""
"","","","","","survey-html-form","4","1022061","0.0-4.0","1920x1080","","8695.5","{""age"":""18"",""gender"":""female""}","","","",""
"","","","","","html-button-response","5","1082607","0.0-5.0","1920x1080","","60543","","<div class=""complex"">You are going to see a series of animations.<br><br></div><div class=""complex"">Move the slider to indicate how <strong style=""text-transform:capitalize"">COMPLEX</strong> you find each animation.<br><br></div><div class=""complex"">0 = Least Complex<br></div><div class=""complex"">1 = Most Complex<br><br></div><div class=""complex"">Remember to use the <strong><em>entire range</em></strong> of the slider to make your ratings.<br></div><div class=""complex"">Please <strong><em>take your time</em></strong> and carefully consider each rating you make.<br><br></div><div class=""complex"">The study has five sections and will take about 45 minutes to complete.<br><br></div>","0","",""
"","","","","","call-function","6","1082607","0.0-6.0","1920x1080","","","","","","",""
"","","","","","animation","7","1095126","0.0-7.0","1920x1080","","12518.200000000186","77.78","img/117/2.5/0.66667/bw/001.png","","","complex"
"","","","","","animation","8","1106366","0.0-8.0","1920x1080","","11239.099999999627","79.89","img/238/2.5/0.5/bw/001.png","","","complex"
"","","","","","animation","9","1128070","0.0-9.0","1920x1080","","21702.700000000186","22.35","img/117/4/1/bw/001.png","","","complex"
"","","","","","animation","10","1131694","0.0-10.0","1920x1080","","3621.0999999996275","62.30","img/314/2.5/2/bw/001.png","","","complex"
"","","","","","animation","11","1135454","0.0-11.0","1920x1080","","3759.5","5.29","img/314/4.5/0.66667/bw/001.png","","","complex"
"","","","","","animation","12","1139486","0.0-12.0","1920x1080","","4031.4000000003725","29.89","img/314/4/0.5/bw/001.png","","","complex"
"","","","","","animation","13","1143071","0.0-13.0","1920x1080","","3583.2999999998137","0","img/117/5.5/2/bw/001.png","","","complex"
"","","","","","animation","14","1146816","0.0-14.0","1920x1080","","3743.7999999998137","51.85","img/314/3.5/0.5/bw/001.png","","","complex"
"","","","","","animation","15","1150320","0.0-15.0","1920x1080","","3503.2000000001863","31.35","img/314/4.5/1.5/bw/001.png","","","complex"
"","","","","","animation","16","1154560","0.0-16.0","1920x1080","","4239.200000000186","15.61","img/117/4.5/1/bw/001.png","","","complex"
"","","","","","animation","17","1159239","0.0-17.0","1920x1080","","4679.100000000559","55.82","img/117/3.5/0.5/bw/001.png","","","complex"
"","","","","","animation","18","1163632","0.0-18.0","1920x1080","","4391.4000000003725","39.29","img/117/4/0.5/bw/001.png","","","complex"
"","","","","","animation","19","1171359","0.0-19.0","1920x1080","","7727.300000000745","26.46","img/238/4.5/0.5/bw/001.png","","","complex"
"","","","","","animation","20","1174576","0.0-20.0","1920x1080","","3215.399999999441","38.23","img/117/4/0.66667/bw/001.png","","","complex"
"","","","","","animation","21","1178992","0.0-21.0","1920x1080","","4415.299999999814","61.90","img/238/2.5/1/bw/001.png","","","complex"
"","","","","","animation","22","1182416","0.0-22.0","1920x1080","","3423.5","61.38","img/238/2.5/0.66667/bw/001.png","","","complex"
"","","","","","animation","23","1185816","0.0-23.0","1920x1080","","3399.2999999998137","44.97","img/314/4.5/0.5/bw/001.png","","","complex"
"","","","","","animation","24","1188864","0.0-24.0","1920x1080","","3047","38.62","img/238/4/0.66667/bw/001.png","","","complex"
"","","","","","animation","25","1191784","0.0-25.0","1920x1080","","2919.4000000003725","50.13","img/238/3.5/2/bw/001.png","","","complex"
"","","","","","animation","26","1194560","0.0-26.0","1920x1080","","2775","57.54","img/117/3.5/0.66667/bw/001.png","","","complex"
"","","","","","animation","27","1198680","0.0-27.0","1920x1080","","4119.299999999814","0.79","img/314/5.5/0.5/bw/001.png","","","complex"
"","","","","","animation","28","1202726","0.0-28.0","1920x1080","","4046.899999999441","40.61","img/314/4/2/bw/001.png","","","complex"
"","","","","","animation","29","1209767","0.0-29.0","1920x1080","","7040","4.63","img/238/4.5/2/bw/001.png","","","complex"
"","","","","","animation","30","1212871","0.0-30.0","1920x1080","","3102.7000000001863","66.67","img/238/2.5/2/bw/001.png","","","complex"
"","","","","","animation","31","1216591","0.0-31.0","1920x1080","","3719.199999999255","61.38","img/117/2.5/1.5/bw/001.png","","","complex"
"","","","","","animation","32","1224055","0.0-32.0","1920x1080","","7462.899999999441","28","img/117/4.5/2/bw/001.png","","","complex"
"","","","","","animation","33","1230271","0.0-33.0","1920x1080","","6215.799999999814","30.69","img/238/4/2/bw/001.png","","","complex"
"","","","","","animation","34","1234215","0.0-34.0","1920x1080","","3943","23.28","img/238/4.5/1.5/bw/001.png","","","complex"
"","","","","","animation","35","1236615","0.0-35.0","1920x1080","","2399.5","42.06","img/238/3.5/1/bw/001.png","","","complex"
"","","","","","animation","36","1241055","0.0-36.0","1920x1080","","4438.800000000745","72.49","img/314/2.5/0.5/bw/001.png","","","complex"
"","","","","","animation","37","1243527","0.0-37.0","1920x1080","","2470.7999999998137","53.70","img/314/3.5/2/bw/001.png","","","complex"
"","","","","","animation","38","1246647","0.0-38.0","1920x1080","","3119.0999999996275","26.59","img/117/4.5/1.5/bw/001.png","","","complex"
"","","","","","animation","39","1253182","0.0-39.0","1920x1080","","6535","45.11","img/314/4/0.66667/bw/001.png","","","complex"
"","","","","","animation","40","1258023","0.0-40.0","1920x1080","","4839.4000000003725","19.58","img/117/5.5/0.5/bw/001.png","","","complex"
"","","","","","animation","41","1264083","0.0-41.0","1920x1080","","6055.5","61.51","img/238/3.5/0.66667/bw/001.png","","","complex"
"","","","","","animation","42","1267835","0.0-42.0","1920x1080","","3751.0999999996275","5.56","img/238/5.5/2/bw/001.png","","","complex"
"","","","","","animation","43","1272131","0.0-43.0","1920x1080","","4294.899999999441","28.17","img/314/4/1/bw/001.png","","","complex"
"","","","","","animation","44","1275107","0.0-44.0","1920x1080","","2975.5999999996275","40.61","img/117/3.5/1.5/bw/001.png","","","complex"
"","","","","","animation","45","1280162","0.0-45.0","1920x1080","","5054.4000000003725","46.43","img/117/4.5/0.5/bw/001.png","","","complex"
"","","","","","animation","46","1284907","0.0-46.0","1920x1080","","4744.0999999996275","41.67","img/314/4.5/2/bw/001.png","","","complex"
"","","","","","animation","47","1289123","0.0-47.0","1920x1080","","4214.399999999441","22.62","img/117/5.5/0.66667/bw/001.png","","","complex"
"","","","","","animation","48","1293347","0.0-48.0","1920x1080","","4223.200000000186","56.08","img/238/4/1/bw/001.png","","","complex"
"","","","","","animation","49","1297811","0.0-49.0","1920x1080","","4463.200000000186","71.96","img/238/2.5/1.5/bw/001.png","","","complex"
"","","","","","animation","50","1301803","0.0-50.0","1920x1080","","3991.5","73.41","img/314/2.5/1.5/bw/001.png","","","complex"
"","","","","","animation","51","1305757","0.0-51.0","1920x1080","","3953.0999999996275","65.34","img/314/3.5/1/bw/001.png","","","complex"
"","","","","","animation","52","1309403","0.0-52.0","1920x1080","","3645","67.99","img/117/3.5/1/bw/001.png","","","complex"
"","","","","","animation","53","1313946","0.0-53.0","1920x1080","","4542.5","32.67","img/238/4.5/1/bw/001.png","","","complex"
"","","","","","animation","54","1316883","0.0-54.0","1920x1080","","2935.4000000003725","10.19","img/314/5.5/0.66667/bw/001.png","","","complex"
"","","","","","animation","55","1319978","0.0-55.0","1920x1080","","3094.5999999996275","9.26","img/314/5.5/1.5/bw/001.png","","","complex"
"","","","","","animation","56","1323908","0.0-56.0","1920x1080","","3928","81.35","img/117/2.5/0.5/bw/001.png","","","complex"
"","","","","","animation","57","1326795","0.0-57.0","1920x1080","","2886","59.52","img/117/4/2/bw/001.png","","","complex"
"","","","","","animation","58","1333588","0.0-58.0","1920x1080","","6791.5","74","img/238/4/0.5/bw/001.png","","","complex"
"","","","","","animation","59","1336604","0.0-59.0","1920x1080","","3015.2000000001863","76.98","img/238/3.5/0.5/bw/001.png","","","complex"
"","","","","","animation","60","1341211","0.0-60.0","1920x1080","","4606.699999999255","15","img/238/5.5/1/bw/001.png","","","complex"
"","","","","","animation","61","1345541","0.0-61.0","1920x1080","","4328.299999999814","7.14","img/238/5.5/1.5/bw/001.png","","","complex"
"","","","","","animation","62","1348627","0.0-62.0","1920x1080","","3085.2999999998137","63.36","img/238/3.5/1.5/bw/001.png","","","complex"
"","","","","","animation","63","1354276","0.0-63.0","1920x1080","","5647.700000000186","10","img/238/5.5/0.5/bw/001.png","","","complex"
"","","","","","animation","64","1359004","0.0-64.0","1920x1080","","4727.0999999996275","34.52","img/117/5.5/1/bw/001.png","","","complex"
"","","","","","animation","65","1362500","0.0-65.0","1920x1080","","3494.9000000003725","72.49","img/314/4/1.5/bw/001.png","","","complex"
"","","","","","animation","66","1366991","0.0-66.0","1920x1080","","4490.0999999996275","75.40","img/117/4/1.5/bw/001.png","","","complex"
"","","","","","animation","67","1371020","0.0-67.0","1920x1080","","4027.800000000745","72.62","img/117/4.5/0.66667/bw/001.png","","","complex"
"","","","","","animation","68","1373780","0.0-68.0","1920x1080","","2759.2000000001863","66.80","img/314/4.5/1/bw/001.png","","","complex"
"","","","","","animation","69","1384195","0.0-69.0","1920x1080","","10415.299999999814","70.63","img/238/4.5/0.66667/bw/001.png","","","complex"
"","","","","","animation","70","1387619","0.0-70.0","1920x1080","","3423.0999999996275","84.79","img/117/2.5/1/bw/001.png","","","complex"
"","","","","","animation","71","1391067","0.0-71.0","1920x1080","","3446.7999999998137","10","img/314/5.5/2/bw/001.png","","","complex"
"","","","","","animation","72","1395827","0.0-72.0","1920x1080","","4758.799999999814","12.17","img/238/5.5/0.66667/bw/001.png","","","complex"
"","","","","","animation","73","1398523","0.0-73.0","1920x1080","","2695.4000000003725","72.88","img/314/3.5/0.66667/bw/001.png","","","complex"
"","","","","","animation","74","1402075","0.0-74.0","1920x1080","","3551.100000000559","83.60","img/117/2.5/2/bw/001.png","","","complex"
"","","","","","animation","75","1406099","0.0-75.0","1920x1080","","4023.100000000559","90.21","img/314/2.5/1/bw/001.png","","","complex"
"","","","","","animation","76","1409774","0.0-76.0","1920x1080","","3673.2000000001863","71.96","img/238/4/1.5/bw/001.png","","","complex"
"","","","","","animation","77","1413558","0.0-77.0","1920x1080","","3782.5","78.84","img/117/3.5/2/bw/001.png","","","complex"
"","","","","","animation","78","1416979","0.0-78.0","1920x1080","","3420.4000000003725","88","img/314/2.5/0.66667/bw/001.png","","","complex"
"","","","","","animation","79","1420851","0.0-79.0","1920x1080","","3871.2999999998137","21.69","img/117/5.5/1.5/bw/001.png","","","complex"
"","","","","","animation","80","1423558","0.0-80.0","1920x1080","","2705.5","32.01","img/314/5.5/1/bw/001.png","","","complex"
"","","","","","animation","81","1427427","0.0-81.0","1920x1080","","3867.9000000003725","66.14","img/314/3.5/1.5/bw/001.png","","","complex"
"","","","","","html-button-response","82","1447064","0.0-82.0","1920x1080","","19630.599999999627","","<div class=""intro"">You are about to view a new series of animations.<br><br></div><div class=""intro"">You will evaluate them based on a different descriptor.<br><br></div><div class=""intro"">Move the slider to indicate how <strong style=""text-transform:capitalize"">INTERESTING</strong> you find each animation.<br><br></div><div class=""intro"">0 = Least Interesting<br></div><div class=""intro"">1 = Most Interesting<br><br></div><div class=""intro"">Remember to use the <strong><em>entire range</em></strong> of the slider to make your ratings.<br></div><div class=""intro"">Please <strong><em>take your time</em></strong> and carefully consider each rating you make.<br><br></div>","0","",""
"","","","","","call-function","83","1447064","0.0-83.0","1920x1080","","","","","","",""
"","","","","","animation","84","1452551","0.0-84.0","1920x1080","","5486.5","63.89","img/117/3.5/0.5/bw/001.png","","","interesting"
"","","","","","animation","85","1456023","0.0-85.0","1920x1080","","3471","69.31","img/314/4.5/1/bw/001.png","","","interesting"
"","","","","","animation","86","1461335","0.0-86.0","1920x1080","","5310.9000000003725","59.39","img/314/5.5/0.5/bw/001.png","","","interesting"
"","","","","","animation","87","1467545","0.0-87.0","1920x1080","","6208.799999999814","40.74","img/117/3.5/1/bw/001.png","","","interesting"
"","","","","","animation","88","1471713","0.0-88.0","1920x1080","","4166.899999999441","73.15","img/238/5.5/0.5/bw/001.png","","","interesting"
"","","","","","animation","89","1476210","0.0-89.0","1920x1080","","4496.200000000186","42.59","img/314/3.5/0.66667/bw/001.png","","","interesting"
"","","","","","animation","90","1482362","0.0-90.0","1920x1080","","6150.799999999814","35.05","img/238/3.5/1.5/bw/001.png","","","interesting"
"","","","","","animation","91","1488815","0.0-91.0","1920x1080","","6452","57.41","img/117/4.5/1/bw/001.png","","","interesting"
"","","","","","animation","92","1492047","0.0-92.0","1920x1080","","3230.699999999255","21.56","img/238/3.5/1/bw/001.png","","","interesting"
"","","","","","animation","93","1496455","0.0-93.0","1920x1080","","4407.5","18.65","img/314/2.5/1.5/bw/001.png","","","interesting"
"","","","","","animation","94","1501794","0.0-94.0","1920x1080","","5337.0999999996275","12.43","img/314/5.5/2/bw/001.png","","","interesting"
"","","","","","animation","95","1505957","0.0-95.0","1920x1080","","4166.399999999441","29.63","img/314/4/2/bw/001.png","","","interesting"
"","","","","","animation","96","1510019","0.0-96.0","1920x1080","","4060.7000000001863","42.59","img/117/4/1/bw/001.png","","","interesting"
"","","","","","animation","97","1518482","0.0-97.0","1920x1080","","8462.799999999814","27","img/238/5.5/1/bw/001.png","","","interesting"
"","","","","","animation","98","1527946","0.0-98.0","1920x1080","","9463","62","img/314/5.5/1/bw/001.png","","","interesting"
"","","","","","animation","99","1531330","0.0-99.0","1920x1080","","3382.9000000003725","65.08","img/314/4.5/0.5/bw/001.png","","","interesting"
"","","","","","animation","100","1533941","0.0-100.0","1920x1080","","2609.2999999998137","17.33","img/238/2.5/1.5/bw/001.png","","","interesting"
"","","","","","animation","101","1538207","0.0-101.0","1920x1080","","4265.0999999996275","67.99","img/238/4.5/1.5/bw/001.png","","","interesting"
"","","","","","animation","102","1544482","0.0-102.0","1920x1080","","6274.5","73.28","img/238/4/1.5/bw/001.png","","","interesting"
"","","","","","animation","103","1548683","0.0-103.0","1920x1080","","4198.799999999814","20.37","img/117/2.5/1/bw/001.png","","","interesting"
"","","","","","animation","104","1553607","0.0-104.0","1920x1080","","4923.100000000559","37","img/314/4/1.5/bw/001.png","","","interesting"
"","","","","","animation","105","1556642","0.0-105.0","1920x1080","","3034.5","9.79","img/314/2.5/0.5/bw/001.png","","","interesting"
"","","","","","animation","106","1559956","0.0-106.0","1920x1080","","3312.600000000559","21.16","img/117/3.5/0.66667/bw/001.png","","","interesting"
"","","","","","animation","107","1563730","0.0-107.0","1920x1080","","3773.699999999255","16.01","img/238/2.5/1/bw/001.png","","","interesting"
"","","","","","animation","108","1570541","0.0-108.0","1920x1080","","6809","67.59","img/117/5.5/1/bw/001.png","","","interesting"
"","","","","","animation","109","1574556","0.0-109.0","1920x1080","","4012.2999999998137","32.14","img/238/2.5/2/bw/001.png","","","interesting"
"","","","","","animation","110","1579290","0.0-110.0","1920x1080","","4733.600000000559","26.46","img/117/4/1.5/bw/001.png","","","interesting"
"","","","","","animation","111","1585556","0.0-111.0","1920x1080","","6265.600000000559","65.74","img/117/4.5/2/bw/001.png","","","interesting"
"","","","","","animation","112","1589458","0.0-112.0","1920x1080","","3900.4000000003725","57.80","img/314/4.5/2/bw/001.png","","","interesting"
"","","","","","animation","113","1594930","0.0-113.0","1920x1080","","5470.699999999255","43.39","img/117/4/2/bw/001.png","","","interesting"
"","","","","","animation","114","1597835","0.0-114.0","1920x1080","","2903.2000000001863","37.04","img/117/4/0.66667/bw/001.png","","","interesting"
"","","","","","animation","115","1606442","0.0-115.0","1920x1080","","8606.399999999441","71.30","img/314/5.5/1.5/bw/001.png","","","interesting"
"","","","","","animation","116","1611547","0.0-116.0","1920x1080","","5102.700000000186","86.11","img/117/5.5/0.66667/bw/001.png","","","interesting"
"","","","","","animation","117","1615115","0.0-117.0","1920x1080","","3566.7000000001863","45.37","img/238/4/0.5/bw/001.png","","","interesting"
"","","","","","animation","118","1619515","0.0-118.0","1920x1080","","4398.600000000559","83.86","img/117/5.5/1.5/bw/001.png","","","interesting"
"","","","","","animation","119","1623119","0.0-119.0","1920x1080","","3598.7000000001863","58.99","img/238/4.5/1/bw/001.png","","","interesting"
"","","","","","animation","120","1626128","0.0-120.0","1920x1080","","3007.300000000745","63.49","img/314/4.5/0.66667/bw/001.png","","","interesting"
"","","","","","animation","121","1633927","0.0-121.0","1920x1080","","7798.799999999814","68.78","img/238/4.5/0.66667/bw/001.png","","","interesting"
"","","","","","animation","122","1638944","0.0-122.0","1920x1080","","5015.700000000186","54.63","img/314/4.5/1.5/bw/001.png","","","interesting"
"","","","","","animation","123","1642463","0.0-123.0","1920x1080","","3518.2000000001863","24.34","img/238/2.5/0.5/bw/001.png","","","interesting"
"","","","","","animation","124","1644847","0.0-124.0","1920x1080","","2383.2000000001863","35.45","img/314/3.5/0.5/bw/001.png","","","interesting"
"","","","","","animation","125","1648244","0.0-125.0","1920x1080","","3395.7000000001863","62.30","img/117/4.5/1.5/bw/001.png","","","interesting"
"","","","","","animation","126","1650812","0.0-126.0","1920x1080","","2567.4000000003725","17","img/314/2.5/0.66667/bw/001.png","","","interesting"
"","","","","","animation","127","1656952","0.0-127.0","1920x1080","","6138.300000000745","71.83","img/117/4.5/0.5/bw/001.png","","","interesting"
"","","","","","animation","128","1664129","0.0-128.0","1920x1080","","7176","35.05","img/238/5.5/1.5/bw/001.png","","","interesting"
"","","","","","animation","129","1667695","0.0-129.0","1920x1080","","3565","26.98","img/238/3.5/0.5/bw/001.png","","","interesting"
"","","","","","animation","130","1670696","0.0-130.0","1920x1080","","2999.7000000001863","25.53","img/117/2.5/1.5/bw/001.png","","","interesting"
"","","","","","animation","131","1673335","0.0-131.0","1920x1080","","2638.5","18.65","img/238/2.5/0.66667/bw/001.png","","","interesting"
"","","","","","animation","132","1677256","0.0-132.0","1920x1080","","3919.2000000001863","44","img/314/3.5/1/bw/001.png","","","interesting"
"","","","","","animation","133","1680783","0.0-133.0","1920x1080","","3526.5999999996275","37.57","img/117/3.5/2/bw/001.png","","","interesting"
"","","","","","animation","134","1683338","0.0-134.0","1920x1080","","2551","34.79","img/117/3.5/1.5/bw/001.png","","","interesting"
"","","","","","animation","135","1689850","0.0-135.0","1920x1080","","6510.799999999814","65.48","img/238/4.5/0.5/bw/001.png","","","interesting"
"","","","","","animation","136","1693834","0.0-136.0","1920x1080","","3983","33.86","img/238/3.5/0.66667/bw/001.png","","","interesting"
"","","","","","animation","137","1696458","0.0-137.0","1920x1080","","2623.100000000559","16.53","img/117/2.5/2/bw/001.png","","","interesting"
"","","","","","animation","138","1700666","0.0-138.0","1920x1080","","4206.5999999996275","87.57","img/117/5.5/0.5/bw/001.png","","","interesting"
"","","","","","animation","139","1703530","0.0-139.0","1920x1080","","2862.899999999441","34.26","img/117/2.5/0.66667/bw/001.png","","","interesting"
"","","","","","animation","140","1706648","0.0-140.0","1920x1080","","3116.699999999255","36.77","img/117/2.5/0.5/bw/001.png","","","interesting"
"","","","","","animation","141","1708882","0.0-141.0","1920x1080","","2232.9000000003725","31.22","img/314/2.5/1/bw/001.png","","","interesting"
"","","","","","animation","142","1712764","0.0-142.0","1920x1080","","3880.5999999996275","73.28","img/117/5.5/2/bw/001.png","","","interesting"
"","","","","","animation","143","1715997","0.0-143.0","1920x1080","","3232.4000000003725","34.39","img/238/4/1/bw/001.png","","","interesting"
"","","","","","animation","144","1721554","0.0-144.0","1920x1080","","5556.399999999441","55.29","img/314/4/0.66667/bw/001.png","","","interesting"
"","","","","","animation","145","1728732","0.0-145.0","1920x1080","","7176.299999999814","68.25","img/238/5.5/2/bw/001.png","","","interesting"
"","","","","","animation","146","1732234","0.0-146.0","1920x1080","","3501.100000000559","57.80","img/117/4/0.5/bw/001.png","","","interesting"
"","","","","","animation","147","1734722","0.0-147.0","1920x1080","","2486.9000000003725","43.12","img/314/3.5/2/bw/001.png","","","interesting"
"","","","","","animation","148","1737274","0.0-148.0","1920x1080","","2551","40","img/314/3.5/1.5/bw/001.png","","","interesting"
"","","","","","animation","149","1740034","0.0-149.0","1920x1080","","2758.7000000001863","47.22","img/238/4/0.66667/bw/001.png","","","interesting"
"","","","","","animation","150","1747182","0.0-150.0","1920x1080","","7151","70","img/238/5.5/0.66667/bw/001.png","","","interesting"
"","","","","","animation","151","1749894","0.0-151.0","1920x1080","","2710.5","58.73","img/314/4/0.5/bw/001.png","","","interesting"
"","","","","","animation","152","1753710","0.0-152.0","1920x1080","","3815.2000000001863","57.01","img/117/4.5/0.66667/bw/001.png","","","interesting"
"","","","","","animation","153","1756102","0.0-153.0","1920x1080","","2391.300000000745","42.20","img/238/4/2/bw/001.png","","","interesting"
"","","","","","animation","154","1759262","0.0-154.0","1920x1080","","3158.7000000001863","42.99","img/238/4.5/2/bw/001.png","","","interesting"
"","","","","","animation","155","1762750","0.0-155.0","1920x1080","","3487.2000000001863","12.83","img/314/2.5/2/bw/001.png","","","interesting"
"","","","","","animation","156","1767582","0.0-156.0","1920x1080","","4830.700000000186","78.17","img/314/5.5/0.66667/bw/001.png","","","interesting"
"","","","","","animation","157","1772078","0.0-157.0","1920x1080","","4494.100000000559","59.26","img/314/4/1/bw/001.png","","","interesting"
"","","","","","animation","158","1781526","0.0-158.0","1920x1080","","9446.800000000745","56","img/238/3.5/2/bw/001.png","","","interesting"
"","","","","","html-button-response","159","1807723","0.0-159.0","1920x1080","","26191.60000000056","","<div class=""intro"">You are about to view a new series of animations.<br><br></div><div class=""intro"">You will evaluate them based on a different descriptor.<br><br></div><div class=""intro"">Move the slider to indicate how <strong style=""text-transform:capitalize"">APPEALING</strong> you find each animation.<br><br></div><div class=""intro"">0 = Least Appealing<br></div><div class=""intro"">1 = Most Appealing<br><br></div><div class=""intro"">Remember to use the <strong><em>entire range</em></strong> of the slider to make your ratings.<br></div><div class=""intro"">Please <strong><em>take your time</em></strong> and carefully consider each rating you make.<br><br></div>","0","",""
"","","","","","call-function","160","1807727","0.0-160.0","1920x1080","","","","","","",""
"","","","","","animation","161","1812107","0.0-161.0","1920x1080","","4379.5999999996275","63.76","img/117/4.5/0.66667/bw/001.png","","","appealing"
"","","","","","animation","162","1815475","0.0-162.0","1920x1080","","3367","42.06","img/117/4/2/bw/001.png","","","appealing"
"","","","","","animation","163","1817931","0.0-163.0","1920x1080","","2454.399999999441","32","img/117/3.5/1/bw/001.png","","","appealing"
"","","","","","animation","164","1823614","0.0-164.0","1920x1080","","5682.899999999441","81.61","img/238/5.5/1.5/bw/001.png","","","appealing"
"","","","","","animation","165","1827387","0.0-165.0","1920x1080","","3771.2999999998137","88.36","img/314/5.5/1.5/bw/001.png","","","appealing"
"","","","","","animation","166","1830548","0.0-166.0","1920x1080","","3160.2000000001863","24.87","img/314/3.5/1/bw/001.png","","","appealing"
"","","","","","animation","167","1835531","0.0-167.0","1920x1080","","4981","77.38","img/314/5.5/0.66667/bw/001.png","","","appealing"
"","","","","","animation","168","1840965","0.0-168.0","1920x1080","","5432.9000000003725","18.25","img/117/4/0.5/bw/001.png","","","appealing"
"","","","","","animation","169","1843323","0.0-169.0","1920x1080","","2357.5","15.87","img/117/3.5/0.5/bw/001.png","","","appealing"
"","","","","","animation","170","1845691","0.0-170.0","1920x1080","","2367","21.83","img/117/4/0.66667/bw/001.png","","","appealing"
"","","","","","animation","171","1849171","0.0-171.0","1920x1080","","3478.7999999998137","4.63","img/238/2.5/2/bw/001.png","","","appealing"
"","","","","","animation","172","1852117","0.0-172.0","1920x1080","","2945","0","img/238/2.5/0.66667/bw/001.png","","","appealing"
"","","","","","animation","173","1856555","0.0-173.0","1920x1080","","4436.399999999441","15","img/314/4/0.5/bw/001.png","","","appealing"
"","","","","","animation","174","1861115","0.0-174.0","1920x1080","","4558","72.88","img/238/5.5/0.5/bw/001.png","","","appealing"
"","","","","","animation","175","1863860","0.0-175.0","1920x1080","","2750.7999999998137","7.67","img/117/3.5/1.5/bw/001.png","","","appealing"
"","","","","","animation","176","1866612","0.0-176.0","1920x1080","","2751.4000000003725","26.72","img/314/3.5/1.5/bw/001.png","","","appealing"
"","","","","","animation","177","1870357","0.0-177.0","1920x1080","","3744.5","39.55","img/238/3.5/0.66667/bw/001.png","","","appealing"
"","","","","","animation","178","1872716","0.0-178.0","1920x1080","","2357.7999999998137","4.50","img/314/2.5/0.5/bw/001.png","","","appealing"
"","","","","","animation","179","1878060","0.0-179.0","1920x1080","","5342.399999999441","71.30","img/238/4.5/2/bw/001.png","","","appealing"
"","","","","","animation","180","1883790","0.0-180.0","1920x1080","","5728.700000000186","58.86","img/238/4.5/0.66667/bw/001.png","","","appealing"
"","","","","","animation","181","1888564","0.0-181.0","1920x1080","","4772.899999999441","44.31","img/238/3.5/2/bw/001.png","","","appealing"
"","","","","","animation","182","1891900","0.0-182.0","1920x1080","","3334.7999999998137","41.01","img/238/4/1/bw/001.png","","","appealing"
"","","","","","animation","183","1894812","0.0-183.0","1920x1080","","2910.7000000001863","8.60","img/238/2.5/1/bw/001.png","","","appealing"
"","","","","","animation","184","1898164","0.0-184.0","1920x1080","","3350.7999999998137","81.35","img/117/5.5/2/bw/001.png","","","appealing"
"","","","","","animation","185","1901408","0.0-185.0","1920x1080","","3241.9000000003725","15.21","img/314/3.5/2/bw/001.png","","","appealing"
"","","","","","animation","186","1904460","0.0-186.0","1920x1080","","3050.7000000001863","80.42","img/314/5.5/2/bw/001.png","","","appealing"
"","","","","","animation","187","1907207","0.0-187.0","1920x1080","","2745.7000000001863","71.69","img/314/5.5/1/bw/001.png","","","appealing"
"","","","","","animation","188","1910412","0.0-188.0","1920x1080","","3203.7000000001863","13.89","img/314/4/0.66667/bw/001.png","","","appealing"
"","","","","","animation","189","1912964","0.0-189.0","1920x1080","","2551.199999999255","4.37","img/117/2.5/0.66667/bw/001.png","","","appealing"
"","","","","","animation","190","1915316","0.0-190.0","1920x1080","","2350.7999999998137","13.89","img/314/3.5/0.5/bw/001.png","","","appealing"
"","","","","","animation","191","1919628","0.0-191.0","1920x1080","","4310.799999999814","7.14","img/238/3.5/0.5/bw/001.png","","","appealing"
"","","","","","animation","192","1922935","0.0-192.0","1920x1080","","3302.7999999998137","3.57","img/117/2.5/2/bw/001.png","","","appealing"
"","","","","","animation","193","1926393","0.0-193.0","1920x1080","","3457.2000000001863","31.35","img/117/4.5/0.5/bw/001.png","","","appealing"
"","","","","","animation","194","1929076","0.0-194.0","1920x1080","","2682","25.79","img/314/4.5/0.5/bw/001.png","","","appealing"
"","","","","","animation","195","1934719","0.0-195.0","1920x1080","","5641.5","54.76","img/117/5.5/0.66667/bw/001.png","","","appealing"
"","","","","","animation","196","1937211","0.0-196.0","1920x1080","","2490.5","26.32","img/314/3.5/0.66667/bw/001.png","","","appealing"
"","","","","","animation","197","1940047","0.0-197.0","1920x1080","","2834.5999999996275","25.00","img/314/4/1.5/bw/001.png","","","appealing"
"","","","","","animation","198","1942660","0.0-198.0","1920x1080","","2612.5999999996275","16.14","img/117/4/1.5/bw/001.png","","","appealing"
"","","","","","animation","199","1945343","0.0-199.0","1920x1080","","2681.7999999998137","15.34","img/314/4.5/1.5/bw/001.png","","","appealing"
"","","","","","animation","200","1947503","0.0-200.0","1920x1080","","2159.100000000559","10.32","img/117/3.5/2/bw/001.png","","","appealing"
"","","","","","animation","201","1950703","0.0-201.0","1920x1080","","3198.5999999996275","72.35","img/238/5.5/1/bw/001.png","","","appealing"
"","","","","","animation","202","1953279","0.0-202.0","1920x1080","","2573.7999999998137","21.83","img/314/4/2/bw/001.png","","","appealing"
"","","","","","animation","203","1955961","0.0-203.0","1920x1080","","2681.2999999998137","17.59","img/238/3.5/1/bw/001.png","","","appealing"
"","","","","","animation","204","1958411","0.0-204.0","1920x1080","","2448.5999999996275","3.57","img/314/2.5/1/bw/001.png","","","appealing"
"","","","","","animation","205","1960577","0.0-205.0","1920x1080","","2164.5","3.57","img/314/2.5/2/bw/001.png","","","appealing"
"","","","","","animation","206","1963077","0.0-206.0","1920x1080","","2499.399999999441","12.04","img/117/2.5/1/bw/001.png","","","appealing"
"","","","","","animation","207","1965794","0.0-207.0","1920x1080","","2715.600000000559","80.16","img/117/5.5/1.5/bw/001.png","","","appealing"
"","","","","","animation","208","1968994","0.0-208.0","1920x1080","","3198.9000000003725","32.14","img/238/3.5/1.5/bw/001.png","","","appealing"
"","","","","","animation","209","1972262","0.0-209.0","1920x1080","","3266.7000000001863","38.23","img/117/4.5/1.5/bw/001.png","","","appealing"
"","","","","","animation","210","1974277","0.0-210.0","1920x1080","","2014.1000000005588","27.38","img/238/4/0.5/bw/001.png","","","appealing"
"","","","","","animation","211","1976879","0.0-211.0","1920x1080","","2600.7999999998137","24.47","img/117/3.5/0.66667/bw/001.png","","","appealing"
"","","","","","animation","212","1979443","0.0-212.0","1920x1080","","2563.899999999441","33.73","img/238/4.5/1/bw/001.png","","","appealing"
"","","","","","animation","213","1985767","0.0-213.0","1920x1080","","6322.799999999814","61","img/117/5.5/0.5/bw/001.png","","","appealing"
"","","","","","animation","214","1988410","0.0-214.0","1920x1080","","2642.100000000559","43.65","img/238/4.5/0.5/bw/001.png","","","appealing"
"","","","","","animation","215","1991177","0.0-215.0","1920x1080","","2766.300000000745","7.41","img/117/2.5/0.5/bw/001.png","","","appealing"
"","","","","","animation","216","1993743","0.0-216.0","1920x1080","","2564.5","23.54","img/238/4/0.66667/bw/001.png","","","appealing"
"","","","","","animation","217","1997560","0.0-217.0","1920x1080","","3816.5","36.11","img/117/4/1/bw/001.png","","","appealing"
"","","","","","animation","218","2001678","0.0-218.0","1920x1080","","4115.700000000186","6.75","img/238/2.5/1.5/bw/001.png","","","appealing"
"","","","","","animation","219","2004677","0.0-219.0","1920x1080","","2998.100000000559","23.41","img/238/4/2/bw/001.png","","","appealing"
"","","","","","animation","220","2007319","0.0-220.0","1920x1080","","2640.4000000003725","7.54","img/314/2.5/0.66667/bw/001.png","","","appealing"
"","","","","","animation","221","2009710","0.0-221.0","1920x1080","","2390.0999999996275","5.69","img/314/2.5/1.5/bw/001.png","","","appealing"
"","","","","","animation","222","2012094","0.0-222.0","1920x1080","","2382.899999999441","5.29","img/238/2.5/0.5/bw/001.png","","","appealing"
"","","","","","animation","223","2014510","0.0-223.0","1920x1080","","2414.7999999998137","19.31","img/314/4/1/bw/001.png","","","appealing"
"","","","","","animation","224","2017935","0.0-224.0","1920x1080","","3423.2999999998137","68.52","img/117/5.5/1/bw/001.png","","","appealing"
"","","","","","animation","225","2021767","0.0-225.0","1920x1080","","3830.5","53.44","img/314/4.5/0.66667/bw/001.png","","","appealing"
"","","","","","animation","226","2026662","0.0-226.0","1920x1080","","4894.600000000559","54.10","img/117/4.5/1/bw/001.png","","","appealing"
"","","","","","animation","227","2028783","0.0-227.0","1920x1080","","2119.5","8.07","img/117/2.5/1.5/bw/001.png","","","appealing"
"","","","","","animation","228","2032647","0.0-228.0","1920x1080","","3862.7999999998137","46.16","img/117/4.5/2/bw/001.png","","","appealing"
"","","","","","animation","229","2036993","0.0-229.0","1920x1080","","4344.600000000559","74.34","img/238/5.5/0.66667/bw/001.png","","","appealing"
"","","","","","animation","230","2039960","0.0-230.0","1920x1080","","2965.2999999998137","80.56","img/238/5.5/2/bw/001.png","","","appealing"
"","","","","","animation","231","2044119","0.0-231.0","1920x1080","","4157.5","57.54","img/314/4.5/2/bw/001.png","","","appealing"
"","","","","","animation","232","2047027","0.0-232.0","1920x1080","","2906.7999999998137","41.01","img/314/4.5/1/bw/001.png","","","appealing"
"","","","","","animation","233","2048927","0.0-233.0","1920x1080","","1898.5","33.33","img/238/4.5/1.5/bw/001.png","","","appealing"
"","","","","","animation","234","2051193","0.0-234.0","1920x1080","","2265.5","25.79","img/238/4/1.5/bw/001.png","","","appealing"
"","","","","","animation","235","2054294","0.0-235.0","1920x1080","","3099.2000000001863","56.35","img/314/5.5/0.5/bw/001.png","","","appealing"
"","","","","","html-button-response","236","2075751","0.0-236.0","1920x1080","","21455.900000000373","","<div class=""intro"">You are about to view a new series of animations.<br><br></div><div class=""intro"">You will evaluate them based on a different descriptor.<br><br></div><div class=""intro"">Move the slider to indicate how <strong style=""text-transform:capitalize"">NATURAL</strong> you find each animation.<br><br></div><div class=""intro"">0 = Least Natural<br></div><div class=""intro"">1 = Most Natural<br><br></div><div class=""intro"">Remember to use the <strong><em>entire range</em></strong> of the slider to make your ratings.<br></div><div class=""intro"">Please <strong><em>take your time</em></strong> and carefully consider each rating you make.<br><br></div>","0","",""
"","","","","","call-function","237","2075753","0.0-237.0","1920x1080","","","","","","",""
"","","","","","animation","238","2082660","0.0-238.0","1920x1080","","6906.200000000186","21.56","img/117/2.5/1.5/bw/001.png","","","natural"
"","","","","","animation","239","2088151","0.0-239.0","1920x1080","","5489","18.12","img/314/2.5/0.66667/bw/001.png","","","natural"
"","","","","","animation","240","2095960","0.0-240.0","1920x1080","","7807.300000000745","75","img/238/5.5/0.66667/bw/001.png","","","natural"
"","","","","","animation","241","2101167","0.0-241.0","1920x1080","","5205","44.05","img/117/4.5/0.66667/bw/001.png","","","natural"
"","","","","","animation","242","2106327","0.0-242.0","1920x1080","","5158.700000000186","61.64","img/117/5.5/0.5/bw/001.png","","","natural"
"","","","","","animation","243","2110479","0.0-243.0","1920x1080","","4149.700000000186","47.09","img/314/4.5/0.66667/bw/001.png","","","natural"
"","","","","","animation","244","2115599","0.0-244.0","1920x1080","","5119","28.70","img/314/2.5/0.5/bw/001.png","","","natural"
"","","","","","animation","245","2121408","0.0-245.0","1920x1080","","5805.4000000003725","21.56","img/117/2.5/0.5/bw/001.png","","","natural"
"","","","","","animation","246","2133495","0.0-246.0","1920x1080","","12083.599999999627","43.65","img/238/4/0.66667/bw/001.png","","","natural"
"","","","","","animation","247","2138231","0.0-247.0","1920x1080","","4734","60.32","img/117/4.5/1/bw/001.png","","","natural"
"","","","","","animation","248","2142767","0.0-248.0","1920x1080","","4534.0999999996275","51.59","img/238/4.5/0.5/bw/001.png","","","natural"
"","","","","","animation","249","2147927","0.0-249.0","1920x1080","","5159","38.36","img/238/3.5/0.66667/bw/001.png","","","natural"
"","","","","","animation","250","2156215","0.0-250.0","1920x1080","","8286.400000000373","26.72","img/238/3.5/1.5/bw/001.png","","","natural"
"","","","","","animation","251","2162264","0.0-251.0","1920x1080","","6044.5","28.44","img/117/3.5/1.5/bw/001.png","","","natural"
"","","","","","animation","252","2168961","0.0-252.0","1920x1080","","6695.299999998882","9.52","img/238/2.5/1.5/bw/001.png","","","natural"
"","","","","","animation","253","2178428","0.0-253.0","1920x1080","","9465","75","img/238/5.5/0.5/bw/001.png","","","natural"
"","","","","","animation","254","2183736","0.0-254.0","1920x1080","","5306.199999999255","21.30","img/117/4.5/0.5/bw/001.png","","","natural"
"","","","","","animation","255","2189200","0.0-255.0","1920x1080","","5461.4000000003725","11.24","img/314/2.5/2/bw/001.png","","","natural"
"","","","","","animation","256","2196678","0.0-256.0","1920x1080","","7475.699999999255","77.51","img/314/5.5/1.5/bw/001.png","","","natural"
"","","","","","animation","257","2202896","0.0-257.0","1920x1080","","6215.5","33.33","img/314/4/1.5/bw/001.png","","","natural"
"","","","","","animation","258","2208384","0.0-258.0","1920x1080","","5486.9000000003725","68.25","img/314/5.5/0.5/bw/001.png","","","natural"
"","","","","","animation","259","2212416","0.0-259.0","1920x1080","","4030.4000000003725","39.68","img/314/4.5/1.5/bw/001.png","","","natural"
"","","","","","animation","260","2215028","0.0-260.0","1920x1080","","2610.199999999255","31.22","img/117/3.5/1/bw/001.png","","","natural"
"","","","","","animation","261","2220811","0.0-261.0","1920x1080","","5781.799999998882","33.60","img/238/4.5/1.5/bw/001.png","","","natural"
"","","","","","animation","262","2225804","0.0-262.0","1920x1080","","4985.5","82.01","img/117/5.5/1.5/bw/001.png","","","natural"
"","","","","","animation","263","2228748","0.0-263.0","1920x1080","","2942","40.34","img/117/4/1/bw/001.png","","","natural"
"","","","","","animation","264","2232268","0.0-264.0","1920x1080","","3518.4000000003725","25.40","img/238/2.5/1/bw/001.png","","","natural"
"","","","","","animation","265","2235852","0.0-265.0","1920x1080","","3581.2000000011176","43.65","img/314/4.5/2/bw/001.png","","","natural"
"","","","","","animation","266","2241131","0.0-266.0","1920x1080","","5278.200000001118","72.62","img/117/5.5/2/bw/001.png","","","natural"
"","","","","","animation","267","2244098","0.0-267.0","1920x1080","","2964.4000000003725","71.96","img/117/5.5/1/bw/001.png","","","natural"
"","","","","","animation","268","2246948","0.0-268.0","1920x1080","","2848.800000000745","27.12","img/238/4/0.5/bw/001.png","","","natural"
"","","","","","animation","269","2249588","0.0-269.0","1920x1080","","2638.699999999255","25.66","img/238/4.5/1/bw/001.png","","","natural"
"","","","","","animation","270","2252452","0.0-270.0","1920x1080","","2862.2999999988824","15.48","img/238/2.5/0.5/bw/001.png","","","natural"
"","","","","","animation","271","2257348","0.0-271.0","1920x1080","","4893.5999999996275","41.14","img/314/4.5/0.5/bw/001.png","","","natural"
"","","","","","animation","272","2260052","0.0-272.0","1920x1080","","2702.199999999255","24.74","img/117/2.5/2/bw/001.png","","","natural"
"","","","","","animation","273","2262915","0.0-273.0","1920x1080","","2862.300000000745","16.27","img/117/2.5/1/bw/001.png","","","natural"
"","","","","","animation","274","2265932","0.0-274.0","1920x1080","","3014.699999999255","32.14","img/117/3.5/2/bw/001.png","","","natural"
"","","","","","animation","275","2268900","0.0-275.0","1920x1080","","2966.2999999988824","41.93","img/238/4.5/2/bw/001.png","","","natural"
"","","","","","animation","276","2271284","0.0-276.0","1920x1080","","2382.5999999996275","31.88","img/314/4/2/bw/001.png","","","natural"
"","","","","","animation","277","2274436","0.0-277.0","1920x1080","","3150.7999999988824","19.44","img/238/2.5/0.66667/bw/001.png","","","natural"
"","","","","","animation","278","2278356","0.0-278.0","1920x1080","","3918.199999999255","71.83","img/314/5.5/2/bw/001.png","","","natural"
"","","","","","animation","279","2282500","0.0-279.0","1920x1080","","4140.700000001118","29","img/314/3.5/2/bw/001.png","","","natural"
"","","","","","animation","280","2284683","0.0-280.0","1920x1080","","2181.2000000011176","33.60","img/238/3.5/1/bw/001.png","","","natural"
"","","","","","animation","281","2287516","0.0-281.0","1920x1080","","2832","22.49","img/314/3.5/0.66667/bw/001.png","","","natural"
"","","","","","animation","282","2290166","0.0-282.0","1920x1080","","2648.9000000003725","29.23","img/314/3.5/1.5/bw/001.png","","","natural"
"","","","","","animation","283","2293437","0.0-283.0","1920x1080","","3269.699999999255","41.40","img/314/4.5/1/bw/001.png","","","natural"
"","","","","","animation","284","2296221","0.0-284.0","1920x1080","","2782.800000000745","46.56","img/117/4.5/2/bw/001.png","","","natural"
"","","","","","animation","285","2302633","0.0-285.0","1920x1080","","6410.4000000003725","66.40","img/238/5.5/1/bw/001.png","","","natural"
"","","","","","animation","286","2306221","0.0-286.0","1920x1080","","3586","14","img/314/2.5/1.5/bw/001.png","","","natural"
"","","","","","animation","287","2309116","0.0-287.0","1920x1080","","2892.5","41.67","img/117/4.5/1.5/bw/001.png","","","natural"
"","","","","","animation","288","2312269","0.0-288.0","1920x1080","","3151.9000000003725","33.99","img/314/4/0.5/bw/001.png","","","natural"
"","","","","","animation","289","2314966","0.0-289.0","1920x1080","","2696.199999999255","30.42","img/314/3.5/1/bw/001.png","","","natural"
"","","","","","animation","290","2320891","0.0-290.0","1920x1080","","5923.0999999996275","37.30","img/238/3.5/2/bw/001.png","","","natural"
"","","","","","animation","291","2324099","0.0-291.0","1920x1080","","3206.199999999255","16.40","img/314/2.5/1/bw/001.png","","","natural"
"","","","","","animation","292","2327117","0.0-292.0","1920x1080","","3016.2000000011176","30.29","img/314/4/1/bw/001.png","","","natural"
"","","","","","animation","293","2331133","0.0-293.0","1920x1080","","4013.800000000745","24.07","img/238/3.5/0.5/bw/001.png","","","natural"
"","","","","","animation","294","2334269","0.0-294.0","1920x1080","","3135.2000000011176","32.94","img/238/4/1/bw/001.png","","","natural"
"","","","","","animation","295","2338950","0.0-295.0","1920x1080","","4679.5","65.48","img/117/5.5/0.66667/bw/001.png","","","natural"
"","","","","","animation","296","2342876","0.0-296.0","1920x1080","","3925.9000000003725","41.93","img/238/4/2/bw/001.png","","","natural"
"","","","","","animation","297","2345249","0.0-297.0","1920x1080","","2370.7999999988824","32.28","img/117/3.5/0.66667/bw/001.png","","","natural"
"","","","","","animation","298","2350188","0.0-298.0","1920x1080","","4938.299999998882","71.56","img/238/5.5/2/bw/001.png","","","natural"
"","","","","","animation","299","2354265","0.0-299.0","1920x1080","","4075","19","img/117/4/1.5/bw/001.png","","","natural"
"","","","","","animation","300","2357782","0.0-300.0","1920x1080","","3514.89999999851","14","img/238/2.5/2/bw/001.png","","","natural"
"","","","","","animation","301","2360870","0.0-301.0","1920x1080","","3086.0999999996275","31.88","img/238/4/1.5/bw/001.png","","","natural"
"","","","","","animation","302","2363789","0.0-302.0","1920x1080","","2917.4000000003725","68","img/314/5.5/0.66667/bw/001.png","","","natural"
"","","","","","animation","303","2366692","0.0-303.0","1920x1080","","2902","45.24","img/238/4.5/0.66667/bw/001.png","","","natural"
"","","","","","animation","304","2369849","0.0-304.0","1920x1080","","3155.699999999255","14.55","img/117/2.5/0.66667/bw/001.png","","","natural"
"","","","","","animation","305","2372749","0.0-305.0","1920x1080","","2898.0999999996275","24.87","img/314/3.5/0.5/bw/001.png","","","natural"
"","","","","","animation","306","2375654","0.0-306.0","1920x1080","","2904.10000000149","25.66","img/314/4/0.66667/bw/001.png","","","natural"
"","","","","","animation","307","2379652","0.0-307.0","1920x1080","","3996.9000000003725","27.51","img/117/4/0.5/bw/001.png","","","natural"
"","","","","","animation","308","2383636","0.0-308.0","1920x1080","","3981.9000000003725","72","img/238/5.5/1.5/bw/001.png","","","natural"
"","","","","","animation","309","2387915","0.0-309.0","1920x1080","","4277.60000000149","74.34","img/314/5.5/1/bw/001.png","","","natural"
"","","","","","animation","310","2393298","0.0-310.0","1920x1080","","5380.9000000003725","20.90","img/117/4/2/bw/001.png","","","natural"
"","","","","","animation","311","2396092","0.0-311.0","1920x1080","","2792.300000000745","16.27","img/117/3.5/0.5/bw/001.png","","","natural"
"","","","","","animation","312","2398725","0.0-312.0","1920x1080","","2631.300000000745","22.22","img/117/4/0.66667/bw/001.png","","","natural"
"","","","","","html-button-response","313","2421529","0.0-313.0","1920x1080","","22791.10000000149","","<div class=""intro"">You are about to view a new series of animations.<br><br></div><div class=""intro"">You will evaluate them based on a different descriptor.<br><br></div><div class=""intro"">Move the slider to indicate how <strong style=""text-transform:capitalize"">RELAXING</strong> you find each animation.<br><br></div><div class=""intro"">0 = Least Relaxing<br></div><div class=""intro"">1 = Most Relaxing<br><br></div><div class=""intro"">Remember to use the <strong><em>entire range</em></strong> of the slider to make your ratings.<br></div><div class=""intro"">Please <strong><em>take your time</em></strong> and carefully consider each rating you make.<br><br></div>","0","",""
"","","","","","call-function","314","2421532","0.0-314.0","1920x1080","","","","","","",""
"","","","","","animation","315","2427182","0.0-315.0","1920x1080","","5650","63.10","img/117/4.5/1.5/bw/001.png","","","relaxing"
"","","","","","animation","316","2434848","0.0-316.0","1920x1080","","7662.9000000003725","31.75","img/238/2.5/2/bw/001.png","","","relaxing"
"","","","","","animation","317","2438333","0.0-317.0","1920x1080","","3480.7999999988824","30.69","img/314/4/1/bw/001.png","","","relaxing"
"","","","","","animation","318","2442059","0.0-318.0","1920x1080","","3724.800000000745","21.83","img/117/3.5/0.5/bw/001.png","","","relaxing"
"","","","","","animation","319","2447343","0.0-319.0","1920x1080","","5281.5999999996275","41","img/238/3.5/2/bw/001.png","","","relaxing"
"","","","","","animation","320","2450543","0.0-320.0","1920x1080","","3198.9000000003725","34","img/117/3.5/0.66667/bw/001.png","","","relaxing"
"","","","","","animation","321","2455759","0.0-321.0","1920x1080","","5214.800000000745","47.35","img/117/4/2/bw/001.png","","","relaxing"
"","","","","","animation","322","2459959","0.0-322.0","1920x1080","","4196.199999999255","64.81","img/238/4.5/1/bw/001.png","","","relaxing"
"","","","","","animation","323","2466335","0.0-323.0","1920x1080","","6381.9000000003725","68","img/238/4.5/0.66667/bw/001.png","","","relaxing"
"","","","","","animation","324","2469208","0.0-324.0","1920x1080","","2871","12.96","img/117/2.5/0.66667/bw/001.png","","","relaxing"
"","","","","","animation","325","2474625","0.0-325.0","1920x1080","","5415.5999999996275","72.62","img/238/5.5/0.5/bw/001.png","","","relaxing"
"","","","","","animation","326","2477712","0.0-326.0","1920x1080","","3085.0999999996275","10.71","img/238/2.5/1.5/bw/001.png","","","relaxing"
"","","","","","animation","327","2480687","0.0-327.0","1920x1080","","2973.5","10.45","img/314/2.5/0.66667/bw/001.png","","","relaxing"
"","","","","","animation","328","2482952","0.0-328.0","1920x1080","","2262.5999999996275","11.38","img/117/2.5/1/bw/001.png","","","relaxing"
"","","","","","animation","329","2485851","0.0-329.0","1920x1080","","2897.7999999988824","10.71","img/117/2.5/2/bw/001.png","","","relaxing"
"","","","","","animation","330","2496519","0.0-330.0","1920x1080","","10666.699999999255","69","img/314/5.5/0.5/bw/001.png","","","relaxing"
"","","","","","animation","331","2509568","0.0-331.0","1920x1080","","13047","82","img/238/5.5/2/bw/001.png","","","relaxing"
"","","","","","animation","332","2513375","0.0-332.0","1920x1080","","3802.0999999996275","60.45","img/117/4.5/1/bw/001.png","","","relaxing"
"","","","","","animation","333","2517085","0.0-333.0","1920x1080","","3708","49.47","img/238/4/1.5/bw/001.png","","","relaxing"
"","","","","","animation","334","2522752","0.0-334.0","1920x1080","","5664.800000000745","73.94","img/238/5.5/1/bw/001.png","","","relaxing"
"","","","","","animation","335","2525769","0.0-335.0","1920x1080","","3014.9000000003725","45.37","img/314/4.5/0.66667/bw/001.png","","","relaxing"
"","","","","","animation","336","2528904","0.0-336.0","1920x1080","","3133.89999999851","60.19","img/238/4.5/2/bw/001.png","","","relaxing"
"","","","","","animation","337","2532088","0.0-337.0","1920x1080","","3182.0999999996275","29.50","img/117/4/0.5/bw/001.png","","","relaxing"
"","","","","","animation","338","2535386","0.0-338.0","1920x1080","","3296.699999999255","72.62","img/117/5.5/1.5/bw/001.png","","","relaxing"
"","","","","","animation","339","2541741","0.0-339.0","1920x1080","","6352.9000000003725","53","img/117/5.5/1/bw/001.png","","","relaxing"
"","","","","","animation","340","2544640","0.0-340.0","1920x1080","","2897.7999999988824","29.89","img/314/2.5/2/bw/001.png","","","relaxing"
"","","","","","animation","341","2546811","0.0-341.0","1920x1080","","2168.800000000745","34","img/117/3.5/1/bw/001.png","","","relaxing"
"","","","","","animation","342","2555289","0.0-342.0","1920x1080","","8476.199999999255","71.83","img/314/5.5/2/bw/001.png","","","relaxing"
"","","","","","animation","343","2558424","0.0-343.0","1920x1080","","3132.10000000149","44.31","img/314/4/2/bw/001.png","","","relaxing"
"","","","","","animation","344","2562436","0.0-344.0","1920x1080","","4008.300000000745","33.20","img/117/3.5/2/bw/001.png","","","relaxing"
"","","","","","animation","345","2566097","0.0-345.0","1920x1080","","3660.199999999255","28.44","img/117/4/1/bw/001.png","","","relaxing"
"","","","","","animation","346","2569224","0.0-346.0","1920x1080","","3125.5999999996275","31.22","img/117/4.5/0.66667/bw/001.png","","","relaxing"
"","","","","","animation","347","2572436","0.0-347.0","1920x1080","","3210","12.96","img/314/2.5/0.5/bw/001.png","","","relaxing"
"","","","","","animation","348","2575909","0.0-348.0","1920x1080","","3471.4000000003725","30.95","img/314/4.5/0.5/bw/001.png","","","relaxing"
"","","","","","animation","349","2579386","0.0-349.0","1920x1080","","3474.4000000003725","7.54","img/238/2.5/0.66667/bw/001.png","","","relaxing"
"","","","","","animation","350","2582120","0.0-350.0","1920x1080","","2723.199999999255","11.90","img/238/3.5/1/bw/001.png","","","relaxing"
"","","","","","animation","351","2586482","0.0-351.0","1920x1080","","4359.89999999851","12.17","img/238/4/1/bw/001.png","","","relaxing"
"","","","","","animation","352","2591018","0.0-352.0","1920x1080","","4534.300000000745","7.28","img/314/2.5/1.5/bw/001.png","","","relaxing"
"","","","","","animation","353","2594186","0.0-353.0","1920x1080","","3165.699999999255","25.66","img/117/4/1.5/bw/001.png","","","relaxing"
"","","","","","animation","354","2601529","0.0-354.0","1920x1080","","7339.9000000003725","47","img/314/3.5/1.5/bw/001.png","","","relaxing"
"","","","","","animation","355","2606338","0.0-355.0","1920x1080","","4807.300000000745","79.37","img/314/5.5/1.5/bw/001.png","","","relaxing"
"","","","","","animation","356","2609678","0.0-356.0","1920x1080","","3337.89999999851","54.37","img/117/4.5/0.5/bw/001.png","","","relaxing"
"","","","","","animation","357","2616261","0.0-357.0","1920x1080","","6581.199999999255","43.52","img/238/4/0.66667/bw/001.png","","","relaxing"
"","","","","","animation","358","2619050","0.0-358.0","1920x1080","","2787.5","65.74","img/238/4/2/bw/001.png","","","relaxing"
"","","","","","animation","359","2622735","0.0-359.0","1920x1080","","3684","2.91","img/117/2.5/0.5/bw/001.png","","","relaxing"
"","","","","","animation","360","2627745","0.0-360.0","1920x1080","","5007.699999999255","53","img/314/4.5/1/bw/001.png","","","relaxing"
"","","","","","animation","361","2631919","0.0-361.0","1920x1080","","4172.700000001118","68.52","img/238/5.5/0.66667/bw/001.png","","","relaxing"
"","","","","","animation","362","2634914","0.0-362.0","1920x1080","","2993","40.34","img/238/3.5/0.66667/bw/001.png","","","relaxing"
"","","","","","animation","363","2637762","0.0-363.0","1920x1080","","2847.10000000149","17.72","img/314/2.5/1/bw/001.png","","","relaxing"
"","","","","","animation","364","2642569","0.0-364.0","1920x1080","","4813.700000001118","66.80","img/117/5.5/0.66667/bw/001.png","","","relaxing"
"","","","","","animation","365","2645256","0.0-365.0","1920x1080","","2684.800000000745","72","img/314/5.5/1/bw/001.png","","","relaxing"
"","","","","","animation","366","2647956","0.0-366.0","1920x1080","","2696.5999999996275","43.39","img/314/3.5/0.5/bw/001.png","","","relaxing"
"","","","","","animation","367","2650376","0.0-367.0","1920x1080","","2419.2999999988824","30.03","img/238/4/0.5/bw/001.png","","","relaxing"
"","","","","","animation","368","2655069","0.0-368.0","1920x1080","","4690.9000000003725","76","img/238/5.5/1.5/bw/001.png","","","relaxing"
"","","","","","animation","369","2658836","0.0-369.0","1920x1080","","3764.5","37.96","img/238/3.5/0.5/bw/001.png","","","relaxing"
"","","","","","animation","370","2663425","0.0-370.0","1920x1080","","4587.299999998882","32.01","img/314/3.5/0.66667/bw/001.png","","","relaxing"
"","","","","","animation","371","2666905","0.0-371.0","1920x1080","","3478","16.80","img/238/2.5/1/bw/001.png","","","relaxing"
"","","","","","animation","372","2671661","0.0-372.0","1920x1080","","4753.700000001118","11.77","img/117/2.5/1.5/bw/001.png","","","relaxing"
"","","","","","animation","373","2676755","0.0-373.0","1920x1080","","5090.199999999255","47.49","img/314/3.5/2/bw/001.png","","","relaxing"
"","","","","","animation","374","2685886","0.0-374.0","1920x1080","","9127.900000000373","93","img/117/5.5/2/bw/001.png","","","relaxing"
"","","","","","animation","375","2689525","0.0-375.0","1920x1080","","3637.0999999996275","22.62","img/238/3.5/1.5/bw/001.png","","","relaxing"
"","","","","","animation","376","2694841","0.0-376.0","1920x1080","","5313.9000000003725","19","img/117/4/0.66667/bw/001.png","","","relaxing"
"","","","","","animation","377","2701019","0.0-377.0","1920x1080","","6175.5","60.71","img/117/4.5/2/bw/001.png","","","relaxing"
"","","","","","animation","378","2704838","0.0-378.0","1920x1080","","3806.0999999996275","60.71","img/314/5.5/0.66667/bw/001.png","","","relaxing"
"","","","","","animation","379","2709038","0.0-379.0","1920x1080","","4198","47.75","img/238/4.5/0.5/bw/001.png","","","relaxing"
"","","","","","animation","380","2711668","0.0-380.0","1920x1080","","2628.2999999988824","41.01","img/314/4/1.5/bw/001.png","","","relaxing"
"","","","","","animation","381","2715687","0.0-381.0","1920x1080","","4017.300000000745","64","img/238/4.5/1.5/bw/001.png","","","relaxing"
"","","","","","animation","382","2718413","0.0-382.0","1920x1080","","2724.0999999996275","30.42","img/314/4/0.66667/bw/001.png","","","relaxing"
"","","","","","animation","383","2722547","0.0-383.0","1920x1080","","4132.60000000149","59.79","img/314/4.5/1.5/bw/001.png","","","relaxing"
"","","","","","animation","384","2725788","0.0-384.0","1920x1080","","3239.4000000003725","34.52","img/314/4/0.5/bw/001.png","","","relaxing"
"","","","","","animation","385","2730313","0.0-385.0","1920x1080","","4523.200000001118","27.65","img/117/3.5/1.5/bw/001.png","","","relaxing"
"","","","","","animation","386","2734380","0.0-386.0","1920x1080","","4064.60000000149","56.75","img/117/5.5/0.5/bw/001.png","","","relaxing"
"","","","","","animation","387","2748046","0.0-387.0","1920x1080","","13664.199999999255","72","img/314/4.5/2/bw/001.png","","","relaxing"
"","","","","","animation","388","2752131","0.0-388.0","1920x1080","","4082.7000000011176","45.50","img/314/3.5/1/bw/001.png","","","relaxing"
"","","","","","animation","389","2755280","0.0-389.0","1920x1080","","3147","13.62","img/238/2.5/0.5/bw/001.png","","","relaxing"
"","","","","","html-button-response","390","2817394","0.0-390.0","1920x1080","","62112.300000000745","","<strong>Study Debriefing</strong><br><p class=""debrief""><strong>Background:</strong> The patterns you rated are called <em>fractals</em>. The term fractal describes a class of irregular curves or shapes for which any suitably chosen part is similar in shape to a given larger or smaller part when magnified or reduced to the same size. Fractal properties are found throughout the natural and manmade world. The series of animations you saw today displayed animated fractal patterns of a varying complexity.</p><p class=""debrief""><strong>Purpose of this study:</strong> We hope to better understand how the perception of static fractals differs from the perception of animated fractals, and how the speed of the animated patterns influences people&apos;s perception of them. Fractals allow us to study the perception of aesthetic properties (e.g. the perceived level of beauty in an image) without using recognizable content, which makes them an excellent tool for studying abstract aesthetic judgement.</p><p class=""debrief""><strong>Your part:</strong> Your participation has helped us to further understand how humans perceive these patterns across different levels of speed and complexity. This research with allow us to better understand how the visual system and brain process our ever-changing visual environments.<p class=""debrief""><strong>Feedback and Further information:</strong> If you have additional questions about this study, please feel free to ask the researcher, Nathan Gonzales-Hess at nhess @ uoregon.edu. If you have any questions concerning your rights as a research participant, please contact Research Compliance Services, 5237 University of Oregon, Eugene, OR 97403, 541-346-2510, or email researchCompliance @ uoregon.edu. You can also email the Human Subjects Coordinator for psychology and linguistics research at hscoord @ uoregon.edu. ","0","",""
"","","","","","html-button-response","391","2852183","0.0-391.0","1920x1080","","34783.699999999255","","Thank you for participating in this study. <br>Please click below to finish the experiment and submit your responses.<br><br>","0","",""
"true","","","","","fullscreen","392","2853197","0.0-392.0","1920x1080","14:2 20/10/2022","","","","","",""
