"success","timeout","failed_images","failed_audio","failed_video","trial_type","trial_index","time_elapsed","internal_node_id","resolution","timeStamp","rt","response","stimulus","button_pressed","value","descriptor"
"true","false","[]","[]","[]","preload","0","5954","0.0-0.0","1920x1080","","","","","","",""
"true","false","[]","[]","[]","preload","1","12073","0.0-1.0","1920x1080","","","","","","",""
"true","false","[]","[]","[]","preload","2","18324","0.0-2.0","1920x1080","","","","","","",""
"true","","","","","fullscreen","3","259877","0.0-3.0","1920x1080","11:33 21/10/2022","","","","","",""
"","","","","","survey-html-form","4","268772","0.0-4.0","1920x1080","","8891.900000000373","{""age"":""18"",""gender"":""Female""}","","","",""
"","","","","","html-button-response","5","350059","0.0-5.0","1920x1080","","81286.70000000019","","<div class=""complex"">You are going to see a series of animations.<br><br></div><div class=""complex"">Move the slider to indicate how <strong style=""text-transform:capitalize"">COMPLEX</strong> you find each animation.<br><br></div><div class=""complex"">0 = Least Complex<br></div><div class=""complex"">1 = Most Complex<br><br></div><div class=""complex"">Remember to use the <strong><em>entire range</em></strong> of the slider to make your ratings.<br></div><div class=""complex"">Please <strong><em>take your time</em></strong> and carefully consider each rating you make.<br><br></div><div class=""complex"">The study has five sections and will take about 45 minutes to complete.<br><br></div>","0","",""
"","","","","","call-function","6","350060","0.0-6.0","1920x1080","","","","","","",""
"","","","","","animation","7","363691","0.0-7.0","1920x1080","","13630.800000000745","29","img/314/4.5/0.66667/bw/001.png","","","complex"
"","","","","","animation","8","374099","0.0-8.0","1920x1080","","10406.400000000373","18.78","img/117/5.5/0.66667/bw/001.png","","","complex"
"","","","","","animation","9","427371","0.0-9.0","1920x1080","","53271.699999999255","76","img/314/3.5/1.5/bw/001.png","","","complex"
"","","","","","animation","10","448123","0.0-10.0","1920x1080","","20750.900000000373","58.20","img/314/4/0.66667/bw/001.png","","","complex"
"","","","","","animation","11","457331","0.0-11.0","1920x1080","","9206.900000000373","53.04","img/238/4/1/bw/001.png","","","complex"
"","","","","","animation","12","465891","0.0-12.0","1920x1080","","8559.5","81","img/238/3.5/1/bw/001.png","","","complex"
"","","","","","animation","13","472835","0.0-13.0","1920x1080","","6943.5","93","img/238/2.5/1.5/bw/001.png","","","complex"
"","","","","","animation","14","476315","0.0-14.0","1920x1080","","3478.7999999998137","68.65","img/314/3.5/1/bw/001.png","","","complex"
"","","","","","animation","15","480259","0.0-15.0","1920x1080","","3943.5999999996275","46.69","img/314/4/0.5/bw/001.png","","","complex"
"","","","","","animation","16","489603","0.0-16.0","1920x1080","","9342.400000000373","36.77","img/314/4/2/bw/001.png","","","complex"
"","","","","","animation","17","502899","0.0-17.0","1920x1080","","13295.100000000559","57.14","img/117/3.5/0.66667/bw/001.png","","","complex"
"","","","","","animation","18","506835","0.0-18.0","1920x1080","","3935.399999999441","18.92","img/314/4.5/1/bw/001.png","","","complex"
"","","","","","animation","19","513633","0.0-19.0","1920x1080","","6799.399999999441","65","img/117/3.5/1/bw/001.png","","","complex"
"","","","","","animation","20","523328","0.0-20.0","1920x1080","","9694.699999999255","9","img/117/5.5/2/bw/001.png","","","complex"
"","","","","","animation","21","533769","0.0-21.0","1920x1080","","10439.5","36","img/117/4/2/bw/001.png","","","complex"
"","","","","","animation","22","539089","0.0-22.0","1920x1080","","5319.0999999996275","42.72","img/314/4/1.5/bw/001.png","","","complex"
"","","","","","animation","23","544161","0.0-23.0","1920x1080","","5071.200000000186","53","img/238/3.5/1.5/bw/001.png","","","complex"
"","","","","","animation","24","552825","0.0-24.0","1920x1080","","8663.299999999814","23","img/117/4.5/1.5/bw/001.png","","","complex"
"","","","","","animation","25","557873","0.0-25.0","1920x1080","","5046.5999999996275","67.33","img/117/3.5/2/bw/001.png","","","complex"
"","","","","","animation","26","571527","0.0-26.0","1920x1080","","13655","6","img/314/5.5/2/bw/001.png","","","complex"
"","","","","","animation","27","577175","0.0-27.0","1920x1080","","5647.700000000186","83.20","img/238/3.5/0.66667/bw/001.png","","","complex"
"","","","","","animation","28","580527","0.0-28.0","1920x1080","","3350.9000000003725","77.38","img/117/4/0.66667/bw/001.png","","","complex"
"","","","","","animation","29","588575","0.0-29.0","1920x1080","","8047.0999999996275","74.87","img/314/3.5/2/bw/001.png","","","complex"
"","","","","","animation","30","595119","0.0-30.0","1920x1080","","6542.200000000186","5.56","img/238/5.5/2/bw/001.png","","","complex"
"","","","","","animation","31","599199","0.0-31.0","1920x1080","","4078.7999999998137","4.10","img/314/5.5/1/bw/001.png","","","complex"
"","","","","","animation","32","604199","0.0-32.0","1920x1080","","4999.0999999996275","96","img/238/2.5/0.5/bw/001.png","","","complex"
"","","","","","animation","33","608543","0.0-33.0","1920x1080","","4343.5","89.95","img/117/2.5/2/bw/001.png","","","complex"
"","","","","","animation","34","616239","0.0-34.0","1920x1080","","7695.399999999441","99","img/314/2.5/0.5/bw/001.png","","","complex"
"","","","","","animation","35","620143","0.0-35.0","1920x1080","","3902.4000000003725","97","img/314/2.5/0.66667/bw/001.png","","","complex"
"","","","","","animation","36","626743","0.0-36.0","1920x1080","","6599","40.48","img/238/4.5/0.66667/bw/001.png","","","complex"
"","","","","","animation","37","631252","0.0-37.0","1920x1080","","4503.299999999814","85","img/238/2.5/0.66667/bw/001.png","","","complex"
"","","","","","animation","38","634533","0.0-38.0","1920x1080","","3279.399999999441","42.86","img/117/4/0.5/bw/001.png","","","complex"
"","","","","","animation","39","637037","0.0-39.0","1920x1080","","2503.300000000745","71.43","img/117/2.5/1/bw/001.png","","","complex"
"","","","","","animation","40","640397","0.0-40.0","1920x1080","","3360.0999999996275","12.70","img/117/5.5/1/bw/001.png","","","complex"
"","","","","","animation","41","644300","0.0-41.0","1920x1080","","3902","28","img/238/4/2/bw/001.png","","","complex"
"","","","","","animation","42","648516","0.0-42.0","1920x1080","","4214.9000000003725","23.54","img/314/4.5/1.5/bw/001.png","","","complex"
"","","","","","animation","43","653468","0.0-43.0","1920x1080","","4951.0999999996275","32","img/238/3.5/0.5/bw/001.png","","","complex"
"","","","","","animation","44","656532","0.0-44.0","1920x1080","","3062.800000000745","37.30","img/238/3.5/2/bw/001.png","","","complex"
"","","","","","animation","45","660468","0.0-45.0","1920x1080","","3935.399999999441","58.07","img/314/2.5/1.5/bw/001.png","","","complex"
"","","","","","animation","46","666532","0.0-46.0","1920x1080","","6062.9000000003725","87.96","img/117/2.5/0.66667/bw/001.png","","","complex"
"","","","","","animation","47","674198","0.0-47.0","1920x1080","","7664.799999999814","20.77","img/117/4.5/2/bw/001.png","","","complex"
"","","","","","animation","48","711205","0.0-48.0","1920x1080","","37005.59999999963","51.59","img/117/3.5/1.5/bw/001.png","","","complex"
"","","","","","animation","49","714431","0.0-49.0","1920x1080","","3225","44.18","img/314/4/1/bw/001.png","","","complex"
"","","","","","animation","50","717661","0.0-50.0","1920x1080","","3229.5","86.64","img/117/2.5/0.5/bw/001.png","","","complex"
"","","","","","animation","51","724117","0.0-51.0","1920x1080","","6454.799999999814","72","img/314/3.5/0.5/bw/001.png","","","complex"
"","","","","","animation","52","735717","0.0-52.0","1920x1080","","11598.599999999627","84.26","img/314/2.5/2/bw/001.png","","","complex"
"","","","","","animation","53","743615","0.0-53.0","1920x1080","","7897.0999999996275","14","img/238/4.5/1.5/bw/001.png","","","complex"
"","","","","","animation","54","751651","0.0-54.0","1920x1080","","8037.0999999996275","7","img/117/5.5/0.5/bw/001.png","","","complex"
"","","","","","animation","55","756963","0.0-55.0","1920x1080","","5311.5999999996275","19.97","img/117/4.5/0.66667/bw/001.png","","","complex"
"","","","","","animation","56","760547","0.0-56.0","1920x1080","","3582.100000000559","28.04","img/314/4.5/2/bw/001.png","","","complex"
"","","","","","animation","57","764147","0.0-57.0","1920x1080","","3599.800000000745","37.17","img/238/4/0.5/bw/001.png","","","complex"
"","","","","","animation","58","774046","0.0-58.0","1920x1080","","9897.299999999814","79.50","img/117/2.5/1.5/bw/001.png","","","complex"
"","","","","","animation","59","778139","0.0-59.0","1920x1080","","4092.199999999255","5.42","img/238/5.5/1.5/bw/001.png","","","complex"
"","","","","","animation","60","782323","0.0-60.0","1920x1080","","4183.0999999996275","27","img/117/4/1.5/bw/001.png","","","complex"
"","","","","","animation","61","789091","0.0-61.0","1920x1080","","6766.799999999814","21.56","img/238/4.5/2/bw/001.png","","","complex"
"","","","","","animation","62","827531","0.0-62.0","1920x1080","","38439.800000000745","38.36","img/238/4/0.66667/bw/001.png","","","complex"
"","","","","","animation","63","832862","0.0-63.0","1920x1080","","5329.100000000559","75","img/314/2.5/1/bw/001.png","","","complex"
"","","","","","animation","64","837445","0.0-64.0","1920x1080","","4582.399999999441","8.33","img/314/5.5/0.5/bw/001.png","","","complex"
"","","","","","animation","65","844262","0.0-65.0","1920x1080","","6815.399999999441","24","img/117/4.5/1/bw/001.png","","","complex"
"","","","","","animation","66","847139","0.0-66.0","1920x1080","","2875.399999999441","14.15","img/238/5.5/1/bw/001.png","","","complex"
"","","","","","animation","67","849763","0.0-67.0","1920x1080","","2623.7000000001863","30.95","img/117/4/1/bw/001.png","","","complex"
"","","","","","animation","68","852445","0.0-68.0","1920x1080","","2681.199999999255","34.13","img/238/4.5/1/bw/001.png","","","complex"
"","","","","","animation","69","855635","0.0-69.0","1920x1080","","3188.100000000559","41.14","img/238/4/1.5/bw/001.png","","","complex"
"","","","","","animation","70","864979","0.0-70.0","1920x1080","","9343.200000000186","9","img/238/5.5/0.66667/bw/001.png","","","complex"
"","","","","","animation","71","870678","0.0-71.0","1920x1080","","5698.200000000186","8","img/314/5.5/1.5/bw/001.png","","","complex"
"","","","","","animation","72","876514","0.0-72.0","1920x1080","","5834.799999999814","74","img/314/3.5/0.66667/bw/001.png","","","complex"
"","","","","","animation","73","881690","0.0-73.0","1920x1080","","5175.100000000559","81.22","img/238/2.5/2/bw/001.png","","","complex"
"","","","","","animation","74","885962","0.0-74.0","1920x1080","","4270.600000000559","90.61","img/238/2.5/1/bw/001.png","","","complex"
"","","","","","animation","75","891266","0.0-75.0","1920x1080","","5302.899999999441","77.78","img/117/3.5/0.5/bw/001.png","","","complex"
"","","","","","animation","76","902212","0.0-76.0","1920x1080","","10944.699999999255","12.70","img/117/5.5/1.5/bw/001.png","","","complex"
"","","","","","animation","77","911044","0.0-77.0","1920x1080","","8831.5","28","img/117/4.5/0.5/bw/001.png","","","complex"
"","","","","","animation","78","933951","0.0-78.0","1920x1080","","22908.799999999814","34.26","img/238/4.5/0.5/bw/001.png","","","complex"
"","","","","","animation","79","937247","0.0-79.0","1920x1080","","3294.4000000003725","16.40","img/314/5.5/0.66667/bw/001.png","","","complex"
"","","","","","animation","80","941215","0.0-80.0","1920x1080","","3967.100000000559","20.77","img/238/5.5/0.5/bw/001.png","","","complex"
"","","","","","animation","81","946208","0.0-81.0","1920x1080","","4991.600000000559","39.02","img/314/4.5/0.5/bw/001.png","","","complex"
"","","","","","html-button-response","82","965880","0.0-82.0","1920x1080","","19670.5","","<div class=""intro"">You are about to view a new series of animations.<br><br></div><div class=""intro"">You will evaluate them based on a different descriptor.<br><br></div><div class=""intro"">Move the slider to indicate how <strong style=""text-transform:capitalize"">RELAXING</strong> you find each animation.<br><br></div><div class=""intro"">0 = Least Relaxing<br></div><div class=""intro"">1 = Most Relaxing<br><br></div><div class=""intro"">Remember to use the <strong><em>entire range</em></strong> of the slider to make your ratings.<br></div><div class=""intro"">Please <strong><em>take your time</em></strong> and carefully consider each rating you make.<br><br></div>","0","",""
"","","","","","call-function","83","965881","0.0-83.0","1920x1080","","","","","","",""
"","","","","","animation","84","975091","0.0-84.0","1920x1080","","9209.700000000186","90.34","img/238/5.5/1.5/bw/001.png","","","relaxing"
"","","","","","animation","85","981031","0.0-85.0","1920x1080","","5939","55","img/238/3.5/1.5/bw/001.png","","","relaxing"
"","","","","","animation","86","985891","0.0-86.0","1920x1080","","4858.399999999441","49.07","img/117/3.5/2/bw/001.png","","","relaxing"
"","","","","","animation","87","991622","0.0-87.0","1920x1080","","5723.699999999255","36.90","img/238/4/1.5/bw/001.png","","","relaxing"
"","","","","","animation","88","998933","0.0-88.0","1920x1080","","7310.600000000559","29.89","img/117/4.5/1/bw/001.png","","","relaxing"
"","","","","","animation","89","1004097","0.0-89.0","1920x1080","","5163","77","img/314/5.5/1.5/bw/001.png","","","relaxing"
"","","","","","animation","90","1008333","0.0-90.0","1920x1080","","4235.0999999996275","14","img/314/3.5/1/bw/001.png","","","relaxing"
"","","","","","animation","91","1013665","0.0-91.0","1920x1080","","5330","1.19","img/117/2.5/0.5/bw/001.png","","","relaxing"
"","","","","","animation","92","1067003","0.0-92.0","1920x1080","","53340.09999999963","64","img/314/4.5/1.5/bw/001.png","","","relaxing"
"","","","","","animation","93","1070739","0.0-93.0","1920x1080","","3734.7000000001863","35.98","img/238/4.5/1/bw/001.png","","","relaxing"
"","","","","","animation","94","1075187","0.0-94.0","1920x1080","","4447.299999999814","8.73","img/314/2.5/1.5/bw/001.png","","","relaxing"
"","","","","","animation","95","1079051","0.0-95.0","1920x1080","","3862.800000000745","7.54","img/117/4/0.5/bw/001.png","","","relaxing"
"","","","","","animation","96","1086746","0.0-96.0","1920x1080","","7694.9000000003725","62.70","img/238/5.5/0.5/bw/001.png","","","relaxing"
"","","","","","animation","97","1091994","0.0-97.0","1920x1080","","5246.799999999814","14.68","img/117/2.5/1.5/bw/001.png","","","relaxing"
"","","","","","animation","98","1099803","0.0-98.0","1920x1080","","7807.5","48","img/117/4.5/0.66667/bw/001.png","","","relaxing"
"","","","","","animation","99","1104130","0.0-99.0","1920x1080","","4326.700000000186","17.72","img/314/2.5/2/bw/001.png","","","relaxing"
"","","","","","animation","100","1107779","0.0-100.0","1920x1080","","3647.5","4.23","img/314/2.5/0.66667/bw/001.png","","","relaxing"
"","","","","","animation","101","1113272","0.0-101.0","1920x1080","","5486.300000000745","42.06","img/238/4.5/0.5/bw/001.png","","","relaxing"
"","","","","","animation","102","1119345","0.0-102.0","1920x1080","","6071.0999999996275","35","img/117/3.5/1/bw/001.png","","","relaxing"
"","","","","","animation","103","1122900","0.0-103.0","1920x1080","","3554.5","57.28","img/314/4.5/1/bw/001.png","","","relaxing"
"","","","","","animation","104","1126128","0.0-104.0","1920x1080","","3227.0999999996275","62.96","img/117/5.5/0.5/bw/001.png","","","relaxing"
"","","","","","animation","105","1132936","0.0-105.0","1920x1080","","6805.9000000003725","28.31","img/238/2.5/2/bw/001.png","","","relaxing"
"","","","","","animation","106","1139120","0.0-106.0","1920x1080","","6182.699999999255","93","img/117/5.5/1.5/bw/001.png","","","relaxing"
"","","","","","animation","107","1144656","0.0-107.0","1920x1080","","5535.199999999255","38","img/238/4/1/bw/001.png","","","relaxing"
"","","","","","animation","108","1147832","0.0-108.0","1920x1080","","3174.5","63.36","img/238/4.5/1.5/bw/001.png","","","relaxing"
"","","","","","animation","109","1151360","0.0-109.0","1920x1080","","3527.2999999998137","45.24","img/314/3.5/2/bw/001.png","","","relaxing"
"","","","","","animation","110","1156050","0.0-110.0","1920x1080","","4688.199999999255","96","img/314/5.5/2/bw/001.png","","","relaxing"
"","","","","","animation","111","1163532","0.0-111.0","1920x1080","","7480.5999999996275","31.61","img/314/4.5/0.5/bw/001.png","","","relaxing"
"","","","","","animation","112","1168300","0.0-112.0","1920x1080","","4767","18","img/238/3.5/0.66667/bw/001.png","","","relaxing"
"","","","","","animation","113","1176656","0.0-113.0","1920x1080","","8355.5","23","img/314/4/0.66667/bw/001.png","","","relaxing"
"","","","","","animation","114","1241199","0.0-114.0","1920x1080","","64542","41.53","img/238/4.5/0.66667/bw/001.png","","","relaxing"
"","","","","","animation","115","1246975","0.0-115.0","1920x1080","","5774.700000000186","75.93","img/314/5.5/0.66667/bw/001.png","","","relaxing"
"","","","","","animation","116","1251799","0.0-116.0","1920x1080","","4822.700000000186","10.71","img/238/3.5/0.5/bw/001.png","","","relaxing"
"","","","","","animation","117","1254882","0.0-117.0","1920x1080","","3081.7999999998137","2.38","img/238/2.5/1/bw/001.png","","","relaxing"
"","","","","","animation","118","1258314","0.0-118.0","1920x1080","","3430.2000000001863","16.01","img/117/2.5/2/bw/001.png","","","relaxing"
"","","","","","animation","119","1262432","0.0-119.0","1920x1080","","4117","43.12","img/314/4/2/bw/001.png","","","relaxing"
"","","","","","animation","120","1266255","0.0-120.0","1920x1080","","3822.0999999996275","19.84","img/117/3.5/0.66667/bw/001.png","","","relaxing"
"","","","","","animation","121","1269148","0.0-121.0","1920x1080","","2892","15.21","img/238/2.5/1.5/bw/001.png","","","relaxing"
"","","","","","animation","122","1272607","0.0-122.0","1920x1080","","3457.5","64.42","img/117/4.5/2/bw/001.png","","","relaxing"
"","","","","","animation","123","1276665","0.0-123.0","1920x1080","","4057.0999999996275","40.74","img/314/4/1/bw/001.png","","","relaxing"
"","","","","","animation","124","1279255","0.0-124.0","1920x1080","","2588.7999999998137","5.69","img/238/2.5/0.66667/bw/001.png","","","relaxing"
"","","","","","animation","125","1285983","0.0-125.0","1920x1080","","6726.700000000186","31","img/238/3.5/1/bw/001.png","","","relaxing"
"","","","","","animation","126","1290719","0.0-126.0","1920x1080","","4735","15","img/314/3.5/0.66667/bw/001.png","","","relaxing"
"","","","","","animation","127","1294134","0.0-127.0","1920x1080","","3415.2999999998137","6.75","img/117/2.5/0.66667/bw/001.png","","","relaxing"
"","","","","","animation","128","1298718","0.0-128.0","1920x1080","","4582.700000000186","79.37","img/117/5.5/1/bw/001.png","","","relaxing"
"","","","","","animation","129","1302263","0.0-129.0","1920x1080","","3544.5","88.49","img/314/5.5/1/bw/001.png","","","relaxing"
"","","","","","animation","130","1305406","0.0-130.0","1920x1080","","3141.0999999996275","67.99","img/238/4/2/bw/001.png","","","relaxing"
"","","","","","animation","131","1307781","0.0-131.0","1920x1080","","2374.5","57.14","img/117/4.5/1.5/bw/001.png","","","relaxing"
"","","","","","animation","132","1312206","0.0-132.0","1920x1080","","4423.399999999441","86.77","img/238/5.5/2/bw/001.png","","","relaxing"
"","","","","","animation","133","1319313","0.0-133.0","1920x1080","","7106","10","img/314/2.5/1/bw/001.png","","","relaxing"
"","","","","","animation","134","1323297","0.0-134.0","1920x1080","","3982.4000000003725","2.12","img/238/2.5/0.5/bw/001.png","","","relaxing"
"","","","","","animation","135","1328374","0.0-135.0","1920x1080","","5075.799999999814","7","img/117/2.5/1/bw/001.png","","","relaxing"
"","","","","","animation","136","1332551","0.0-136.0","1920x1080","","4175.700000000186","55.16","img/314/5.5/0.5/bw/001.png","","","relaxing"
"","","","","","animation","137","1336565","0.0-137.0","1920x1080","","4013.100000000559","29.10","img/314/3.5/0.5/bw/001.png","","","relaxing"
"","","","","","animation","138","1342022","0.0-138.0","1920x1080","","5455.200000000186","34.13","img/314/4/0.5/bw/001.png","","","relaxing"
"","","","","","animation","139","1347597","0.0-139.0","1920x1080","","5574.700000000186","83.47","img/238/5.5/1/bw/001.png","","","relaxing"
"","","","","","animation","140","1351745","0.0-140.0","1920x1080","","4147.300000000745","91.80","img/117/5.5/2/bw/001.png","","","relaxing"
"","","","","","animation","141","1360781","0.0-141.0","1920x1080","","9034.700000000186","34.13","img/238/4/0.5/bw/001.png","","","relaxing"
"","","","","","animation","142","1365405","0.0-142.0","1920x1080","","4623.0999999996275","28","img/314/4.5/0.66667/bw/001.png","","","relaxing"
"","","","","","animation","143","1372397","0.0-143.0","1920x1080","","6990.600000000559","63.23","img/314/4.5/2/bw/001.png","","","relaxing"
"","","","","","animation","144","1376362","0.0-144.0","1920x1080","","3964.7999999998137","57.01","img/314/4/1.5/bw/001.png","","","relaxing"
"","","","","","animation","145","1379879","0.0-145.0","1920x1080","","3513.5","52","img/117/4/1.5/bw/001.png","","","relaxing"
"","","","","","animation","146","1384629","0.0-146.0","1920x1080","","4748.799999999814","37.17","img/117/4/0.66667/bw/001.png","","","relaxing"
"","","","","","animation","147","1389621","0.0-147.0","1920x1080","","4991.100000000559","79","img/238/5.5/0.66667/bw/001.png","","","relaxing"
"","","","","","animation","148","1393101","0.0-148.0","1920x1080","","3478.7999999998137","36.24","img/238/4/0.66667/bw/001.png","","","relaxing"
"","","","","","animation","149","1396229","0.0-149.0","1920x1080","","3126.2000000001863","67.20","img/238/4.5/2/bw/001.png","","","relaxing"
"","","","","","animation","150","1399763","0.0-150.0","1920x1080","","3533.0999999996275","2.78","img/314/2.5/0.5/bw/001.png","","","relaxing"
"","","","","","animation","151","1410462","0.0-151.0","1920x1080","","10698.900000000373","37.57","img/117/4.5/0.5/bw/001.png","","","relaxing"
"","","","","","animation","152","1422329","0.0-152.0","1920x1080","","11866.799999999814","48","img/117/4/1/bw/001.png","","","relaxing"
"","","","","","animation","153","1426316","0.0-153.0","1920x1080","","3985","70.90","img/117/4/2/bw/001.png","","","relaxing"
"","","","","","animation","154","1430277","0.0-154.0","1920x1080","","3959.7999999998137","62.57","img/238/3.5/2/bw/001.png","","","relaxing"
"","","","","","animation","155","1432571","0.0-155.0","1920x1080","","2293.9000000003725","43.25","img/117/3.5/1.5/bw/001.png","","","relaxing"
"","","","","","animation","156","1437188","0.0-156.0","1920x1080","","4615.100000000559","86","img/117/5.5/0.66667/bw/001.png","","","relaxing"
"","","","","","animation","157","1441509","0.0-157.0","1920x1080","","4320.299999999814","33.60","img/314/3.5/1.5/bw/001.png","","","relaxing"
"","","","","","animation","158","1445977","0.0-158.0","1920x1080","","4466.5999999996275","15","img/117/3.5/0.5/bw/001.png","","","relaxing"
"","","","","","html-button-response","159","1464972","0.0-159.0","1920x1080","","18993.299999999814","","<div class=""intro"">You are about to view a new series of animations.<br><br></div><div class=""intro"">You will evaluate them based on a different descriptor.<br><br></div><div class=""intro"">Move the slider to indicate how <strong style=""text-transform:capitalize"">INTERESTING</strong> you find each animation.<br><br></div><div class=""intro"">0 = Least Interesting<br></div><div class=""intro"">1 = Most Interesting<br><br></div><div class=""intro"">Remember to use the <strong><em>entire range</em></strong> of the slider to make your ratings.<br></div><div class=""intro"">Please <strong><em>take your time</em></strong> and carefully consider each rating you make.<br><br></div>","0","",""
"","","","","","call-function","160","1464973","0.0-160.0","1920x1080","","","","","","",""
"","","","","","animation","161","1469693","0.0-161.0","1920x1080","","4720","90.61","img/117/2.5/0.5/bw/001.png","","","interesting"
"","","","","","animation","162","1478380","0.0-162.0","1920x1080","","8682","63","img/117/4.5/2/bw/001.png","","","interesting"
"","","","","","animation","163","1481864","0.0-163.0","1920x1080","","3480.4000000003725","76","img/117/3.5/1/bw/001.png","","","interesting"
"","","","","","animation","164","1484980","0.0-164.0","1920x1080","","3115.4000000003725","69.58","img/238/4/2/bw/001.png","","","interesting"
"","","","","","animation","165","1489455","0.0-165.0","1920x1080","","4474.100000000559","77.25","img/238/4/0.66667/bw/001.png","","","interesting"
"","","","","","animation","166","1492023","0.0-166.0","1920x1080","","2566.5999999996275","83.07","img/238/4/0.5/bw/001.png","","","interesting"
"","","","","","animation","167","1494935","0.0-167.0","1920x1080","","2911","98","img/117/2.5/0.66667/bw/001.png","","","interesting"
"","","","","","animation","168","1498055","0.0-168.0","1920x1080","","3118.7999999998137","87.17","img/314/3.5/1/bw/001.png","","","interesting"
"","","","","","animation","169","1502497","0.0-169.0","1920x1080","","4441.100000000559","95","img/117/2.5/1.5/bw/001.png","","","interesting"
"","","","","","animation","170","1506967","0.0-170.0","1920x1080","","4468.399999999441","87.30","img/238/3.5/0.5/bw/001.png","","","interesting"
"","","","","","animation","171","1510839","0.0-171.0","1920x1080","","3870.7999999998137","58.73","img/238/4/1.5/bw/001.png","","","interesting"
"","","","","","animation","172","1514281","0.0-172.0","1920x1080","","3440.600000000559","65.48","img/238/3.5/2/bw/001.png","","","interesting"
"","","","","","animation","173","1517207","0.0-173.0","1920x1080","","2925.4000000003725","72.35","img/117/4/0.5/bw/001.png","","","interesting"
"","","","","","animation","174","1521135","0.0-174.0","1920x1080","","3926.699999999255","77.65","img/314/3.5/0.66667/bw/001.png","","","interesting"
"","","","","","animation","175","1525607","0.0-175.0","1920x1080","","4470.199999999255","27.38","img/117/5.5/2/bw/001.png","","","interesting"
"","","","","","animation","176","1529397","0.0-176.0","1920x1080","","3787.2000000001863","32","img/314/5.5/0.66667/bw/001.png","","","interesting"
"","","","","","animation","177","1535916","0.0-177.0","1920x1080","","6521.4000000003725","87","img/314/3.5/2/bw/001.png","","","interesting"
"","","","","","animation","178","1539964","0.0-178.0","1920x1080","","4045.7999999998137","34","img/314/4.5/2/bw/001.png","","","interesting"
"","","","","","animation","179","1543164","0.0-179.0","1920x1080","","3196.9000000003725","24","img/238/5.5/0.66667/bw/001.png","","","interesting"
"","","","","","animation","180","1547661","0.0-180.0","1920x1080","","4495.800000000745","17","img/117/5.5/0.5/bw/001.png","","","interesting"
"","","","","","animation","181","1551377","0.0-181.0","1920x1080","","3715.5","43.65","img/314/4/0.5/bw/001.png","","","interesting"
"","","","","","animation","182","1553579","0.0-182.0","1920x1080","","2200.0999999996275","50.93","img/117/4/0.66667/bw/001.png","","","interesting"
"","","","","","animation","183","1555868","0.0-183.0","1920x1080","","2288.2999999998137","88.89","img/117/2.5/2/bw/001.png","","","interesting"
"","","","","","animation","184","1561500","0.0-184.0","1920x1080","","5630.899999999441","54.89","img/117/4/1.5/bw/001.png","","","interesting"
"","","","","","animation","185","1564948","0.0-185.0","1920x1080","","3446","57.67","img/117/4.5/0.5/bw/001.png","","","interesting"
"","","","","","animation","186","1568084","0.0-186.0","1920x1080","","3135","7.67","img/314/5.5/2/bw/001.png","","","interesting"
"","","","","","animation","187","1570804","0.0-187.0","1920x1080","","2718.7999999998137","95","img/314/2.5/0.66667/bw/001.png","","","interesting"
"","","","","","animation","188","1574177","0.0-188.0","1920x1080","","3371.7999999998137","55.95","img/314/4.5/0.66667/bw/001.png","","","interesting"
"","","","","","animation","189","1578160","0.0-189.0","1920x1080","","3981.800000000745","93.39","img/238/2.5/0.66667/bw/001.png","","","interesting"
"","","","","","animation","190","1581636","0.0-190.0","1920x1080","","3475.100000000559","87.30","img/314/2.5/2/bw/001.png","","","interesting"
"","","","","","animation","191","1589460","0.0-191.0","1920x1080","","7823.200000000186","85","img/117/3.5/0.5/bw/001.png","","","interesting"
"","","","","","animation","192","1592701","0.0-192.0","1920x1080","","3238.5999999996275","17.06","img/117/5.5/1/bw/001.png","","","interesting"
"","","","","","animation","193","1597349","0.0-193.0","1920x1080","","4646.799999999814","26.06","img/314/4.5/0.5/bw/001.png","","","interesting"
"","","","","","animation","194","1600101","0.0-194.0","1920x1080","","2750.7000000001863","40.48","img/314/4/0.66667/bw/001.png","","","interesting"
"","","","","","animation","195","1605045","0.0-195.0","1920x1080","","4942.299999999814","86","img/117/2.5/1/bw/001.png","","","interesting"
"","","","","","animation","196","1608328","0.0-196.0","1920x1080","","3282.5","46","img/314/4/1.5/bw/001.png","","","interesting"
"","","","","","animation","197","1612765","0.0-197.0","1920x1080","","4435.5","34.66","img/117/5.5/0.66667/bw/001.png","","","interesting"
"","","","","","animation","198","1616945","0.0-198.0","1920x1080","","4178.799999999814","81.61","img/238/2.5/1.5/bw/001.png","","","interesting"
"","","","","","animation","199","1670546","0.0-199.0","1920x1080","","53603.09999999963","42","img/314/4/1/bw/001.png","","","interesting"
"","","","","","animation","200","1674266","0.0-200.0","1920x1080","","3718.5999999996275","77","img/238/2.5/2/bw/001.png","","","interesting"
"","","","","","animation","201","1678930","0.0-201.0","1920x1080","","4663","43","img/238/4.5/2/bw/001.png","","","interesting"
"","","","","","animation","202","1681542","0.0-202.0","1920x1080","","2610.10000000149","22.75","img/314/4.5/1/bw/001.png","","","interesting"
"","","","","","animation","203","1684514","0.0-203.0","1920x1080","","2971.4000000003725","78.70","img/314/2.5/1.5/bw/001.png","","","interesting"
"","","","","","animation","204","1687178","0.0-204.0","1920x1080","","2662.199999999255","70.90","img/314/3.5/1.5/bw/001.png","","","interesting"
"","","","","","animation","205","1692592","0.0-205.0","1920x1080","","5412.800000000745","32","img/117/4.5/1/bw/001.png","","","interesting"
"","","","","","animation","206","1696125","0.0-206.0","1920x1080","","3532","83.73","img/314/3.5/0.5/bw/001.png","","","interesting"
"","","","","","animation","207","1701866","0.0-207.0","1920x1080","","5740.0999999996275","36.11","img/117/4/2/bw/001.png","","","interesting"
"","","","","","animation","208","1706658","0.0-208.0","1920x1080","","4790.4000000003725","17.33","img/117/5.5/1.5/bw/001.png","","","interesting"
"","","","","","animation","209","1708946","0.0-209.0","1920x1080","","2287.2000000011176","7.94","img/238/5.5/1/bw/001.png","","","interesting"
"","","","","","animation","210","1712560","0.0-210.0","1920x1080","","3615","37.43","img/314/4/2/bw/001.png","","","interesting"
"","","","","","animation","211","1715160","0.0-211.0","1920x1080","","2598.800000000745","66.93","img/238/3.5/1/bw/001.png","","","interesting"
"","","","","","animation","212","1719144","0.0-212.0","1920x1080","","3982.9000000003725","79.89","img/117/3.5/0.66667/bw/001.png","","","interesting"
"","","","","","animation","213","1722007","0.0-213.0","1920x1080","","2861.4000000003725","84.79","img/238/2.5/1/bw/001.png","","","interesting"
"","","","","","animation","214","1726392","0.0-214.0","1920x1080","","4382.9000000003725","39.55","img/238/4.5/1.5/bw/001.png","","","interesting"
"","","","","","animation","215","1729557","0.0-215.0","1920x1080","","3163.300000000745","42.33","img/238/4.5/0.66667/bw/001.png","","","interesting"
"","","","","","animation","216","1733940","0.0-216.0","1920x1080","","4382.200000001118","27.38","img/314/4.5/1.5/bw/001.png","","","interesting"
"","","","","","animation","217","1739592","0.0-217.0","1920x1080","","5651.0999999996275","84","img/314/2.5/1/bw/001.png","","","interesting"
"","","","","","animation","218","1745123","0.0-218.0","1920x1080","","5530.300000000745","16","img/314/5.5/0.5/bw/001.png","","","interesting"
"","","","","","animation","219","1749344","0.0-219.0","1920x1080","","4219.199999999255","27.38","img/238/4.5/1/bw/001.png","","","interesting"
"","","","","","animation","220","1795892","0.0-220.0","1920x1080","","46543.20000000112","43","img/238/4.5/0.5/bw/001.png","","","interesting"
"","","","","","animation","221","1798608","0.0-221.0","1920x1080","","2712.199999999255","88.76","img/238/2.5/0.5/bw/001.png","","","interesting"
"","","","","","animation","222","1800509","0.0-222.0","1920x1080","","1899.300000000745","93.78","img/314/2.5/0.5/bw/001.png","","","interesting"
"","","","","","animation","223","1803158","0.0-223.0","1920x1080","","2648.5999999996275","62.30","img/117/4.5/0.66667/bw/001.png","","","interesting"
"","","","","","animation","224","1808651","0.0-224.0","1920x1080","","5491","65","img/238/4/1/bw/001.png","","","interesting"
"","","","","","animation","225","1814026","0.0-225.0","1920x1080","","5374.5999999996275","72.22","img/238/3.5/1.5/bw/001.png","","","interesting"
"","","","","","animation","226","1816825","0.0-226.0","1920x1080","","2797.0999999996275","5.03","img/238/5.5/1.5/bw/001.png","","","interesting"
"","","","","","animation","227","1822925","0.0-227.0","1920x1080","","6098.799999998882","47.09","img/117/3.5/1.5/bw/001.png","","","interesting"
"","","","","","animation","228","1828162","0.0-228.0","1920x1080","","5235.800000000745","34","img/117/4.5/1.5/bw/001.png","","","interesting"
"","","","","","animation","229","1834320","0.0-229.0","1920x1080","","6150.800000000745","56.35","img/117/3.5/2/bw/001.png","","","interesting"
"","","","","","animation","230","1837936","0.0-230.0","1920x1080","","3615","14.42","img/314/5.5/1/bw/001.png","","","interesting"
"","","","","","animation","231","1842364","0.0-231.0","1920x1080","","4426.9000000003725","21.96","img/238/5.5/0.5/bw/001.png","","","interesting"
"","","","","","animation","232","1846320","0.0-232.0","1920x1080","","3954.10000000149","65.34","img/117/4/1/bw/001.png","","","interesting"
"","","","","","animation","233","1848680","0.0-233.0","1920x1080","","2358.699999999255","76.85","img/238/3.5/0.66667/bw/001.png","","","interesting"
"","","","","","animation","234","1852347","0.0-234.0","1920x1080","","3666","12","img/238/5.5/2/bw/001.png","","","interesting"
"","","","","","animation","235","1855320","0.0-235.0","1920x1080","","2971.2000000011176","17.06","img/314/5.5/1.5/bw/001.png","","","interesting"
"","","","","","html-button-response","236","1874736","0.0-236.0","1920x1080","","19414.900000000373","","<div class=""intro"">You are about to view a new series of animations.<br><br></div><div class=""intro"">You will evaluate them based on a different descriptor.<br><br></div><div class=""intro"">Move the slider to indicate how <strong style=""text-transform:capitalize"">APPEALING</strong> you find each animation.<br><br></div><div class=""intro"">0 = Least Appealing<br></div><div class=""intro"">1 = Most Appealing<br><br></div><div class=""intro"">Remember to use the <strong><em>entire range</em></strong> of the slider to make your ratings.<br></div><div class=""intro"">Please <strong><em>take your time</em></strong> and carefully consider each rating you make.<br><br></div>","0","",""
"","","","","","call-function","237","1874737","0.0-237.0","1920x1080","","","","","","",""
"","","","","","animation","238","1883615","0.0-238.0","1920x1080","","8877.900000000373","58.47","img/238/4.5/1.5/bw/001.png","","","appealing"
"","","","","","animation","239","1889784","0.0-239.0","1920x1080","","6167.10000000149","63.89","img/314/4.5/1.5/bw/001.png","","","appealing"
"","","","","","animation","240","1895945","0.0-240.0","1920x1080","","6166","24","img/238/3.5/0.5/bw/001.png","","","appealing"
"","","","","","animation","241","1898723","0.0-241.0","1920x1080","","2776.5999999996275","16.27","img/238/4/0.66667/bw/001.png","","","appealing"
"","","","","","animation","242","1904193","0.0-242.0","1920x1080","","5469.0999999996275","12.30","img/314/3.5/0.5/bw/001.png","","","appealing"
"","","","","","animation","243","1909681","0.0-243.0","1920x1080","","5486.5","72.49","img/117/4.5/2/bw/001.png","","","appealing"
"","","","","","animation","244","1912773","0.0-244.0","1920x1080","","3091","87.96","img/238/5.5/2/bw/001.png","","","appealing"
"","","","","","animation","245","1916140","0.0-245.0","1920x1080","","3365.2999999988824","91","img/117/5.5/2/bw/001.png","","","appealing"
"","","","","","animation","246","1924824","0.0-246.0","1920x1080","","8683","4.37","img/238/2.5/0.66667/bw/001.png","","","appealing"
"","","","","","animation","247","1928761","0.0-247.0","1920x1080","","3935.10000000149","39.02","img/117/4/0.66667/bw/001.png","","","appealing"
"","","","","","animation","248","1976591","0.0-248.0","1920x1080","","47830.800000000745","90.61","img/238/5.5/1.5/bw/001.png","","","appealing"
"","","","","","animation","249","2042005","0.0-249.0","1920x1080","","65414.20000000112","36.90","img/117/3.5/0.5/bw/001.png","","","appealing"
"","","","","","animation","250","2049309","0.0-250.0","1920x1080","","7302.199999999255","87","img/314/5.5/0.5/bw/001.png","","","appealing"
"","","","","","animation","251","2076656","0.0-251.0","1920x1080","","27341.89999999851","58.47","img/314/4.5/1/bw/001.png","","","appealing"
"","","","","","animation","252","2080621","0.0-252.0","1920x1080","","3964.199999999255","38.76","img/314/4.5/0.5/bw/001.png","","","appealing"
"","","","","","animation","253","2083655","0.0-253.0","1920x1080","","3032.2999999988824","79.63","img/314/5.5/2/bw/001.png","","","appealing"
"","","","","","animation","254","2088808","0.0-254.0","1920x1080","","5151.799999998882","44.97","img/238/4/1.5/bw/001.png","","","appealing"
"","","","","","animation","255","2091440","0.0-255.0","1920x1080","","2630.9000000003725","79.10","img/314/5.5/0.66667/bw/001.png","","","appealing"
"","","","","","animation","256","2093721","0.0-256.0","1920x1080","","2279.7999999988824","19.84","img/117/3.5/2/bw/001.png","","","appealing"
"","","","","","animation","257","2096055","0.0-257.0","1920x1080","","2332.39999999851","5.42","img/117/2.5/1/bw/001.png","","","appealing"
"","","","","","animation","258","2101755","0.0-258.0","1920x1080","","5698.799999998882","66","img/117/4.5/1.5/bw/001.png","","","appealing"
"","","","","","animation","259","2106355","0.0-259.0","1920x1080","","4599","77","img/117/5.5/1.5/bw/001.png","","","appealing"
"","","","","","animation","260","2110638","0.0-260.0","1920x1080","","4281.9000000003725","15.74","img/238/4/0.5/bw/001.png","","","appealing"
"","","","","","animation","261","2113338","0.0-261.0","1920x1080","","2698.9000000003725","2.65","img/117/2.5/0.5/bw/001.png","","","appealing"
"","","","","","animation","262","2117976","0.0-262.0","1920x1080","","4637","37","img/238/4.5/0.66667/bw/001.png","","","appealing"
"","","","","","animation","263","2130978","0.0-263.0","1920x1080","","12991.900000000373","57.41","img/314/4/1/bw/001.png","","","appealing"
"","","","","","animation","264","2136967","0.0-264.0","1920x1080","","5985.0999999996275","44","img/314/4.5/0.66667/bw/001.png","","","appealing"
"","","","","","animation","265","2140194","0.0-265.0","1920x1080","","3226.7000000011176","32.14","img/238/4.5/0.5/bw/001.png","","","appealing"
"","","","","","animation","266","2144278","0.0-266.0","1920x1080","","4082","22.22","img/314/3.5/1.5/bw/001.png","","","appealing"
"","","","","","animation","267","2148702","0.0-267.0","1920x1080","","4423.0999999996275","0.79","img/314/2.5/0.5/bw/001.png","","","appealing"
"","","","","","animation","268","2157383","0.0-268.0","1920x1080","","8678.5","62","img/117/4/2/bw/001.png","","","appealing"
"","","","","","animation","269","2164815","0.0-269.0","1920x1080","","7430.89999999851","29","img/238/3.5/0.66667/bw/001.png","","","appealing"
"","","","","","animation","270","2171263","0.0-270.0","1920x1080","","6447.5","86.38","img/238/5.5/0.66667/bw/001.png","","","appealing"
"","","","","","animation","271","2175798","0.0-271.0","1920x1080","","4532.89999999851","11.38","img/117/2.5/0.66667/bw/001.png","","","appealing"
"","","","","","animation","272","2179151","0.0-272.0","1920x1080","","3351.0999999996275","24.47","img/117/4/0.5/bw/001.png","","","appealing"
"","","","","","animation","273","2184862","0.0-273.0","1920x1080","","5710.0999999996275","17.86","img/238/2.5/1.5/bw/001.png","","","appealing"
"","","","","","animation","274","2188494","0.0-274.0","1920x1080","","3630.2999999988824","95","img/238/5.5/1/bw/001.png","","","appealing"
"","","","","","animation","275","2190919","0.0-275.0","1920x1080","","2422.699999999255","64.15","img/314/4/0.66667/bw/001.png","","","appealing"
"","","","","","animation","276","2194052","0.0-276.0","1920x1080","","3140.9000000003725","78","img/117/5.5/0.5/bw/001.png","","","appealing"
"","","","","","animation","277","2196942","0.0-277.0","1920x1080","","2887.4000000003725","9.26","img/238/2.5/1/bw/001.png","","","appealing"
"","","","","","animation","278","2202352","0.0-278.0","1920x1080","","5408.9000000003725","24","img/238/3.5/1.5/bw/001.png","","","appealing"
"","","","","","animation","279","2254220","0.0-279.0","1920x1080","","51864.5","54","img/117/4/1.5/bw/001.png","","","appealing"
"","","","","","animation","280","2264253","0.0-280.0","1920x1080","","10031.900000000373","82","img/117/5.5/1/bw/001.png","","","appealing"
"","","","","","animation","281","2270253","0.0-281.0","1920x1080","","5998.5","13","img/314/2.5/1.5/bw/001.png","","","appealing"
"","","","","","animation","282","2272839","0.0-282.0","1920x1080","","2584.2999999988824","61","img/238/4.5/2/bw/001.png","","","appealing"
"","","","","","animation","283","2279353","0.0-283.0","1920x1080","","6512.800000000745","9","img/314/2.5/2/bw/001.png","","","appealing"
"","","","","","animation","284","2283120","0.0-284.0","1920x1080","","3765.300000000745","7.01","img/117/3.5/1/bw/001.png","","","appealing"
"","","","","","animation","285","2286320","0.0-285.0","1920x1080","","3198","9.66","img/314/3.5/0.66667/bw/001.png","","","appealing"
"","","","","","animation","286","2290105","0.0-286.0","1920x1080","","3784.39999999851","13.76","img/314/3.5/1/bw/001.png","","","appealing"
"","","","","","animation","287","2293853","0.0-287.0","1920x1080","","3746.7999999988824","89.02","img/238/5.5/0.5/bw/001.png","","","appealing"
"","","","","","animation","288","2300003","0.0-288.0","1920x1080","","6147.800000000745","16","img/117/3.5/0.66667/bw/001.png","","","appealing"
"","","","","","animation","289","2302143","0.0-289.0","1920x1080","","2138.9000000003725","32.94","img/238/4/2/bw/001.png","","","appealing"
"","","","","","animation","290","2306839","0.0-290.0","1920x1080","","4694","89","img/314/5.5/1.5/bw/001.png","","","appealing"
"","","","","","animation","291","2309794","0.0-291.0","1920x1080","","2954","2.51","img/238/2.5/0.5/bw/001.png","","","appealing"
"","","","","","animation","292","2312477","0.0-292.0","1920x1080","","2675.300000000745","11.11","img/238/2.5/2/bw/001.png","","","appealing"
"","","","","","animation","293","2315127","0.0-293.0","1920x1080","","2647.89999999851","6.48","img/314/2.5/1/bw/001.png","","","appealing"
"","","","","","animation","294","2318360","0.0-294.0","1920x1080","","3232.199999999255","85.71","img/314/5.5/1/bw/001.png","","","appealing"
"","","","","","animation","295","2322848","0.0-295.0","1920x1080","","4486.4000000003725","74.34","img/117/3.5/1.5/bw/001.png","","","appealing"
"","","","","","animation","296","2325861","0.0-296.0","1920x1080","","3012.300000000745","85.85","img/314/4/2/bw/001.png","","","appealing"
"","","","","","animation","297","2328260","0.0-297.0","1920x1080","","2397.2000000011176","67.99","img/238/4.5/1/bw/001.png","","","appealing"
"","","","","","animation","298","2331133","0.0-298.0","1920x1080","","2872.300000000745","5.16","img/314/2.5/0.66667/bw/001.png","","","appealing"
"","","","","","animation","299","2336798","0.0-299.0","1920x1080","","5662.89999999851","67","img/117/4.5/1/bw/001.png","","","appealing"
"","","","","","animation","300","2343060","0.0-300.0","1920x1080","","6260.5","10","img/117/2.5/1.5/bw/001.png","","","appealing"
"","","","","","animation","301","2352489","0.0-301.0","1920x1080","","9428.400000000373","53","img/117/4.5/0.66667/bw/001.png","","","appealing"
"","","","","","animation","302","2399088","0.0-302.0","1920x1080","","46604.60000000149","66.67","img/314/4.5/2/bw/001.png","","","appealing"
"","","","","","animation","303","2404035","0.0-303.0","1920x1080","","4945.800000000745","77.65","img/117/5.5/0.66667/bw/001.png","","","appealing"
"","","","","","animation","304","2407670","0.0-304.0","1920x1080","","3632.800000000745","39.02","img/238/3.5/1/bw/001.png","","","appealing"
"","","","","","animation","305","2410718","0.0-305.0","1920x1080","","3046","45.37","img/314/4/1.5/bw/001.png","","","appealing"
"","","","","","animation","306","2413534","0.0-306.0","1920x1080","","2814.800000000745","18.12","img/117/2.5/2/bw/001.png","","","appealing"
"","","","","","animation","307","2418422","0.0-307.0","1920x1080","","4886.300000000745","64.55","img/117/4/1/bw/001.png","","","appealing"
"","","","","","animation","308","2422527","0.0-308.0","1920x1080","","4103.199999999255","54.63","img/238/4/1/bw/001.png","","","appealing"
"","","","","","animation","309","2425452","0.0-309.0","1920x1080","","2922.800000000745","13","img/314/4/0.5/bw/001.png","","","appealing"
"","","","","","animation","310","2428090","0.0-310.0","1920x1080","","2636.9000000003725","24.07","img/117/4.5/0.5/bw/001.png","","","appealing"
"","","","","","animation","311","2430656","0.0-311.0","1920x1080","","2564.5","33.33","img/238/3.5/2/bw/001.png","","","appealing"
"","","","","","animation","312","2436126","0.0-312.0","1920x1080","","5460.699999999255","40.08","img/314/3.5/2/bw/001.png","","","appealing"
"","","","","","html-button-response","313","2461736","0.0-313.0","1920x1080","","25607","","<div class=""intro"">You are about to view a new series of animations.<br><br></div><div class=""intro"">You will evaluate them based on a different descriptor.<br><br></div><div class=""intro"">Move the slider to indicate how <strong style=""text-transform:capitalize"">NATURAL</strong> you find each animation.<br><br></div><div class=""intro"">0 = Least Natural<br></div><div class=""intro"">1 = Most Natural<br><br></div><div class=""intro"">Remember to use the <strong><em>entire range</em></strong> of the slider to make your ratings.<br></div><div class=""intro"">Please <strong><em>take your time</em></strong> and carefully consider each rating you make.<br><br></div>","0","",""
"","","","","","call-function","314","2461740","0.0-314.0","1920x1080","","","","","","",""
"","","","","","animation","315","2467425","0.0-315.0","1920x1080","","5685","42.86","img/238/4.5/0.66667/bw/001.png","","","natural"
"","","","","","animation","316","2471276","0.0-316.0","1920x1080","","3849.5","56.08","img/238/4/1.5/bw/001.png","","","natural"
"","","","","","animation","317","2473511","0.0-317.0","1920x1080","","2234.0999999996275","16.93","img/314/2.5/0.66667/bw/001.png","","","natural"
"","","","","","animation","318","2475693","0.0-318.0","1920x1080","","2180.60000000149","32.80","img/314/4.5/0.66667/bw/001.png","","","natural"
"","","","","","animation","319","2479057","0.0-319.0","1920x1080","","3362","38","img/117/4/1/bw/001.png","","","natural"
"","","","","","animation","320","2483981","0.0-320.0","1920x1080","","4923.4000000003725","82.80","img/314/4.5/2/bw/001.png","","","natural"
"","","","","","animation","321","2488576","0.0-321.0","1920x1080","","4593.200000001118","12.30","img/238/2.5/0.66667/bw/001.png","","","natural"
"","","","","","animation","322","2492517","0.0-322.0","1920x1080","","3947.800000000745","93.65","img/117/5.5/1/bw/001.png","","","natural"
"","","","","","animation","323","2497622","0.0-323.0","1920x1080","","5101.700000001118","98","img/314/5.5/2/bw/001.png","","","natural"
"","","","","","animation","324","2500501","0.0-324.0","1920x1080","","2877.800000000745","10.19","img/238/2.5/0.5/bw/001.png","","","natural"
"","","","","","animation","325","2504221","0.0-325.0","1920x1080","","3718.9000000003725","22.49","img/117/4.5/0.5/bw/001.png","","","natural"
"","","","","","animation","326","2507951","0.0-326.0","1920x1080","","3728.5999999996275","14","img/238/3.5/0.5/bw/001.png","","","natural"
"","","","","","animation","327","2510943","0.0-327.0","1920x1080","","2990.5","90.08","img/238/5.5/2/bw/001.png","","","natural"
"","","","","","animation","328","2514634","0.0-328.0","1920x1080","","3688.199999999255","76","img/238/3.5/1.5/bw/001.png","","","natural"
"","","","","","animation","329","2517557","0.0-329.0","1920x1080","","2922.5999999996275","39","img/117/3.5/0.66667/bw/001.png","","","natural"
"","","","","","animation","330","2522621","0.0-330.0","1920x1080","","5062.300000000745","78.70","img/238/2.5/2/bw/001.png","","","natural"
"","","","","","animation","331","2526259","0.0-331.0","1920x1080","","3636.300000000745","27.38","img/314/3.5/0.5/bw/001.png","","","natural"
"","","","","","animation","332","2542701","0.0-332.0","1920x1080","","16441.10000000149","26.19","img/117/3.5/0.5/bw/001.png","","","natural"
"","","","","","animation","333","2546384","0.0-333.0","1920x1080","","3678.5","94.58","img/117/5.5/2/bw/001.png","","","natural"
"","","","","","animation","334","2548895","0.0-334.0","1920x1080","","2510.4000000003725","25.00","img/238/2.5/1/bw/001.png","","","natural"
"","","","","","animation","335","2551713","0.0-335.0","1920x1080","","2804.300000000745","19.05","img/314/3.5/0.66667/bw/001.png","","","natural"
"","","","","","animation","336","2556696","0.0-336.0","1920x1080","","4982.0999999996275","32.28","img/314/3.5/1/bw/001.png","","","natural"
"","","","","","animation","337","2587801","0.0-337.0","1920x1080","","31103.699999999255","63.89","img/117/4.5/1/bw/001.png","","","natural"
"","","","","","animation","338","2593829","0.0-338.0","1920x1080","","6026.199999999255","73.94","img/238/4.5/1/bw/001.png","","","natural"
"","","","","","animation","339","2595964","0.0-339.0","1920x1080","","2133.4000000003725","46.56","img/117/2.5/1.5/bw/001.png","","","natural"
"","","","","","animation","340","2598746","0.0-340.0","1920x1080","","2780.800000000745","65.48","img/314/4.5/1.5/bw/001.png","","","natural"
"","","","","","animation","341","2600763","0.0-341.0","1920x1080","","2014.800000000745","84","img/314/5.5/1/bw/001.png","","","natural"
"","","","","","animation","342","2602665","0.0-342.0","1920x1080","","1901.300000000745","88.62","img/117/5.5/1.5/bw/001.png","","","natural"
"","","","","","animation","343","2607063","0.0-343.0","1920x1080","","4396","28","img/314/2.5/1/bw/001.png","","","natural"
"","","","","","animation","344","2609833","0.0-344.0","1920x1080","","2769.4000000003725","41.27","img/117/4/2/bw/001.png","","","natural"
"","","","","","animation","345","2612315","0.0-345.0","1920x1080","","2478.0999999996275","26.06","img/314/4.5/0.5/bw/001.png","","","natural"
"","","","","","animation","346","2614341","0.0-346.0","1920x1080","","2024.4000000003725","14.55","img/238/2.5/1.5/bw/001.png","","","natural"
"","","","","","animation","347","2617397","0.0-347.0","1920x1080","","3054.800000000745","82.94","img/238/5.5/1.5/bw/001.png","","","natural"
"","","","","","animation","348","2619947","0.0-348.0","1920x1080","","2548.39999999851","70.90","img/238/5.5/0.5/bw/001.png","","","natural"
"","","","","","animation","349","2622267","0.0-349.0","1920x1080","","2318.300000000745","42.20","img/117/2.5/2/bw/001.png","","","natural"
"","","","","","animation","350","2625101","0.0-350.0","1920x1080","","2833","38","img/117/3.5/2/bw/001.png","","","natural"
"","","","","","animation","351","2627914","0.0-351.0","1920x1080","","2811.7999999988824","12","img/238/4/0.5/bw/001.png","","","natural"
"","","","","","animation","352","2631897","0.0-352.0","1920x1080","","3982","61.90","img/238/4/2/bw/001.png","","","natural"
"","","","","","animation","353","2634819","0.0-353.0","1920x1080","","2920","80.16","img/238/5.5/0.66667/bw/001.png","","","natural"
"","","","","","animation","354","2636987","0.0-354.0","1920x1080","","2166.4000000003725","86.51","img/314/5.5/1.5/bw/001.png","","","natural"
"","","","","","animation","355","2639282","0.0-355.0","1920x1080","","2293.7999999988824","60.19","img/117/3.5/1.5/bw/001.png","","","natural"
"","","","","","animation","356","2643383","0.0-356.0","1920x1080","","4099.0999999996275","70.90","img/117/5.5/0.5/bw/001.png","","","natural"
"","","","","","animation","357","2649666","0.0-357.0","1920x1080","","6282.199999999255","43.52","img/238/4/0.66667/bw/001.png","","","natural"
"","","","","","animation","358","2676375","0.0-358.0","1920x1080","","26712.5","33.60","img/314/4/1/bw/001.png","","","natural"
"","","","","","animation","359","2679909","0.0-359.0","1920x1080","","3529","22.75","img/238/4.5/0.5/bw/001.png","","","natural"
"","","","","","animation","360","2682629","0.0-360.0","1920x1080","","2719","92.46","img/314/5.5/0.66667/bw/001.png","","","natural"
"","","","","","animation","361","2685460","0.0-361.0","1920x1080","","2829.199999999255","7.14","img/117/2.5/0.5/bw/001.png","","","natural"
"","","","","","animation","362","2687545","0.0-362.0","1920x1080","","2083","79","img/117/5.5/0.66667/bw/001.png","","","natural"
"","","","","","animation","363","2691391","0.0-363.0","1920x1080","","3845","67","img/314/4.5/1/bw/001.png","","","natural"
"","","","","","animation","364","2694708","0.0-364.0","1920x1080","","3315.0999999996275","82.41","img/238/4.5/2/bw/001.png","","","natural"
"","","","","","animation","365","2698109","0.0-365.0","1920x1080","","3399.39999999851","48.28","img/314/4/1.5/bw/001.png","","","natural"
"","","","","","animation","366","2709875","0.0-366.0","1920x1080","","11764.800000000745","56.75","img/117/4.5/0.66667/bw/001.png","","","natural"
"","","","","","animation","367","2714344","0.0-367.0","1920x1080","","4465.299999998882","28","img/314/4/0.5/bw/001.png","","","natural"
"","","","","","animation","368","2717415","0.0-368.0","1920x1080","","3069.5","21.43","img/238/3.5/1/bw/001.png","","","natural"
"","","","","","animation","369","2749847","0.0-369.0","1920x1080","","32428.199999999255","31.75","img/117/3.5/1/bw/001.png","","","natural"
"","","","","","animation","370","2752653","0.0-370.0","1920x1080","","2804.5999999996275","44.44","img/314/3.5/2/bw/001.png","","","natural"
"","","","","","animation","371","2755280","0.0-371.0","1920x1080","","2626","60.71","img/238/4.5/1.5/bw/001.png","","","natural"
"","","","","","animation","372","2758327","0.0-372.0","1920x1080","","3044.5","48.28","img/314/2.5/2/bw/001.png","","","natural"
"","","","","","animation","373","2760932","0.0-373.0","1920x1080","","2604","76.32","img/238/5.5/1/bw/001.png","","","natural"
"","","","","","animation","374","2765828","0.0-374.0","1920x1080","","4894.800000000745","36","img/238/4/1/bw/001.png","","","natural"
"","","","","","animation","375","2769577","0.0-375.0","1920x1080","","3746.800000000745","88.10","img/314/5.5/0.5/bw/001.png","","","natural"
"","","","","","animation","376","2773393","0.0-376.0","1920x1080","","3814.5999999996275","71.96","img/117/4.5/1.5/bw/001.png","","","natural"
"","","","","","animation","377","2775924","0.0-377.0","1920x1080","","2529.199999999255","19.97","img/117/2.5/0.66667/bw/001.png","","","natural"
"","","","","","animation","378","2778343","0.0-378.0","1920x1080","","2417.199999999255","58.07","img/117/4.5/2/bw/001.png","","","natural"
"","","","","","animation","379","2782192","0.0-379.0","1920x1080","","3848.300000000745","43.65","img/238/3.5/2/bw/001.png","","","natural"
"","","","","","animation","380","2785160","0.0-380.0","1920x1080","","2965.5999999996275","28.70","img/314/4/0.66667/bw/001.png","","","natural"
"","","","","","animation","381","2787247","0.0-381.0","1920x1080","","2084.4000000003725","39.42","img/314/4/2/bw/001.png","","","natural"
"","","","","","animation","382","2790093","0.0-382.0","1920x1080","","2844.2999999988824","18.52","img/238/3.5/0.66667/bw/001.png","","","natural"
"","","","","","animation","383","2792517","0.0-383.0","1920x1080","","2407.800000000745","26.59","img/117/4/0.66667/bw/001.png","","","natural"
"","","","","","animation","384","2797108","0.0-384.0","1920x1080","","4588.9000000003725","65.08","img/314/2.5/1.5/bw/001.png","","","natural"
"","","","","","animation","385","2799776","0.0-385.0","1920x1080","","2667","27.65","img/117/4/0.5/bw/001.png","","","natural"
"","","","","","animation","386","2804341","0.0-386.0","1920x1080","","4561.300000000745","63.76","img/117/4/1.5/bw/001.png","","","natural"
"","","","","","animation","387","2807374","0.0-387.0","1920x1080","","3032","59.79","img/314/3.5/1.5/bw/001.png","","","natural"
"","","","","","animation","388","2809729","0.0-388.0","1920x1080","","2353.7000000011176","3.70","img/314/2.5/0.5/bw/001.png","","","natural"
"","","","","","animation","389","2813858","0.0-389.0","1920x1080","","4126.9000000003725","5.42","img/117/2.5/1/bw/001.png","","","natural"
"","","","","","html-button-response","390","2827526","0.0-390.0","1920x1080","","13666.200000001118","","<strong>Study Debriefing</strong><br><p class=""debrief""><strong>Background:</strong> The patterns you rated are called <em>fractals</em>. The term fractal describes a class of irregular curves or shapes for which any suitably chosen part is similar in shape to a given larger or smaller part when magnified or reduced to the same size. Fractal properties are found throughout the natural and manmade world. The series of animations you saw today displayed animated fractal patterns of a varying complexity.</p><p class=""debrief""><strong>Purpose of this study:</strong> We hope to better understand how the perception of static fractals differs from the perception of animated fractals, and how the speed of the animated patterns influences people&apos;s perception of them. Fractals allow us to study the perception of aesthetic properties (e.g. the perceived level of beauty in an image) without using recognizable content, which makes them an excellent tool for studying abstract aesthetic judgement.</p><p class=""debrief""><strong>Your part:</strong> Your participation has helped us to further understand how humans perceive these patterns across different levels of speed and complexity. This research with allow us to better understand how the visual system and brain process our ever-changing visual environments.<p class=""debrief""><strong>Feedback and Further information:</strong> If you have additional questions about this study, please feel free to ask the researcher, Nathan Gonzales-Hess at nhess @ uoregon.edu. If you have any questions concerning your rights as a research participant, please contact Research Compliance Services, 5237 University of Oregon, Eugene, OR 97403, 541-346-2510, or email researchCompliance @ uoregon.edu. You can also email the Human Subjects Coordinator for psychology and linguistics research at hscoord @ uoregon.edu. ","0","",""
"","","","","","html-button-response","391","2829015","0.0-391.0","1920x1080","","1485.199999999255","","Thank you for participating in this study. <br>Please click below to finish the experiment and submit your responses.<br><br>","0","",""
"true","","","","","fullscreen","392","2830020","0.0-392.0","1920x1080","12:20 21/10/2022","","","","","",""
