"success","timeout","failed_images","failed_audio","failed_video","trial_type","trial_index","time_elapsed","internal_node_id","resolution","timeStamp","rt","response","stimulus","button_pressed","value","descriptor"
"true","false","[]","[]","[]","preload","0","28001","0.0-0.0","1920x1080","","","","","","",""
"true","false","[]","[]","[]","preload","1","57880","0.0-1.0","1920x1080","","","","","","",""
"true","false","[]","[]","[]","preload","2","80212","0.0-2.0","1920x1080","","","","","","",""
"true","","","","","fullscreen","3","4062314","0.0-3.0","1920x1080","12:58 3/6/2022","","","","","",""
"","","","","","survey-html-form","4","4071414","0.0-4.0","1920x1080","","9096.900000095367","{""age"":""19"",""gender"":""Female""}","","","",""
"","","","","","html-button-response","5","4097285","0.0-5.0","1920x1080","","25870.5","","<div class=""complex"">You are going to see a series of animations.<br><br></div><div class=""complex"">Move the slider to indicate how <strong style=""text-transform:capitalize"">COMPLEX</strong> you find each animation.<br><br></div><div class=""complex"">0 = Least Complex<br></div><div class=""complex"">1 = Most Complex<br><br></div><div class=""complex"">Remember to use the <strong><em>entire range</em></strong> of the slider to make your ratings.<br></div><div class=""complex"">Please <strong><em>take your time</em></strong> and carefully consider each rating you make.<br><br></div><div class=""complex"">The study has five sections and will take about 45 minutes to complete.<br><br></div>","0","",""
"","","","","","call-function","6","4097286","0.0-6.0","1920x1080","","","","","","",""
"","","","","","animation","7","4105677","0.0-7.0","1920x1080","","8388.700000047684","66.01","img/238/3.5/1/bw/001.png","","","complex"
"","","","","","animation","8","4128069","0.0-8.0","1920x1080","","22390.100000023842","29.63","img/238/4/2/bw/001.png","","","complex"
"","","","","","animation","9","4155101","0.0-9.0","1920x1080","","27031.200000047684","24.74","img/238/3.5/1.5/bw/001.png","","","complex"
"","","","","","animation","10","4162677","0.0-10.0","1920x1080","","7575.5","18.78","img/238/4.5/0.5/bw/001.png","","","complex"
"","","","","","animation","11","4168325","0.0-11.0","1920x1080","","5646.700000047684","11.90","img/314/4.5/2/bw/001.png","","","complex"
"","","","","","animation","12","4175053","0.0-12.0","1920x1080","","6726.600000023842","35.05","img/117/3.5/1.5/bw/001.png","","","complex"
"","","","","","animation","13","4178877","0.0-13.0","1920x1080","","3823.2999999523163","16.14","img/314/3.5/2/bw/001.png","","","complex"
"","","","","","animation","14","4187103","0.0-14.0","1920x1080","","8223.099999904633","50.26","img/117/4.5/1.5/bw/001.png","","","complex"
"","","","","","animation","15","4193575","0.0-15.0","1920x1080","","6470.899999976158","69.84","img/238/4/0.66667/bw/001.png","","","complex"
"","","","","","animation","16","4201048","0.0-16.0","1920x1080","","7472.099999904633","100","img/238/2.5/1/bw/001.png","","","complex"
"","","","","","animation","17","4210103","0.0-17.0","1920x1080","","9054.399999976158","20.11","img/117/4/1/bw/001.png","","","complex"
"","","","","","animation","18","4216647","0.0-18.0","1920x1080","","6543.700000047684","0.40","img/238/5.5/2/bw/001.png","","","complex"
"","","","","","animation","19","4220943","0.0-19.0","1920x1080","","4294.899999976158","56.22","img/117/3.5/2/bw/001.png","","","complex"
"","","","","","animation","20","4225119","0.0-20.0","1920x1080","","4175.100000023842","82.94","img/238/4/0.5/bw/001.png","","","complex"
"","","","","","animation","21","4251288","0.0-21.0","1920x1080","","26167.299999952316","9.79","img/238/4.5/1/bw/001.png","","","complex"
"","","","","","animation","22","4255304","0.0-22.0","1920x1080","","4014.8000000715256","1.32","img/238/5.5/1.5/bw/001.png","","","complex"
"","","","","","animation","23","4259288","0.0-23.0","1920x1080","","3983.4000000953674","25.79","img/238/4/1.5/bw/001.png","","","complex"
"","","","","","animation","24","4263513","0.0-24.0","1920x1080","","4223.700000047684","31.48","img/238/4/1/bw/001.png","","","complex"
"","","","","","animation","25","4267553","0.0-25.0","1920x1080","","4039.600000023842","8.99","img/117/5.5/0.66667/bw/001.png","","","complex"
"","","","","","animation","26","4271896","0.0-26.0","1920x1080","","4342.600000023842","97","img/314/2.5/0.5/bw/001.png","","","complex"
"","","","","","animation","27","4275504","0.0-27.0","1920x1080","","3607.100000023842","80.29","img/117/3.5/1/bw/001.png","","","complex"
"","","","","","animation","28","4284585","0.0-28.0","1920x1080","","9080.200000047684","0.13","img/314/5.5/1/bw/001.png","","","complex"
"","","","","","animation","29","4295465","0.0-29.0","1920x1080","","10878.900000095367","64.68","img/314/4/0.5/bw/001.png","","","complex"
"","","","","","animation","30","4309450","0.0-30.0","1920x1080","","13982.900000095367","100","img/314/2.5/2/bw/001.png","","","complex"
"","","","","","animation","31","4313714","0.0-31.0","1920x1080","","4262.700000047684","99","img/117/2.5/0.66667/bw/001.png","","","complex"
"","","","","","animation","32","4317682","0.0-32.0","1920x1080","","3967.600000023842","96","img/238/2.5/2/bw/001.png","","","complex"
"","","","","","animation","33","4322346","0.0-33.0","1920x1080","","4663.200000047684","30.56","img/238/4.5/1.5/bw/001.png","","","complex"
"","","","","","animation","34","4328204","0.0-34.0","1920x1080","","5856.899999976158","2.38","img/314/5.5/1.5/bw/001.png","","","complex"
"","","","","","animation","35","4330762","0.0-35.0","1920x1080","","2557","33.73","img/238/3.5/2/bw/001.png","","","complex"
"","","","","","animation","36","4333658","0.0-36.0","1920x1080","","2895.5","17.59","img/117/5.5/2/bw/001.png","","","complex"
"","","","","","animation","37","4336050","0.0-37.0","1920x1080","","2391.399999976158","25.79","img/117/4.5/1/bw/001.png","","","complex"
"","","","","","animation","38","4363436","0.0-38.0","1920x1080","","27383.5","44.84","img/117/4/2/bw/001.png","","","complex"
"","","","","","animation","39","4373860","0.0-39.0","1920x1080","","10421.899999976158","20.11","img/238/4.5/2/bw/001.png","","","complex"
"","","","","","animation","40","4377836","0.0-40.0","1920x1080","","3975.600000023842","87.57","img/117/3.5/0.5/bw/001.png","","","complex"
"","","","","","animation","41","4380532","0.0-41.0","1920x1080","","2695.3000000715256","95","img/238/2.5/0.66667/bw/001.png","","","complex"
"","","","","","animation","42","4383406","0.0-42.0","1920x1080","","2869.9000000953674","98","img/117/2.5/0.5/bw/001.png","","","complex"
"","","","","","animation","43","4387844","0.0-43.0","1920x1080","","4437.700000047684","82.67","img/314/4/0.66667/bw/001.png","","","complex"
"","","","","","animation","44","4390340","0.0-44.0","1920x1080","","2494.7000000476837","94","img/117/2.5/2/bw/001.png","","","complex"
"","","","","","animation","45","4393468","0.0-45.0","1920x1080","","3127.899999976158","9.26","img/117/5.5/1.5/bw/001.png","","","complex"
"","","","","","animation","46","4404300","0.0-46.0","1920x1080","","10831.099999904633","19.71","img/314/4.5/1/bw/001.png","","","complex"
"","","","","","animation","47","4410806","0.0-47.0","1920x1080","","6504.699999928474","79.76","img/314/3.5/1/bw/001.png","","","complex"
"","","","","","animation","48","4415341","0.0-48.0","1920x1080","","4533.5","37.83","img/238/4.5/0.66667/bw/001.png","","","complex"
"","","","","","animation","49","4417708","0.0-49.0","1920x1080","","2366.399999976158","66.80","img/314/3.5/0.66667/bw/001.png","","","complex"
"","","","","","animation","50","4420349","0.0-50.0","1920x1080","","2639.4000000953674","57.14","img/314/4/1.5/bw/001.png","","","complex"
"","","","","","animation","51","4455844","0.0-51.0","1920x1080","","35494.89999997616","80.03","img/238/3.5/0.66667/bw/001.png","","","complex"
"","","","","","animation","52","4458997","0.0-52.0","1920x1080","","3151.2000000476837","24.07","img/314/4.5/0.5/bw/001.png","","","complex"
"","","","","","animation","53","4461237","0.0-53.0","1920x1080","","2239.5","97","img/117/2.5/1/bw/001.png","","","complex"
"","","","","","animation","54","4471444","0.0-54.0","1920x1080","","10206.600000023842","43","img/314/4/2/bw/001.png","","","complex"
"","","","","","animation","55","4479085","0.0-55.0","1920x1080","","7639.200000047684","2","img/238/5.5/1/bw/001.png","","","complex"
"","","","","","animation","56","4482374","0.0-56.0","1920x1080","","3288.2999999523163","90.74","img/314/2.5/0.66667/bw/001.png","","","complex"
"","","","","","animation","57","4485024","0.0-57.0","1920x1080","","2648.100000023842","91.93","img/238/3.5/0.5/bw/001.png","","","complex"
"","","","","","animation","58","4487781","0.0-58.0","1920x1080","","2756.100000023842","19.05","img/238/5.5/0.5/bw/001.png","","","complex"
"","","","","","animation","59","4494581","0.0-59.0","1920x1080","","6799.399999976158","76.98","img/314/3.5/1.5/bw/001.png","","","complex"
"","","","","","animation","60","4498774","0.0-60.0","1920x1080","","4192.100000023842","83.20","img/314/3.5/0.5/bw/001.png","","","complex"
"","","","","","animation","61","4503101","0.0-61.0","1920x1080","","4326.199999928474","62.17","img/117/4.5/2/bw/001.png","","","complex"
"","","","","","animation","62","4506573","0.0-62.0","1920x1080","","3471","74.60","img/117/4/0.66667/bw/001.png","","","complex"
"","","","","","animation","63","4515293","0.0-63.0","1920x1080","","8718.699999928474","45","img/314/4.5/0.66667/bw/001.png","","","complex"
"","","","","","animation","64","4528775","0.0-64.0","1920x1080","","13481.299999952316","49.74","img/117/4.5/0.66667/bw/001.png","","","complex"
"","","","","","animation","65","4533877","0.0-65.0","1920x1080","","5101.299999952316","20","img/314/5.5/0.66667/bw/001.png","","","complex"
"","","","","","animation","66","4537909","0.0-66.0","1920x1080","","4031","79.50","img/314/2.5/1.5/bw/001.png","","","complex"
"","","","","","animation","67","4549646","0.0-67.0","1920x1080","","11735.200000047684","76.19","img/117/4/1.5/bw/001.png","","","complex"
"","","","","","animation","68","4554078","0.0-68.0","1920x1080","","4431","16.80","img/238/5.5/0.66667/bw/001.png","","","complex"
"","","","","","animation","69","4559518","0.0-69.0","1920x1080","","5439.399999976158","54.37","img/314/4/1/bw/001.png","","","complex"
"","","","","","animation","70","4563134","0.0-70.0","1920x1080","","3614.9000000953674","63.89","img/117/3.5/0.66667/bw/001.png","","","complex"
"","","","","","animation","71","4566462","0.0-71.0","1920x1080","","3326.2999999523163","69.31","img/117/4/0.5/bw/001.png","","","complex"
"","","","","","animation","72","4569766","0.0-72.0","1920x1080","","3303.5","83.99","img/238/2.5/0.5/bw/001.png","","","complex"
"","","","","","animation","73","4575376","0.0-73.0","1920x1080","","5609","14.55","img/117/5.5/0.5/bw/001.png","","","complex"
"","","","","","animation","74","4577798","0.0-74.0","1920x1080","","2420.7000000476837","89.68","img/314/2.5/1/bw/001.png","","","complex"
"","","","","","animation","75","4580998","0.0-75.0","1920x1080","","3199.1999999284744","91.80","img/238/2.5/1.5/bw/001.png","","","complex"
"","","","","","animation","76","4588334","0.0-76.0","1920x1080","","7335.299999952316","46.96","img/314/4.5/1.5/bw/001.png","","","complex"
"","","","","","animation","77","4591470","0.0-77.0","1920x1080","","3134.7999999523163","7.54","img/314/5.5/2/bw/001.png","","","complex"
"","","","","","animation","78","4594334","0.0-78.0","1920x1080","","2863.0999999046326","74.87","img/117/2.5/1.5/bw/001.png","","","complex"
"","","","","","animation","79","4597534","0.0-79.0","1920x1080","","3199.1999999284744","21","img/117/5.5/1/bw/001.png","","","complex"
"","","","","","animation","80","4606615","0.0-80.0","1920x1080","","9079","26.32","img/314/5.5/0.5/bw/001.png","","","complex"
"","","","","","animation","81","4608831","0.0-81.0","1920x1080","","2214.899999976158","41.93","img/117/4.5/0.5/bw/001.png","","","complex"
"","","","","","html-button-response","82","4628584","0.0-82.0","1920x1080","","19751.299999952316","","<div class=""intro"">You are about to view a new series of animations.<br><br></div><div class=""intro"">You will evaluate them based on a different descriptor.<br><br></div><div class=""intro"">Move the slider to indicate how <strong style=""text-transform:capitalize"">APPEALING</strong> you find each animation.<br><br></div><div class=""intro"">0 = Least Appealing<br></div><div class=""intro"">1 = Most Appealing<br><br></div><div class=""intro"">Remember to use the <strong><em>entire range</em></strong> of the slider to make your ratings.<br></div><div class=""intro"">Please <strong><em>take your time</em></strong> and carefully consider each rating you make.<br><br></div>","0","",""
"","","","","","call-function","83","4628584","0.0-83.0","1920x1080","","","","","","",""
"","","","","","animation","84","4635343","0.0-84.0","1920x1080","","6758.5","83.20","img/238/5.5/1.5/bw/001.png","","","appealing"
"","","","","","animation","85","4638375","0.0-85.0","1920x1080","","3030.3000000715256","26.98","img/314/4/2/bw/001.png","","","appealing"
"","","","","","animation","86","4641135","0.0-86.0","1920x1080","","2758.6999999284744","73.54","img/314/5.5/1.5/bw/001.png","","","appealing"
"","","","","","animation","87","4644927","0.0-87.0","1920x1080","","3790.6999999284744","15.21","img/238/3.5/1/bw/001.png","","","appealing"
"","","","","","animation","88","4648935","0.0-88.0","1920x1080","","4006.0999999046326","12.43","img/314/2.5/1.5/bw/001.png","","","appealing"
"","","","","","animation","89","4651878","0.0-89.0","1920x1080","","2943","66.80","img/314/4.5/1.5/bw/001.png","","","appealing"
"","","","","","animation","90","4654658","0.0-90.0","1920x1080","","2779","4.76","img/117/2.5/2/bw/001.png","","","appealing"
"","","","","","animation","91","4657055","0.0-91.0","1920x1080","","2395.399999976158","11.11","img/117/3.5/2/bw/001.png","","","appealing"
"","","","","","animation","92","4659736","0.0-92.0","1920x1080","","2679.2999999523163","15.74","img/314/3.5/1.5/bw/001.png","","","appealing"
"","","","","","animation","93","4663095","0.0-93.0","1920x1080","","3358.5","17.86","img/238/3.5/2/bw/001.png","","","appealing"
"","","","","","animation","94","4670327","0.0-94.0","1920x1080","","7231.299999952316","25.26","img/238/4/0.66667/bw/001.png","","","appealing"
"","","","","","animation","95","4677144","0.0-95.0","1920x1080","","6815.799999952316","9.52","img/238/2.5/1/bw/001.png","","","appealing"
"","","","","","animation","96","4696010","0.0-96.0","1920x1080","","18865.200000047684","7.54","img/117/2.5/0.5/bw/001.png","","","appealing"
"","","","","","animation","97","4702393","0.0-97.0","1920x1080","","6381.699999928474","74.87","img/117/5.5/0.66667/bw/001.png","","","appealing"
"","","","","","animation","98","4706343","0.0-98.0","1920x1080","","3949.399999976158","64.68","img/238/4.5/2/bw/001.png","","","appealing"
"","","","","","animation","99","4714460","0.0-99.0","1920x1080","","8116.5","78.44","img/314/5.5/0.5/bw/001.png","","","appealing"
"","","","","","animation","100","4730096","0.0-100.0","1920x1080","","15633.5","6.88","img/238/2.5/0.66667/bw/001.png","","","appealing"
"","","","","","animation","101","4753632","0.0-101.0","1920x1080","","23535.699999928474","22.88","img/238/3.5/0.5/bw/001.png","","","appealing"
"","","","","","animation","102","4758244","0.0-102.0","1920x1080","","4610.599999904633","35.71","img/117/4.5/0.5/bw/001.png","","","appealing"
"","","","","","animation","103","4780800","0.0-103.0","1920x1080","","22555.799999952316","29.37","img/238/3.5/0.66667/bw/001.png","","","appealing"
"","","","","","animation","104","4784752","0.0-104.0","1920x1080","","3950.899999976158","74.21","img/238/5.5/0.66667/bw/001.png","","","appealing"
"","","","","","animation","105","4787344","0.0-105.0","1920x1080","","2590.7000000476837","4.50","img/117/3.5/0.5/bw/001.png","","","appealing"
"","","","","","animation","106","4791296","0.0-106.0","1920x1080","","3951.100000023842","48.28","img/117/4.5/1.5/bw/001.png","","","appealing"
"","","","","","animation","107","4794384","0.0-107.0","1920x1080","","3087.600000023842","7.54","img/238/4/0.5/bw/001.png","","","appealing"
"","","","","","animation","108","4799443","0.0-108.0","1920x1080","","5057.899999976158","27.25","img/117/2.5/1.5/bw/001.png","","","appealing"
"","","","","","animation","109","4804472","0.0-109.0","1920x1080","","5028.100000023842","35.05","img/314/3.5/2/bw/001.png","","","appealing"
"","","","","","animation","110","4814552","0.0-110.0","1920x1080","","10078.799999952316","7.67","img/314/3.5/0.5/bw/001.png","","","appealing"
"","","","","","animation","111","4817260","0.0-111.0","1920x1080","","2706.7999999523163","78.31","img/238/4.5/1.5/bw/001.png","","","appealing"
"","","","","","animation","112","4819264","0.0-112.0","1920x1080","","2003","4.10","img/117/3.5/0.66667/bw/001.png","","","appealing"
"","","","","","animation","113","4821744","0.0-113.0","1920x1080","","2478.899999976158","0.79","img/117/2.5/0.66667/bw/001.png","","","appealing"
"","","","","","animation","114","4824280","0.0-114.0","1920x1080","","2535.5","48.28","img/238/4.5/1/bw/001.png","","","appealing"
"","","","","","animation","115","4827827","0.0-115.0","1920x1080","","3546.3000000715256","55.29","img/314/4.5/1/bw/001.png","","","appealing"
"","","","","","animation","116","4831080","0.0-116.0","1920x1080","","3251.600000023842","82.54","img/314/5.5/1/bw/001.png","","","appealing"
"","","","","","animation","117","4833762","0.0-117.0","1920x1080","","2681.100000023842","86.90","img/238/5.5/1/bw/001.png","","","appealing"
"","","","","","animation","118","4836072","0.0-118.0","1920x1080","","2308.899999976158","93.39","img/117/5.5/2/bw/001.png","","","appealing"
"","","","","","animation","119","4838744","0.0-119.0","1920x1080","","2670.7000000476837","6.08","img/117/2.5/1/bw/001.png","","","appealing"
"","","","","","animation","120","4841416","0.0-120.0","1920x1080","","2671.600000023842","1.59","img/238/2.5/0.5/bw/001.png","","","appealing"
"","","","","","animation","121","4844336","0.0-121.0","1920x1080","","2918.899999976158","3.84","img/314/2.5/0.66667/bw/001.png","","","appealing"
"","","","","","animation","122","4852968","0.0-122.0","1920x1080","","8630.799999952316","2.78","img/314/2.5/1/bw/001.png","","","appealing"
"","","","","","animation","123","4855496","0.0-123.0","1920x1080","","2526.600000023842","13","img/117/3.5/1.5/bw/001.png","","","appealing"
"","","","","","animation","124","4857496","0.0-124.0","1920x1080","","1999","26.32","img/117/4/2/bw/001.png","","","appealing"
"","","","","","animation","125","4859784","0.0-125.0","1920x1080","","2287.5","0.40","img/314/2.5/0.5/bw/001.png","","","appealing"
"","","","","","animation","126","4863477","0.0-126.0","1920x1080","","3692.2000000476837","3.84","img/314/3.5/1/bw/001.png","","","appealing"
"","","","","","animation","127","4866460","0.0-127.0","1920x1080","","2981.5","1.19","img/314/2.5/2/bw/001.png","","","appealing"
"","","","","","animation","128","4868760","0.0-128.0","1920x1080","","2298.7999999523163","28.31","img/314/3.5/0.66667/bw/001.png","","","appealing"
"","","","","","animation","129","4871961","0.0-129.0","1920x1080","","3200.4000000953674","73.02","img/117/5.5/1/bw/001.png","","","appealing"
"","","","","","animation","130","4875696","0.0-130.0","1920x1080","","3733.4000000953674","4.50","img/238/2.5/2/bw/001.png","","","appealing"
"","","","","","animation","131","4888888","0.0-131.0","1920x1080","","13191.600000023842","41.67","img/117/4/1/bw/001.png","","","appealing"
"","","","","","animation","132","4892336","0.0-132.0","1920x1080","","3446.600000023842","42.06","img/117/3.5/1/bw/001.png","","","appealing"
"","","","","","animation","133","4895280","0.0-133.0","1920x1080","","2942.9000000953674","61.38","img/117/4/1.5/bw/001.png","","","appealing"
"","","","","","animation","134","4897712","0.0-134.0","1920x1080","","2431","34.52","img/117/4/0.66667/bw/001.png","","","appealing"
"","","","","","animation","135","4900937","0.0-135.0","1920x1080","","3223.5","50.40","img/238/4/1.5/bw/001.png","","","appealing"
"","","","","","animation","136","4905337","0.0-136.0","1920x1080","","4399","81.35","img/238/5.5/2/bw/001.png","","","appealing"
"","","","","","animation","137","4911113","0.0-137.0","1920x1080","","5774.600000023842","70.37","img/314/5.5/0.66667/bw/001.png","","","appealing"
"","","","","","animation","138","4928796","0.0-138.0","1920x1080","","17681.899999976158","71.69","img/238/5.5/0.5/bw/001.png","","","appealing"
"","","","","","animation","139","4941595","0.0-139.0","1920x1080","","12797.600000023842","52","img/117/4.5/2/bw/001.png","","","appealing"
"","","","","","animation","140","4946145","0.0-140.0","1920x1080","","4549.100000023842","38","img/238/3.5/1.5/bw/001.png","","","appealing"
"","","","","","animation","141","4948905","0.0-141.0","1920x1080","","2759.5","61.77","img/117/5.5/0.5/bw/001.png","","","appealing"
"","","","","","animation","142","4951849","0.0-142.0","1920x1080","","2942.8000000715256","43.65","img/238/4/2/bw/001.png","","","appealing"
"","","","","","animation","143","4957265","0.0-143.0","1920x1080","","5415.300000071526","41.27","img/117/4.5/1/bw/001.png","","","appealing"
"","","","","","animation","144","4961030","0.0-144.0","1920x1080","","3763.2999999523163","63.10","img/314/5.5/2/bw/001.png","","","appealing"
"","","","","","animation","145","4964297","0.0-145.0","1920x1080","","3266.2999999523163","28.04","img/117/4/0.5/bw/001.png","","","appealing"
"","","","","","animation","146","4969412","0.0-146.0","1920x1080","","5113.5","83.07","img/117/5.5/1.5/bw/001.png","","","appealing"
"","","","","","animation","147","4974402","0.0-147.0","1920x1080","","4989.100000023842","14.15","img/314/4/1/bw/001.png","","","appealing"
"","","","","","animation","148","4977986","0.0-148.0","1920x1080","","3582.9000000953674","29.23","img/238/4.5/0.5/bw/001.png","","","appealing"
"","","","","","animation","149","4981602","0.0-149.0","1920x1080","","3615","47.75","img/238/4/1/bw/001.png","","","appealing"
"","","","","","animation","150","4984370","0.0-150.0","1920x1080","","2766.9000000953674","50.26","img/314/4/1.5/bw/001.png","","","appealing"
"","","","","","animation","151","4986478","0.0-151.0","1920x1080","","2106.100000023842","35.71","img/314/4.5/0.5/bw/001.png","","","appealing"
"","","","","","animation","152","4992113","0.0-152.0","1920x1080","","5631.800000071526","38.76","img/314/4.5/0.66667/bw/001.png","","","appealing"
"","","","","","animation","153","4996466","0.0-153.0","1920x1080","","4351.300000071526","48.02","img/314/4.5/2/bw/001.png","","","appealing"
"","","","","","animation","154","5003306","0.0-154.0","1920x1080","","6838.399999976158","45.37","img/117/4.5/0.66667/bw/001.png","","","appealing"
"","","","","","animation","155","5007402","0.0-155.0","1920x1080","","4094.7000000476837","29.50","img/314/4/0.5/bw/001.png","","","appealing"
"","","","","","animation","156","5025645","0.0-156.0","1920x1080","","18243","40.34","img/238/4.5/0.66667/bw/001.png","","","appealing"
"","","","","","animation","157","5028521","0.0-157.0","1920x1080","","2874.899999976158","16.80","img/238/2.5/1.5/bw/001.png","","","appealing"
"","","","","","animation","158","5031745","0.0-158.0","1920x1080","","3222.899999976158","22.62","img/314/4/0.66667/bw/001.png","","","appealing"
"","","","","","html-button-response","159","5052138","0.0-159.0","1920x1080","","20391.600000023842","","<div class=""intro"">You are about to view a new series of animations.<br><br></div><div class=""intro"">You will evaluate them based on a different descriptor.<br><br></div><div class=""intro"">Move the slider to indicate how <strong style=""text-transform:capitalize"">INTERESTING</strong> you find each animation.<br><br></div><div class=""intro"">0 = Least Interesting<br></div><div class=""intro"">1 = Most Interesting<br><br></div><div class=""intro"">Remember to use the <strong><em>entire range</em></strong> of the slider to make your ratings.<br></div><div class=""intro"">Please <strong><em>take your time</em></strong> and carefully consider each rating you make.<br><br></div>","0","",""
"","","","","","call-function","160","5052139","0.0-160.0","1920x1080","","","","","","",""
"","","","","","animation","161","5058862","0.0-161.0","1920x1080","","6721.5","49.87","img/238/3.5/0.66667/bw/001.png","","","interesting"
"","","","","","animation","162","5062329","0.0-162.0","1920x1080","","3466.6999999284744","39","img/238/4.5/0.66667/bw/001.png","","","interesting"
"","","","","","animation","163","5065113","0.0-163.0","1920x1080","","2783.1999999284744","67.59","img/117/4/0.5/bw/001.png","","","interesting"
"","","","","","animation","164","5068595","0.0-164.0","1920x1080","","3481.2000000476837","31.48","img/238/4.5/2/bw/001.png","","","interesting"
"","","","","","animation","165","5072081","0.0-165.0","1920x1080","","3484.6999999284744","58.60","img/314/4/2/bw/001.png","","","interesting"
"","","","","","animation","166","5074679","0.0-166.0","1920x1080","","2596.9000000953674","70.37","img/117/3.5/1.5/bw/001.png","","","interesting"
"","","","","","animation","167","5077212","0.0-167.0","1920x1080","","2532.1999999284744","13.23","img/117/2.5/0.66667/bw/001.png","","","interesting"
"","","","","","animation","168","5080078","0.0-168.0","1920x1080","","2865.600000023842","9.92","img/314/2.5/0.66667/bw/001.png","","","interesting"
"","","","","","animation","169","5082801","0.0-169.0","1920x1080","","2721.9000000953674","18.12","img/314/3.5/1/bw/001.png","","","interesting"
"","","","","","animation","170","5084721","0.0-170.0","1920x1080","","1919","6.88","img/238/2.5/0.5/bw/001.png","","","interesting"
"","","","","","animation","171","5087561","0.0-171.0","1920x1080","","2839.3000000715256","65.48","img/238/4.5/0.5/bw/001.png","","","interesting"
"","","","","","animation","172","5096228","0.0-172.0","1920x1080","","8666.200000047684","90.48","img/117/5.5/0.66667/bw/001.png","","","interesting"
"","","","","","animation","173","5103985","0.0-173.0","1920x1080","","7755.5","65.74","img/314/4/0.66667/bw/001.png","","","interesting"
"","","","","","animation","174","5107385","0.0-174.0","1920x1080","","3398.600000023842","65.08","img/117/4/0.66667/bw/001.png","","","interesting"
"","","","","","animation","175","5117569","0.0-175.0","1920x1080","","10183","49.87","img/117/3.5/1/bw/001.png","","","interesting"
"","","","","","animation","176","5120385","0.0-176.0","1920x1080","","2815","67.06","img/238/5.5/0.5/bw/001.png","","","interesting"
"","","","","","animation","177","5122785","0.0-177.0","1920x1080","","2398.6999999284744","86.90","img/117/4/1.5/bw/001.png","","","interesting"
"","","","","","animation","178","5128553","0.0-178.0","1920x1080","","5767","86.64","img/117/5.5/2/bw/001.png","","","interesting"
"","","","","","animation","179","5137562","0.0-179.0","1920x1080","","9007.5","79.10","img/314/3.5/0.66667/bw/001.png","","","interesting"
"","","","","","animation","180","5139922","0.0-180.0","1920x1080","","2358.5999999046326","86.90","img/117/3.5/2/bw/001.png","","","interesting"
"","","","","","animation","181","5142645","0.0-181.0","1920x1080","","2722.600000023842","74.47","img/117/5.5/1/bw/001.png","","","interesting"
"","","","","","animation","182","5144986","0.0-182.0","1920x1080","","2339.2999999523163","17.59","img/314/2.5/1.5/bw/001.png","","","interesting"
"","","","","","animation","183","5147729","0.0-183.0","1920x1080","","2742.2999999523163","11.51","img/117/2.5/2/bw/001.png","","","interesting"
"","","","","","animation","184","5151029","0.0-184.0","1920x1080","","3298.2000000476837","20.77","img/117/4/1/bw/001.png","","","interesting"
"","","","","","animation","185","5153446","0.0-185.0","1920x1080","","2416.1999999284744","10.98","img/117/2.5/0.5/bw/001.png","","","interesting"
"","","","","","animation","186","5156049","0.0-186.0","1920x1080","","2602.7999999523163","9.39","img/117/3.5/0.5/bw/001.png","","","interesting"
"","","","","","animation","187","5158479","0.0-187.0","1920x1080","","2428.600000023842","63.76","img/314/3.5/2/bw/001.png","","","interesting"
"","","","","","animation","188","5161049","0.0-188.0","1920x1080","","2569.399999976158","46.56","img/314/4.5/2/bw/001.png","","","interesting"
"","","","","","animation","189","5165650","0.0-189.0","1920x1080","","4599.399999976158","22.62","img/117/4.5/1.5/bw/001.png","","","interesting"
"","","","","","animation","190","5169263","0.0-190.0","1920x1080","","3612","12.43","img/314/3.5/0.5/bw/001.png","","","interesting"
"","","","","","animation","191","5172012","0.0-191.0","1920x1080","","2748.7000000476837","58.60","img/238/5.5/0.66667/bw/001.png","","","interesting"
"","","","","","animation","192","5176796","0.0-192.0","1920x1080","","4782.199999928474","7.14","img/238/2.5/0.66667/bw/001.png","","","interesting"
"","","","","","animation","193","5194913","0.0-193.0","1920x1080","","18116.5","20.77","img/117/2.5/1.5/bw/001.png","","","interesting"
"","","","","","animation","194","5197770","0.0-194.0","1920x1080","","2855.399999976158","19.18","img/238/3.5/1/bw/001.png","","","interesting"
"","","","","","animation","195","5201260","0.0-195.0","1920x1080","","3491.7000000476837","58.07","img/314/4/1.5/bw/001.png","","","interesting"
"","","","","","animation","196","5204343","0.0-196.0","1920x1080","","3082.5","7.14","img/314/2.5/0.5/bw/001.png","","","interesting"
"","","","","","animation","197","5210244","0.0-197.0","1920x1080","","5898.799999952316","9.66","img/238/3.5/1.5/bw/001.png","","","interesting"
"","","","","","animation","198","5216036","0.0-198.0","1920x1080","","5791.100000023842","56.88","img/117/4.5/1/bw/001.png","","","interesting"
"","","","","","animation","199","5228110","0.0-199.0","1920x1080","","12040.300000071526","60.45","img/238/4.5/1.5/bw/001.png","","","interesting"
"","","","","","animation","200","5233160","0.0-200.0","1920x1080","","5048.600000023842","49.87","img/314/4.5/1.5/bw/001.png","","","interesting"
"","","","","","animation","201","5237343","0.0-201.0","1920x1080","","4182","30.03","img/238/4/0.5/bw/001.png","","","interesting"
"","","","","","animation","202","5240295","0.0-202.0","1920x1080","","2950.600000023842","90.61","img/314/5.5/2/bw/001.png","","","interesting"
"","","","","","animation","203","5250327","0.0-203.0","1920x1080","","10030.600000023842","33.99","img/238/3.5/0.5/bw/001.png","","","interesting"
"","","","","","animation","204","5252910","0.0-204.0","1920x1080","","2582.2000000476837","69.31","img/117/5.5/0.5/bw/001.png","","","interesting"
"","","","","","animation","205","5255136","0.0-205.0","1920x1080","","2224.2999999523163","9.26","img/238/2.5/1.5/bw/001.png","","","interesting"
"","","","","","animation","206","5257479","0.0-206.0","1920x1080","","2342.5","7.01","img/117/2.5/1/bw/001.png","","","interesting"
"","","","","","animation","207","5259660","0.0-207.0","1920x1080","","2180.2000000476837","19.44","img/238/3.5/2/bw/001.png","","","interesting"
"","","","","","animation","208","5262367","0.0-208.0","1920x1080","","2706.399999976158","14.95","img/314/4.5/0.5/bw/001.png","","","interesting"
"","","","","","animation","209","5264447","0.0-209.0","1920x1080","","2079","13.36","img/314/4/0.5/bw/001.png","","","interesting"
"","","","","","animation","210","5267735","0.0-210.0","1920x1080","","3286.9000000953674","68.65","img/238/5.5/1.5/bw/001.png","","","interesting"
"","","","","","animation","211","5270767","0.0-211.0","1920x1080","","3031.2999999523163","78.84","img/314/4.5/0.66667/bw/001.png","","","interesting"
"","","","","","animation","212","5272943","0.0-212.0","1920x1080","","2173.2000000476837","69.84","img/314/5.5/1.5/bw/001.png","","","interesting"
"","","","","","animation","213","5275193","0.0-213.0","1920x1080","","2249.100000023842","7.94","img/238/2.5/2/bw/001.png","","","interesting"
"","","","","","animation","214","5277359","0.0-214.0","1920x1080","","2165.5","66.40","img/117/5.5/1.5/bw/001.png","","","interesting"
"","","","","","animation","215","5281677","0.0-215.0","1920x1080","","4316.600000023842","51","img/314/4.5/1/bw/001.png","","","interesting"
"","","","","","animation","216","5284215","0.0-216.0","1920x1080","","2535.100000023842","12.17","img/238/2.5/1/bw/001.png","","","interesting"
"","","","","","animation","217","5289793","0.0-217.0","1920x1080","","5577.100000023842","88.49","img/314/5.5/0.66667/bw/001.png","","","interesting"
"","","","","","animation","218","5294766","0.0-218.0","1920x1080","","4972","87.70","img/238/5.5/1/bw/001.png","","","interesting"
"","","","","","animation","219","5297294","0.0-219.0","1920x1080","","2526.2000000476837","11.77","img/314/2.5/2/bw/001.png","","","interesting"
"","","","","","animation","220","5304427","0.0-220.0","1920x1080","","7131.100000023842","26","img/117/3.5/0.66667/bw/001.png","","","interesting"
"","","","","","animation","221","5307367","0.0-221.0","1920x1080","","2939","18.25","img/117/4/2/bw/001.png","","","interesting"
"","","","","","animation","222","5310777","0.0-222.0","1920x1080","","3408.4000000953674","57.67","img/314/5.5/0.5/bw/001.png","","","interesting"
"","","","","","animation","223","5313477","0.0-223.0","1920x1080","","2698.8000000715256","67.86","img/238/4/2/bw/001.png","","","interesting"
"","","","","","animation","224","5316243","0.0-224.0","1920x1080","","2765.600000023842","54.89","img/238/4/0.66667/bw/001.png","","","interesting"
"","","","","","animation","225","5321225","0.0-225.0","1920x1080","","4982.5","79.10","img/238/5.5/2/bw/001.png","","","interesting"
"","","","","","animation","226","5323525","0.0-226.0","1920x1080","","2298.5","83.47","img/238/4/1.5/bw/001.png","","","interesting"
"","","","","","animation","227","5334549","0.0-227.0","1920x1080","","11023","84.92","img/314/5.5/1/bw/001.png","","","interesting"
"","","","","","animation","228","5338461","0.0-228.0","1920x1080","","3910.2000000476837","20","img/117/4.5/2/bw/001.png","","","interesting"
"","","","","","animation","229","5350458","0.0-229.0","1920x1080","","11996.599999904633","73.68","img/117/4.5/0.66667/bw/001.png","","","interesting"
"","","","","","animation","230","5354008","0.0-230.0","1920x1080","","3548.7999999523163","67.59","img/314/3.5/1.5/bw/001.png","","","interesting"
"","","","","","animation","231","5361441","0.0-231.0","1920x1080","","7432","67.86","img/117/4.5/0.5/bw/001.png","","","interesting"
"","","","","","animation","232","5365808","0.0-232.0","1920x1080","","4366","76.85","img/238/4/1/bw/001.png","","","interesting"
"","","","","","animation","233","5369674","0.0-233.0","1920x1080","","3864.7999999523163","5.56","img/314/2.5/1/bw/001.png","","","interesting"
"","","","","","animation","234","5387491","0.0-234.0","1920x1080","","17817","16.67","img/314/4/1/bw/001.png","","","interesting"
"","","","","","animation","235","5390376","0.0-235.0","1920x1080","","2884.0999999046326","74","img/238/4.5/1/bw/001.png","","","interesting"
"","","","","","html-button-response","236","5449960","0.0-236.0","1920x1080","","59583.89999997616","","<div class=""intro"">You are about to view a new series of animations.<br><br></div><div class=""intro"">You will evaluate them based on a different descriptor.<br><br></div><div class=""intro"">Move the slider to indicate how <strong style=""text-transform:capitalize"">RELAXING</strong> you find each animation.<br><br></div><div class=""intro"">0 = Least Relaxing<br></div><div class=""intro"">1 = Most Relaxing<br><br></div><div class=""intro"">Remember to use the <strong><em>entire range</em></strong> of the slider to make your ratings.<br></div><div class=""intro"">Please <strong><em>take your time</em></strong> and carefully consider each rating you make.<br><br></div>","0","",""
"","","","","","call-function","237","5449965","0.0-237.0","1920x1080","","","","","","",""
"","","","","","animation","238","5511746","0.0-238.0","1920x1080","","61780.10000002384","63.49","img/314/2.5/2/bw/001.png","","","relaxing"
"","","","","","animation","239","5514738","0.0-239.0","1920x1080","","2990.600000023842","53.57","img/117/4.5/0.5/bw/001.png","","","relaxing"
"","","","","","animation","240","5517025","0.0-240.0","1920x1080","","2286.1999999284744","51.59","img/314/4/0.5/bw/001.png","","","relaxing"
"","","","","","animation","241","5519409","0.0-241.0","1920x1080","","2383.3000000715256","64.02","img/314/4/1/bw/001.png","","","relaxing"
"","","","","","animation","242","5522506","0.0-242.0","1920x1080","","3095","60.45","img/314/3.5/1.5/bw/001.png","","","relaxing"
"","","","","","animation","243","5531738","0.0-243.0","1920x1080","","9230.900000095367","57.01","img/238/3.5/1/bw/001.png","","","relaxing"
"","","","","","animation","244","5535324","0.0-244.0","1920x1080","","3585","70.63","img/314/4/2/bw/001.png","","","relaxing"
"","","","","","animation","245","5537426","0.0-245.0","1920x1080","","2101","79.76","img/314/4.5/1.5/bw/001.png","","","relaxing"
"","","","","","animation","246","5540055","0.0-246.0","1920x1080","","2627.7999999523163","6.61","img/117/2.5/1.5/bw/001.png","","","relaxing"
"","","","","","animation","247","5562457","0.0-247.0","1920x1080","","22401.799999952316","57.14","img/314/4/0.66667/bw/001.png","","","relaxing"
"","","","","","animation","248","5567177","0.0-248.0","1920x1080","","4719","83.86","img/238/5.5/0.5/bw/001.png","","","relaxing"
"","","","","","animation","249","5584409","0.0-249.0","1920x1080","","17230.800000071526","74.74","img/238/3.5/2/bw/001.png","","","relaxing"
"","","","","","animation","250","5600273","0.0-250.0","1920x1080","","15862.699999928474","6.61","img/238/2.5/1/bw/001.png","","","relaxing"
"","","","","","animation","251","5606561","0.0-251.0","1920x1080","","6287.200000047684","51.72","img/314/4.5/0.5/bw/001.png","","","relaxing"
"","","","","","animation","252","5609105","0.0-252.0","1920x1080","","2542.899999976158","88.23","img/117/5.5/1.5/bw/001.png","","","relaxing"
"","","","","","animation","253","5611313","0.0-253.0","1920x1080","","2206.8000000715256","5.42","img/117/2.5/0.66667/bw/001.png","","","relaxing"
"","","","","","animation","254","5613145","0.0-254.0","1920x1080","","1830.1999999284744","15.87","img/117/4/1/bw/001.png","","","relaxing"
"","","","","","animation","255","5627194","0.0-255.0","1920x1080","","14048.900000095367","52.51","img/117/4/0.66667/bw/001.png","","","relaxing"
"","","","","","animation","256","5638136","0.0-256.0","1920x1080","","10940.800000071526","5.69","img/314/2.5/1/bw/001.png","","","relaxing"
"","","","","","animation","257","5641986","0.0-257.0","1920x1080","","3848.600000023842","52.25","img/238/4/1/bw/001.png","","","relaxing"
"","","","","","animation","258","5646103","0.0-258.0","1920x1080","","4115.800000071526","63.10","img/117/4.5/1/bw/001.png","","","relaxing"
"","","","","","animation","259","5649392","0.0-259.0","1920x1080","","3287.7999999523163","37.57","img/314/3.5/1/bw/001.png","","","relaxing"
"","","","","","animation","260","5654320","0.0-260.0","1920x1080","","4926.599999904633","55.82","img/117/4/0.5/bw/001.png","","","relaxing"
"","","","","","animation","261","5656888","0.0-261.0","1920x1080","","2566.899999976158","2.25","img/314/2.5/1.5/bw/001.png","","","relaxing"
"","","","","","animation","262","5662053","0.0-262.0","1920x1080","","5164.200000047684","6","img/117/3.5/0.66667/bw/001.png","","","relaxing"
"","","","","","animation","263","5667556","0.0-263.0","1920x1080","","5502","2.51","img/314/3.5/0.5/bw/001.png","","","relaxing"
"","","","","","animation","264","5670845","0.0-264.0","1920x1080","","3288","91.01","img/117/5.5/1/bw/001.png","","","relaxing"
"","","","","","animation","265","5673456","0.0-265.0","1920x1080","","2609.2000000476837","3.44","img/238/3.5/0.66667/bw/001.png","","","relaxing"
"","","","","","animation","266","5676160","0.0-266.0","1920x1080","","2702.5","22.49","img/238/4.5/0.66667/bw/001.png","","","relaxing"
"","","","","","animation","267","5678286","0.0-267.0","1920x1080","","2124.7999999523163","1.59","img/238/2.5/2/bw/001.png","","","relaxing"
"","","","","","animation","268","5684925","0.0-268.0","1920x1080","","6637.799999952316","80.16","img/117/5.5/0.66667/bw/001.png","","","relaxing"
"","","","","","animation","269","5687319","0.0-269.0","1920x1080","","2392.600000023842","2.78","img/238/2.5/1.5/bw/001.png","","","relaxing"
"","","","","","animation","270","5703230","0.0-270.0","1920x1080","","15909.600000023842","91.40","img/314/5.5/2/bw/001.png","","","relaxing"
"","","","","","animation","271","5706823","0.0-271.0","1920x1080","","3592.100000023842","1.72","img/314/2.5/0.5/bw/001.png","","","relaxing"
"","","","","","animation","272","5710353","0.0-272.0","1920x1080","","3527.899999976158","76.98","img/238/5.5/1/bw/001.png","","","relaxing"
"","","","","","animation","273","5714544","0.0-273.0","1920x1080","","4190","5","img/314/3.5/0.66667/bw/001.png","","","relaxing"
"","","","","","animation","274","5726969","0.0-274.0","1920x1080","","12423.700000047684","44.58","img/238/4/0.66667/bw/001.png","","","relaxing"
"","","","","","animation","275","5730002","0.0-275.0","1920x1080","","3031.899999976158","4.50","img/117/2.5/0.5/bw/001.png","","","relaxing"
"","","","","","animation","276","5734625","0.0-276.0","1920x1080","","4621.399999976158","67","img/314/4.5/2/bw/001.png","","","relaxing"
"","","","","","animation","277","5737207","0.0-277.0","1920x1080","","2580.7999999523163","52.51","img/238/3.5/1.5/bw/001.png","","","relaxing"
"","","","","","animation","278","5738975","0.0-278.0","1920x1080","","1767.1000000238419","59.66","img/238/4/1.5/bw/001.png","","","relaxing"
"","","","","","animation","279","5740959","0.0-279.0","1920x1080","","1982.7999999523163","56.48","img/117/3.5/2/bw/001.png","","","relaxing"
"","","","","","animation","280","5743236","0.0-280.0","1920x1080","","2275.0999999046326","77.65","img/238/5.5/2/bw/001.png","","","relaxing"
"","","","","","animation","281","5745160","0.0-281.0","1920x1080","","1922.8000000715256","1.98","img/314/2.5/0.66667/bw/001.png","","","relaxing"
"","","","","","animation","282","5750710","0.0-282.0","1920x1080","","5547.5","51.32","img/117/4/2/bw/001.png","","","relaxing"
"","","","","","animation","283","5753266","0.0-283.0","1920x1080","","2554.899999976158","62.30","img/238/4.5/2/bw/001.png","","","relaxing"
"","","","","","animation","284","5755303","0.0-284.0","1920x1080","","2034.8000000715256","2.51","img/238/2.5/0.5/bw/001.png","","","relaxing"
"","","","","","animation","285","5757536","0.0-285.0","1920x1080","","2231.899999976158","9.79","img/314/4.5/0.66667/bw/001.png","","","relaxing"
"","","","","","animation","286","5761507","0.0-286.0","1920x1080","","3970.2999999523163","77.65","img/238/5.5/0.66667/bw/001.png","","","relaxing"
"","","","","","animation","287","5763904","0.0-287.0","1920x1080","","2395.2000000476837","3.57","img/238/2.5/0.66667/bw/001.png","","","relaxing"
"","","","","","animation","288","5766239","0.0-288.0","1920x1080","","2334.1999999284744","5.03","img/117/3.5/0.5/bw/001.png","","","relaxing"
"","","","","","animation","289","5768976","0.0-289.0","1920x1080","","2734.9000000953674","48.68","img/117/5.5/0.5/bw/001.png","","","relaxing"
"","","","","","animation","290","5771177","0.0-290.0","1920x1080","","2199.8000000715256","56.35","img/238/4.5/1/bw/001.png","","","relaxing"
"","","","","","animation","291","5774853","0.0-291.0","1920x1080","","3675.0999999046326","40.87","img/238/4/0.5/bw/001.png","","","relaxing"
"","","","","","animation","292","5778492","0.0-292.0","1920x1080","","3638.100000023842","46.16","img/117/3.5/1/bw/001.png","","","relaxing"
"","","","","","animation","293","5782619","0.0-293.0","1920x1080","","4125.599999904633","89","img/238/5.5/1.5/bw/001.png","","","relaxing"
"","","","","","animation","294","5784886","0.0-294.0","1920x1080","","2265.5","89.68","img/117/5.5/2/bw/001.png","","","relaxing"
"","","","","","animation","295","5823286","0.0-295.0","1920x1080","","38399.10000002384","69.71","img/314/4.5/1/bw/001.png","","","relaxing"
"","","","","","animation","296","5841991","0.0-296.0","1920x1080","","18703.800000071526","77.38","img/314/5.5/1/bw/001.png","","","relaxing"
"","","","","","animation","297","5845369","0.0-297.0","1920x1080","","3373.5","18.52","img/117/3.5/1.5/bw/001.png","","","relaxing"
"","","","","","animation","298","5847569","0.0-298.0","1920x1080","","2198.399999976158","27.91","img/238/4/2/bw/001.png","","","relaxing"
"","","","","","animation","299","5850955","0.0-299.0","1920x1080","","3384.1999999284744","49.60","img/238/4.5/1.5/bw/001.png","","","relaxing"
"","","","","","animation","300","5855919","0.0-300.0","1920x1080","","4962.899999976158","60.85","img/117/4.5/2/bw/001.png","","","relaxing"
"","","","","","animation","301","5858777","0.0-301.0","1920x1080","","2857.2000000476837","12.43","img/238/3.5/0.5/bw/001.png","","","relaxing"
"","","","","","animation","302","5861026","0.0-302.0","1920x1080","","2247.1999999284744","77","img/314/5.5/0.66667/bw/001.png","","","relaxing"
"","","","","","animation","303","5867635","0.0-303.0","1920x1080","","6608.100000023842","22.62","img/238/4.5/0.5/bw/001.png","","","relaxing"
"","","","","","animation","304","5870641","0.0-304.0","1920x1080","","3004.9000000953674","15.74","img/117/4.5/0.66667/bw/001.png","","","relaxing"
"","","","","","animation","305","5874192","0.0-305.0","1920x1080","","3549.399999976158","72.22","img/117/4/1.5/bw/001.png","","","relaxing"
"","","","","","animation","306","5878094","0.0-306.0","1920x1080","","3900.8000000715256","3.70","img/117/2.5/1/bw/001.png","","","relaxing"
"","","","","","animation","307","5880156","0.0-307.0","1920x1080","","2059.1999999284744","21.69","img/314/3.5/2/bw/001.png","","","relaxing"
"","","","","","animation","308","5882055","0.0-308.0","1920x1080","","1898.2000000476837","62.43","img/314/5.5/0.5/bw/001.png","","","relaxing"
"","","","","","animation","309","5884019","0.0-309.0","1920x1080","","1963.3999999761581","86.64","img/314/5.5/1.5/bw/001.png","","","relaxing"
"","","","","","animation","310","5886777","0.0-310.0","1920x1080","","2756.3000000715256","73.41","img/117/4.5/1.5/bw/001.png","","","relaxing"
"","","","","","animation","311","5888920","0.0-311.0","1920x1080","","2141.399999976158","2.65","img/117/2.5/2/bw/001.png","","","relaxing"
"","","","","","animation","312","5891119","0.0-312.0","1920x1080","","2198","15.87","img/314/4/1.5/bw/001.png","","","relaxing"
"","","","","","html-button-response","313","5922874","0.0-313.0","1920x1080","","31752.799999952316","","<div class=""intro"">You are about to view a new series of animations.<br><br></div><div class=""intro"">You will evaluate them based on a different descriptor.<br><br></div><div class=""intro"">Move the slider to indicate how <strong style=""text-transform:capitalize"">NATURAL</strong> you find each animation.<br><br></div><div class=""intro"">0 = Least Natural<br></div><div class=""intro"">1 = Most Natural<br><br></div><div class=""intro"">Remember to use the <strong><em>entire range</em></strong> of the slider to make your ratings.<br></div><div class=""intro"">Please <strong><em>take your time</em></strong> and carefully consider each rating you make.<br><br></div>","0","",""
"","","","","","call-function","314","5922879","0.0-314.0","1920x1080","","","","","","",""
"","","","","","animation","315","5927624","0.0-315.0","1920x1080","","4743.600000023842","5.82","img/238/3.5/1/bw/001.png","","","natural"
"","","","","","animation","316","5931724","0.0-316.0","1920x1080","","4096.799999952316","1","img/238/4/0.5/bw/001.png","","","natural"
"","","","","","animation","317","5934407","0.0-317.0","1920x1080","","2680.8000000715256","5.03","img/238/4.5/0.66667/bw/001.png","","","natural"
"","","","","","animation","318","5936809","0.0-318.0","1920x1080","","2400.899999976158","63.23","img/314/5.5/1/bw/001.png","","","natural"
"","","","","","animation","319","5939161","0.0-319.0","1920x1080","","2350.3000000715256","0.53","img/117/2.5/1.5/bw/001.png","","","natural"
"","","","","","animation","320","5941102","0.0-320.0","1920x1080","","1940.5","13.10","img/117/4/1.5/bw/001.png","","","natural"
"","","","","","animation","321","5945719","0.0-321.0","1920x1080","","4615.400000095367","3.04","img/238/2.5/2/bw/001.png","","","natural"
"","","","","","animation","322","5951163","0.0-322.0","1920x1080","","5441","61.64","img/314/4.5/1.5/bw/001.png","","","natural"
"","","","","","animation","323","5957893","0.0-323.0","1920x1080","","6728.299999952316","14","img/314/4.5/0.5/bw/001.png","","","natural"
"","","","","","animation","324","5960135","0.0-324.0","1920x1080","","2239.100000023842","0","img/314/2.5/1.5/bw/001.png","","","natural"
"","","","","","animation","325","5962386","0.0-325.0","1920x1080","","2249.100000023842","2.25","img/314/2.5/0.66667/bw/001.png","","","natural"
"","","","","","animation","326","5979523","0.0-326.0","1920x1080","","17135.899999976158","2.38","img/238/2.5/0.5/bw/001.png","","","natural"
"","","","","","animation","327","5981419","0.0-327.0","1920x1080","","1894.7000000476837","1.98","img/117/2.5/0.5/bw/001.png","","","natural"
"","","","","","animation","328","5985560","0.0-328.0","1920x1080","","4140.200000047684","61.11","img/117/4/2/bw/001.png","","","natural"
"","","","","","animation","329","5988084","0.0-329.0","1920x1080","","2522.3000000715256","53.17","img/314/4.5/0.66667/bw/001.png","","","natural"
"","","","","","animation","330","5990569","0.0-330.0","1920x1080","","2483.1999999284744","40.74","img/314/4/0.5/bw/001.png","","","natural"
"","","","","","animation","331","5992992","0.0-331.0","1920x1080","","2422.5","41.14","img/314/4/1/bw/001.png","","","natural"
"","","","","","animation","332","5994591","0.0-332.0","1920x1080","","1597.3999999761581","30.42","img/117/4.5/0.5/bw/001.png","","","natural"
"","","","","","animation","333","5998071","0.0-333.0","1920x1080","","3478.600000023842","61.51","img/238/5.5/0.5/bw/001.png","","","natural"
"","","","","","animation","334","6001076","0.0-334.0","1920x1080","","3003","40.21","img/238/4/1/bw/001.png","","","natural"
"","","","","","animation","335","6015528","0.0-335.0","1920x1080","","14450.599999904633","66.01","img/314/4/2/bw/001.png","","","natural"
"","","","","","animation","336","6018446","0.0-336.0","1920x1080","","2916.600000023842","79.50","img/314/5.5/0.66667/bw/001.png","","","natural"
"","","","","","animation","337","6021023","0.0-337.0","1920x1080","","2573.600000023842","30.95","img/314/3.5/2/bw/001.png","","","natural"
"","","","","","animation","338","6027669","0.0-338.0","1920x1080","","6645.200000047684","21.56","img/314/3.5/0.66667/bw/001.png","","","natural"
"","","","","","animation","339","6033423","0.0-339.0","1920x1080","","5752.200000047684","14.15","img/117/4/1/bw/001.png","","","natural"
"","","","","","animation","340","6036690","0.0-340.0","1920x1080","","3266.399999976158","80.42","img/238/5.5/1.5/bw/001.png","","","natural"
"","","","","","animation","341","6039688","0.0-341.0","1920x1080","","2996","63.36","img/117/4.5/1/bw/001.png","","","natural"
"","","","","","animation","342","6042323","0.0-342.0","1920x1080","","2633.5","28.17","img/117/5.5/1/bw/001.png","","","natural"
"","","","","","animation","343","6068085","0.0-343.0","1920x1080","","25760.600000023842","58.33","img/117/4.5/1.5/bw/001.png","","","natural"
"","","","","","animation","344","6080059","0.0-344.0","1920x1080","","11971.899999976158","21","img/238/4/2/bw/001.png","","","natural"
"","","","","","animation","345","6082638","0.0-345.0","1920x1080","","2578.100000023842","25.40","img/314/4.5/1/bw/001.png","","","natural"
"","","","","","animation","346","6088786","0.0-346.0","1920x1080","","6146.100000023842","64.42","img/117/5.5/0.5/bw/001.png","","","natural"
"","","","","","animation","347","6092985","0.0-347.0","1920x1080","","4198.200000047684","8.99","img/314/3.5/1.5/bw/001.png","","","natural"
"","","","","","animation","348","6095139","0.0-348.0","1920x1080","","2151.600000023842","2.51","img/314/2.5/2/bw/001.png","","","natural"
"","","","","","animation","349","6102702","0.0-349.0","1920x1080","","7561.800000071526","30","img/117/3.5/1.5/bw/001.png","","","natural"
"","","","","","animation","350","6105177","0.0-350.0","1920x1080","","2474","19.71","img/117/4/0.5/bw/001.png","","","natural"
"","","","","","animation","351","6107340","0.0-351.0","1920x1080","","2161.600000023842","0","img/238/2.5/1/bw/001.png","","","natural"
"","","","","","animation","352","6110206","0.0-352.0","1920x1080","","2864.399999976158","8.73","img/238/3.5/2/bw/001.png","","","natural"
"","","","","","animation","353","6112385","0.0-353.0","1920x1080","","2177.5999999046326","76.59","img/314/5.5/0.5/bw/001.png","","","natural"
"","","","","","animation","354","6120728","0.0-354.0","1920x1080","","8341.700000047684","62.57","img/117/4.5/2/bw/001.png","","","natural"
"","","","","","animation","355","6123005","0.0-355.0","1920x1080","","2275.6999999284744","79.63","img/238/5.5/2/bw/001.png","","","natural"
"","","","","","animation","356","6125579","0.0-356.0","1920x1080","","2572.6999999284744","47.09","img/238/4/1.5/bw/001.png","","","natural"
"","","","","","animation","357","6147791","0.0-357.0","1920x1080","","22210.100000023842","2.38","img/238/2.5/0.66667/bw/001.png","","","natural"
"","","","","","animation","358","6153619","0.0-358.0","1920x1080","","5825.5","24.60","img/117/3.5/0.66667/bw/001.png","","","natural"
"","","","","","animation","359","6155652","0.0-359.0","1920x1080","","2032","13.23","img/314/3.5/0.5/bw/001.png","","","natural"
"","","","","","animation","360","6157422","0.0-360.0","1920x1080","","1769.1000000238419","70.37","img/238/5.5/0.66667/bw/001.png","","","natural"
"","","","","","animation","361","6160404","0.0-361.0","1920x1080","","2979.0999999046326","74.87","img/238/4.5/2/bw/001.png","","","natural"
"","","","","","animation","362","6162855","0.0-362.0","1920x1080","","2449.7999999523163","80.42","img/314/5.5/1.5/bw/001.png","","","natural"
"","","","","","animation","363","6166762","0.0-363.0","1920x1080","","3906.2000000476837","1.59","img/117/2.5/0.66667/bw/001.png","","","natural"
"","","","","","animation","364","6187973","0.0-364.0","1920x1080","","21209.100000023842","35.45","img/117/4.5/0.66667/bw/001.png","","","natural"
"","","","","","animation","365","6190330","0.0-365.0","1920x1080","","2355.2999999523163","23.02","img/238/4/0.66667/bw/001.png","","","natural"
"","","","","","animation","366","6193386","0.0-366.0","1920x1080","","3054.8000000715256","20.24","img/117/4/0.66667/bw/001.png","","","natural"
"","","","","","animation","367","6195336","0.0-367.0","1920x1080","","1949","7.01","img/314/2.5/1/bw/001.png","","","natural"
"","","","","","animation","368","6197302","0.0-368.0","1920x1080","","1964.7000000476837","63.10","img/117/5.5/2/bw/001.png","","","natural"
"","","","","","animation","369","6199653","0.0-369.0","1920x1080","","2349","2.12","img/117/2.5/1/bw/001.png","","","natural"
"","","","","","animation","370","6202569","0.0-370.0","1920x1080","","2915.100000023842","0","img/314/2.5/0.5/bw/001.png","","","natural"
"","","","","","animation","371","6205007","0.0-371.0","1920x1080","","2436.3000000715256","10.98","img/238/4.5/0.5/bw/001.png","","","natural"
"","","","","","animation","372","6208236","0.0-372.0","1920x1080","","3226.8000000715256","7.67","img/117/2.5/2/bw/001.png","","","natural"
"","","","","","animation","373","6215186","0.0-373.0","1920x1080","","6948.100000023842","31.88","img/314/4.5/2/bw/001.png","","","natural"
"","","","","","animation","374","6217231","0.0-374.0","1920x1080","","2043.5","17.72","img/117/3.5/1/bw/001.png","","","natural"
"","","","","","animation","375","6219920","0.0-375.0","1920x1080","","2687.399999976158","12.70","img/314/4/0.66667/bw/001.png","","","natural"
"","","","","","animation","376","6222970","0.0-376.0","1920x1080","","3048","5.16","img/238/3.5/0.5/bw/001.png","","","natural"
"","","","","","animation","377","6225680","0.0-377.0","1920x1080","","2708.600000023842","57.94","img/117/5.5/0.66667/bw/001.png","","","natural"
"","","","","","animation","378","6228231","0.0-378.0","1920x1080","","2550.100000023842","4.10","img/117/3.5/0.5/bw/001.png","","","natural"
"","","","","","animation","379","6235518","0.0-379.0","1920x1080","","7284.899999976158","61.11","img/238/4.5/1.5/bw/001.png","","","natural"
"","","","","","animation","380","6238053","0.0-380.0","1920x1080","","2533.7999999523163","6.22","img/238/3.5/1.5/bw/001.png","","","natural"
"","","","","","animation","381","6240720","0.0-381.0","1920x1080","","2665.399999976158","14.02","img/314/4/1.5/bw/001.png","","","natural"
"","","","","","animation","382","6243521","0.0-382.0","1920x1080","","2799.899999976158","80.16","img/314/5.5/2/bw/001.png","","","natural"
"","","","","","animation","383","6246187","0.0-383.0","1920x1080","","2664.100000023842","49.60","img/238/4.5/1/bw/001.png","","","natural"
"","","","","","animation","384","6255280","0.0-384.0","1920x1080","","9091.700000047684","78","img/238/5.5/1/bw/001.png","","","natural"
"","","","","","animation","385","6257953","0.0-385.0","1920x1080","","2671.6999999284744","4.63","img/238/2.5/1.5/bw/001.png","","","natural"
"","","","","","animation","386","6259839","0.0-386.0","1920x1080","","1884.1999999284744","70.50","img/117/5.5/1.5/bw/001.png","","","natural"
"","","","","","animation","387","6262153","0.0-387.0","1920x1080","","2312.6999999284744","8.99","img/314/3.5/1/bw/001.png","","","natural"
"","","","","","animation","388","6266654","0.0-388.0","1920x1080","","4499.5","12.04","img/238/3.5/0.66667/bw/001.png","","","natural"
"","","","","","animation","389","6269437","0.0-389.0","1920x1080","","2781.600000023842","34.79","img/117/3.5/2/bw/001.png","","","natural"
"","","","","","html-button-response","390","6296387","0.0-390.0","1920x1080","","26947.600000023842","","<strong>Study Debriefing</strong><br><p class=""debrief""><strong>Background:</strong> The patterns you rated are called <em>fractals</em>. The term fractal describes a class of irregular curves or shapes for which any suitably chosen part is similar in shape to a given larger or smaller part when magnified or reduced to the same size. Fractal properties are found throughout the natural and manmade world. The series of animations you saw today displayed animated fractal patterns of a varying complexity.</p><p class=""debrief""><strong>Purpose of this study:</strong> We hope to better understand how the perception of static fractals differs from the perception of animated fractals, and how the speed of the animated patterns influences people&apos;s perception of them. Fractals allow us to study the perception of aesthetic properties (e.g. the perceived level of beauty in an image) without using recognizable content, which makes them an excellent tool for studying abstract aesthetic judgement.</p><p class=""debrief""><strong>Your part:</strong> Your participation has helped us to further understand how humans perceive these patterns across different levels of speed and complexity. This research with allow us to better understand how the visual system and brain process our ever-changing visual environments.<p class=""debrief""><strong>Feedback and Further information:</strong> If you have additional questions about this study, please feel free to ask the researcher, Nathan Gonzales-Hess at nhess @ uoregon.edu. If you have any questions concerning your rights as a research participant, please contact Research Compliance Services, 5237 University of Oregon, Eugene, OR 97403, 541-346-2510, or email researchCompliance @ uoregon.edu. You can also email the Human Subjects Coordinator for psychology and linguistics research at hscoord @ uoregon.edu. ","0","",""
"","","","","","html-button-response","391","6298736","0.0-391.0","1920x1080","","2345","","Thank you for participating in this study. <br>Please click below to finish the experiment and submit your responses.<br><br>","0","",""
"true","","","","","fullscreen","392","6299739","0.0-392.0","1920x1080","14:41 3/6/2022","","","","","",""
