"success","timeout","failed_images","failed_audio","failed_video","trial_type","trial_index","time_elapsed","internal_node_id","resolution","timeStamp","rt","response","stimulus","button_pressed","value","descriptor"
"true","false","[]","[]","[]","preload","0","36363","0.0-0.0","1920x1080","","","","","","",""
"true","false","[]","[]","[]","preload","1","84501","0.0-1.0","1920x1080","","","","","","",""
"true","false","[]","[]","[]","preload","2","108317","0.0-2.0","1920x1080","","","","","","",""
"true","","","","","fullscreen","3","314292","0.0-3.0","1920x1080","9:56 24/10/2022","","","","","",""
"","","","","","survey-html-form","4","326736","0.0-4.0","1920x1080","","12443","{""age"":""-18"",""gender"":""Female""}","","","",""
"","","","","","html-button-response","5","378427","0.0-5.0","1920x1080","","51630.600000000035","","<div class=""complex"">You are going to see a series of animations.<br><br></div><div class=""complex"">Move the slider to indicate how <strong style=""text-transform:capitalize"">COMPLEX</strong> you find each animation.<br><br></div><div class=""complex"">0 = Least Complex<br></div><div class=""complex"">1 = Most Complex<br><br></div><div class=""complex"">Remember to use the <strong><em>entire range</em></strong> of the slider to make your ratings.<br></div><div class=""complex"">Please <strong><em>take your time</em></strong> and carefully consider each rating you make.<br><br></div><div class=""complex"">The study has five sections and will take about 45 minutes to complete.<br><br></div>","0","",""
"","","","","","call-function","6","378428","0.0-6.0","1920x1080","","","","","","",""
"","","","","","animation","7","405076","0.0-7.0","1920x1080","","26645.899999999965","50","img/117/4/0.5/bw/001.png","","","complex"
"","","","","","animation","8","433372","0.0-8.0","1920x1080","","28295.300000000047","50.00","img/238/4/0.5/bw/001.png","","","complex"
"","","","","","animation","9","468018","0.0-9.0","1920x1080","","34590.899999999965","50.26","img/238/4.5/0.66667/bw/001.png","","","complex"
"","","","","","animation","10","477274","0.0-10.0","1920x1080","","9255.000000000058","84.79","img/238/2.5/0.66667/bw/001.png","","","complex"
"","","","","","animation","11","496866","0.0-11.0","1920x1080","","19590.699999999953","80.16","img/238/2.5/1/bw/001.png","","","complex"
"","","","","","animation","12","505487","0.0-12.0","1920x1080","","8567.099999999977","29.76","img/314/4.5/0.66667/bw/001.png","","","complex"
"","","","","","animation","13","509664","0.0-13.0","1920x1080","","4175.70000000007","0.00","img/117/5.5/1/bw/001.png","","","complex"
"","","","","","animation","14","516111","0.0-14.0","1920x1080","","6446.599999999977","80.42","img/117/2.5/0.5/bw/001.png","","","complex"
"","","","","","animation","15","531464","0.0-15.0","1920x1080","","15352.000000000058","30.16","img/117/3.5/2/bw/001.png","","","complex"
"","","","","","animation","16","539919","0.0-16.0","1920x1080","","8453.800000000047","64.55","img/314/2.5/2/bw/001.png","","","complex"
"","","","","","animation","17","548567","0.0-17.0","1920x1080","","8647","19.97","img/238/3.5/2/bw/001.png","","","complex"
"","","","","","animation","18","555207","0.0-18.0","1920x1080","","6639.599999999977","0.40","img/117/4.5/1/bw/001.png","","","complex"
"","","","","","animation","19","558989","0.0-19.0","1920x1080","","3726.8000000000466","0","img/314/5.5/0.5/bw/001.png","","","complex"
"","","","","","animation","20","566309","0.0-20.0","1920x1080","","7319.300000000047","14.68","img/117/4.5/1.5/bw/001.png","","","complex"
"","","","","","animation","21","572693","0.0-21.0","1920x1080","","6383.400000000023","30.29","img/238/3.5/1/bw/001.png","","","complex"
"","","","","","animation","22","580205","0.0-22.0","1920x1080","","7510.70000000007","0","img/238/5.5/1/bw/001.png","","","complex"
"","","","","","animation","23","586605","0.0-23.0","1920x1080","","6399.099999999977","70.11","img/117/2.5/2/bw/001.png","","","complex"
"","","","","","animation","24","592429","0.0-24.0","1920x1080","","5823.900000000023","50.13","img/314/4/0.5/bw/001.png","","","complex"
"","","","","","animation","25","599493","0.0-25.0","1920x1080","","7063.100000000093","30.03","img/117/4/0.66667/bw/001.png","","","complex"
"","","","","","animation","26","603725","0.0-26.0","1920x1080","","4230.79999999993","39.55","img/238/3.5/1.5/bw/001.png","","","complex"
"","","","","","animation","27","610429","0.0-27.0","1920x1080","","6703.400000000023","59.79","img/314/3.5/0.5/bw/001.png","","","complex"
"","","","","","animation","28","614949","0.0-28.0","1920x1080","","4519.20000000007","50.00","img/314/3.5/2/bw/001.png","","","complex"
"","","","","","animation","29","621746","0.0-29.0","1920x1080","","6774.699999999953","80.03","img/314/2.5/1/bw/001.png","","","complex"
"","","","","","animation","30","624690","0.0-30.0","1920x1080","","2942.6999999999534","79.89","img/314/2.5/0.66667/bw/001.png","","","complex"
"","","","","","animation","31","634194","0.0-31.0","1920x1080","","9504.099999999977","0","img/238/5.5/0.5/bw/001.png","","","complex"
"","","","","","animation","32","638762","0.0-32.0","1920x1080","","4566.599999999977","0","img/238/5.5/1.5/bw/001.png","","","complex"
"","","","","","animation","33","643578","0.0-33.0","1920x1080","","4815.099999999977","49.60","img/238/3.5/0.5/bw/001.png","","","complex"
"","","","","","animation","34","647098","0.0-34.0","1920x1080","","3519.5","19.84","img/238/4/1.5/bw/001.png","","","complex"
"","","","","","animation","35","655155","0.0-35.0","1920x1080","","8056.300000000047","0.40","img/238/5.5/0.66667/bw/001.png","","","complex"
"","","","","","animation","36","660970","0.0-36.0","1920x1080","","5814.5","19.84","img/314/4/1/bw/001.png","","","complex"
"","","","","","animation","37","664898","0.0-37.0","1920x1080","","3926.79999999993","39.95","img/238/4/1/bw/001.png","","","complex"
"","","","","","animation","38","669242","0.0-38.0","1920x1080","","4343.099999999977","50.13","img/117/4/1/bw/001.png","","","complex"
"","","","","","animation","39","672994","0.0-39.0","1920x1080","","3751.0999999999767","0","img/238/5.5/2/bw/001.png","","","complex"
"","","","","","animation","40","678654","0.0-40.0","1920x1080","","5663","19.71","img/117/4/2/bw/001.png","","","complex"
"","","","","","animation","41","682695","0.0-41.0","1920x1080","","4039.29999999993","49.74","img/314/4.5/0.5/bw/001.png","","","complex"
"","","","","","animation","42","688175","0.0-42.0","1920x1080","","5479.400000000023","30.29","img/238/4.5/1.5/bw/001.png","","","complex"
"","","","","","animation","43","702143","0.0-43.0","1920x1080","","13967","40","img/314/3.5/1.5/bw/001.png","","","complex"
"","","","","","animation","44","708087","0.0-44.0","1920x1080","","5943.599999999977","79.76","img/314/2.5/0.5/bw/001.png","","","complex"
"","","","","","animation","45","712567","0.0-45.0","1920x1080","","4478.800000000047","60","img/314/4/0.66667/bw/001.png","","","complex"
"","","","","","animation","46","718191","0.0-46.0","1920x1080","","5622.899999999907","60.32","img/117/3.5/1/bw/001.png","","","complex"
"","","","","","animation","47","722783","0.0-47.0","1920x1080","","4591.099999999977","49.60","img/117/3.5/1.5/bw/001.png","","","complex"
"","","","","","animation","48","726022","0.0-48.0","1920x1080","","3239","50.00","img/314/3.5/1/bw/001.png","","","complex"
"","","","","","animation","49","731254","0.0-49.0","1920x1080","","5231.099999999977","20.24","img/238/4.5/2/bw/001.png","","","complex"
"","","","","","animation","50","737996","0.0-50.0","1920x1080","","6735.29999999993","20.11","img/238/4.5/1/bw/001.png","","","complex"
"","","","","","animation","51","742459","0.0-51.0","1920x1080","","4463","29.63","img/117/5.5/0.5/bw/001.png","","","complex"
"","","","","","animation","52","749342","0.0-52.0","1920x1080","","6881.199999999953","39","img/314/4/2/bw/001.png","","","complex"
"","","","","","animation","53","761643","0.0-53.0","1920x1080","","12300.70000000007","50","img/238/4.5/0.5/bw/001.png","","","complex"
"","","","","","animation","54","764980","0.0-54.0","1920x1080","","3335.29999999993","0","img/314/5.5/1.5/bw/001.png","","","complex"
"","","","","","animation","55","776468","0.0-55.0","1920x1080","","11487.099999999977","49.74","img/117/3.5/0.66667/bw/001.png","","","complex"
"","","","","","animation","56","782676","0.0-56.0","1920x1080","","6207.300000000047","30.29","img/238/4/2/bw/001.png","","","complex"
"","","","","","animation","57","793036","0.0-57.0","1920x1080","","10359","30","img/314/4.5/1.5/bw/001.png","","","complex"
"","","","","","animation","58","797557","0.0-58.0","1920x1080","","4520.199999999953","69.97","img/314/3.5/0.66667/bw/001.png","","","complex"
"","","","","","animation","59","801881","0.0-59.0","1920x1080","","4326","0.40","img/314/5.5/2/bw/001.png","","","complex"
"","","","","","animation","60","805497","0.0-60.0","1920x1080","","3615.100000000093","79.50","img/117/2.5/0.66667/bw/001.png","","","complex"
"","","","","","animation","61","810289","0.0-61.0","1920x1080","","4790.800000000047","59.92","img/117/4.5/0.66667/bw/001.png","","","complex"
"","","","","","animation","62","814145","0.0-62.0","1920x1080","","3855.20000000007","50.40","img/314/4/1.5/bw/001.png","","","complex"
"","","","","","animation","63","819177","0.0-63.0","1920x1080","","5030.70000000007","79.50","img/117/2.5/1/bw/001.png","","","complex"
"","","","","","animation","64","823841","0.0-64.0","1920x1080","","4663","30.42","img/314/5.5/0.66667/bw/001.png","","","complex"
"","","","","","animation","65","828673","0.0-65.0","1920x1080","","4831.400000000023","50.26","img/238/4/0.66667/bw/001.png","","","complex"
"","","","","","animation","66","834801","0.0-66.0","1920x1080","","6127.20000000007","70.24","img/238/2.5/0.5/bw/001.png","","","complex"
"","","","","","animation","67","840289","0.0-67.0","1920x1080","","5485.600000000093","0.40","img/117/5.5/1.5/bw/001.png","","","complex"
"","","","","","animation","68","847490","0.0-68.0","1920x1080","","7199.899999999907","19.97","img/314/4.5/1/bw/001.png","","","complex"
"","","","","","animation","69","852689","0.0-69.0","1920x1080","","5198.29999999993","50.26","img/117/2.5/1.5/bw/001.png","","","complex"
"","","","","","animation","70","859544","0.0-70.0","1920x1080","","6854.099999999977","60","img/117/3.5/0.5/bw/001.png","","","complex"
"","","","","","animation","71","881712","0.0-71.0","1920x1080","","22167.20000000007","39.68","img/238/3.5/0.66667/bw/001.png","","","complex"
"","","","","","animation","72","885440","0.0-72.0","1920x1080","","3726.5","9.66","img/314/5.5/1/bw/001.png","","","complex"
"","","","","","animation","73","891106","0.0-73.0","1920x1080","","5664.800000000047","20.37","img/117/4.5/0.5/bw/001.png","","","complex"
"","","","","","animation","74","895392","0.0-74.0","1920x1080","","4285.900000000023","20.37","img/117/4/1.5/bw/001.png","","","complex"
"","","","","","animation","75","899456","0.0-75.0","1920x1080","","4062.9000000000233","60.05","img/238/2.5/1.5/bw/001.png","","","complex"
"","","","","","animation","76","904128","0.0-76.0","1920x1080","","4670.900000000023","64.81","img/314/2.5/1.5/bw/001.png","","","complex"
"","","","","","animation","77","909176","0.0-77.0","1920x1080","","5047","30.29","img/117/5.5/2/bw/001.png","","","complex"
"","","","","","animation","78","911955","0.0-78.0","1920x1080","","2778","70.24","img/238/2.5/2/bw/001.png","","","complex"
"","","","","","animation","79","918729","0.0-79.0","1920x1080","","6772.20000000007","30.29","img/117/5.5/0.66667/bw/001.png","","","complex"
"","","","","","animation","80","921881","0.0-80.0","1920x1080","","3151","30.16","img/117/4.5/2/bw/001.png","","","complex"
"","","","","","animation","81","929041","0.0-81.0","1920x1080","","7158.79999999993","19.58","img/314/4.5/2/bw/001.png","","","complex"
"","","","","","html-button-response","82","950507","0.0-82.0","1920x1080","","21464.599999999977","","<div class=""intro"">You are about to view a new series of animations.<br><br></div><div class=""intro"">You will evaluate them based on a different descriptor.<br><br></div><div class=""intro"">Move the slider to indicate how <strong style=""text-transform:capitalize"">RELAXING</strong> you find each animation.<br><br></div><div class=""intro"">0 = Least Relaxing<br></div><div class=""intro"">1 = Most Relaxing<br><br></div><div class=""intro"">Remember to use the <strong><em>entire range</em></strong> of the slider to make your ratings.<br></div><div class=""intro"">Please <strong><em>take your time</em></strong> and carefully consider each rating you make.<br><br></div>","0","",""
"","","","","","call-function","83","950508","0.0-83.0","1920x1080","","","","","","",""
"","","","","","animation","84","962777","0.0-84.0","1920x1080","","12268.099999999977","84.92","img/238/4.5/1.5/bw/001.png","","","relaxing"
"","","","","","animation","85","971626","0.0-85.0","1920x1080","","8847.899999999907","50.00","img/314/5.5/1/bw/001.png","","","relaxing"
"","","","","","animation","86","977409","0.0-86.0","1920x1080","","5781.800000000047","15.34","img/314/3.5/0.5/bw/001.png","","","relaxing"
"","","","","","animation","87","983026","0.0-87.0","1920x1080","","5614.70000000007","20.24","img/238/4/1.5/bw/001.png","","","relaxing"
"","","","","","animation","88","988010","0.0-88.0","1920x1080","","4983.29999999993","0.40","img/314/2.5/0.66667/bw/001.png","","","relaxing"
"","","","","","animation","89","993058","0.0-89.0","1920x1080","","5047","20.11","img/238/4/0.66667/bw/001.png","","","relaxing"
"","","","","","animation","90","999139","0.0-90.0","1920x1080","","6079.79999999993","80.16","img/238/5.5/1.5/bw/001.png","","","relaxing"
"","","","","","animation","91","1004874","0.0-91.0","1920x1080","","5733.699999999953","30.16","img/117/3.5/0.66667/bw/001.png","","","relaxing"
"","","","","","animation","92","1009973","0.0-92.0","1920x1080","","5097.800000000047","44.97","img/314/4.5/0.5/bw/001.png","","","relaxing"
"","","","","","animation","93","1015050","0.0-93.0","1920x1080","","5076.800000000047","49.87","img/238/4.5/1/bw/001.png","","","relaxing"
"","","","","","animation","94","1022946","0.0-94.0","1920x1080","","7895.100000000093","69.71","img/238/5.5/1/bw/001.png","","","relaxing"
"","","","","","animation","95","1026114","0.0-95.0","1920x1080","","3166.600000000093","49.87","img/117/4/1.5/bw/001.png","","","relaxing"
"","","","","","animation","96","1029346","0.0-96.0","1920x1080","","3231.6999999999534","1.19","img/314/2.5/0.5/bw/001.png","","","relaxing"
"","","","","","animation","97","1034507","0.0-97.0","1920x1080","","5160.300000000047","29.76","img/117/4.5/1/bw/001.png","","","relaxing"
"","","","","","animation","98","1038275","0.0-98.0","1920x1080","","3766.4000000001397","30.16","img/238/4.5/0.5/bw/001.png","","","relaxing"
"","","","","","animation","99","1042492","0.0-99.0","1920x1080","","4215.600000000093","40.08","img/117/4/1/bw/001.png","","","relaxing"
"","","","","","animation","100","1047467","0.0-100.0","1920x1080","","4973.90000000014","19.97","img/117/4.5/0.5/bw/001.png","","","relaxing"
"","","","","","animation","101","1052707","0.0-101.0","1920x1080","","5239.199999999953","55.03","img/314/5.5/0.5/bw/001.png","","","relaxing"
"","","","","","animation","102","1057723","0.0-102.0","1920x1080","","5015.5","0.40","img/117/2.5/1.5/bw/001.png","","","relaxing"
"","","","","","animation","103","1063731","0.0-103.0","1920x1080","","6006.699999999953","19.97","img/117/4/0.66667/bw/001.png","","","relaxing"
"","","","","","animation","104","1068930","0.0-104.0","1920x1080","","5198.699999999953","59.66","img/117/4.5/2/bw/001.png","","","relaxing"
"","","","","","animation","105","1074818","0.0-105.0","1920x1080","","5887.09999999986","49.87","img/314/4/1/bw/001.png","","","relaxing"
"","","","","","animation","106","1080157","0.0-106.0","1920x1080","","5336.800000000047","79.63","img/238/5.5/0.5/bw/001.png","","","relaxing"
"","","","","","animation","107","1085325","0.0-107.0","1920x1080","","5167","39.95","img/314/4/1.5/bw/001.png","","","relaxing"
"","","","","","animation","108","1093307","0.0-108.0","1920x1080","","7980.799999999814","50.13","img/314/3.5/2/bw/001.png","","","relaxing"
"","","","","","animation","109","1097091","0.0-109.0","1920x1080","","3781.1999999999534","29.89","img/314/3.5/1/bw/001.png","","","relaxing"
"","","","","","animation","110","1103304","0.0-110.0","1920x1080","","6206.90000000014","19.84","img/314/2.5/2/bw/001.png","","","relaxing"
"","","","","","animation","111","1107663","0.0-111.0","1920x1080","","4358.5","79.50","img/238/5.5/0.66667/bw/001.png","","","relaxing"
"","","","","","animation","112","1114479","0.0-112.0","1920x1080","","6815","89.81","img/117/5.5/0.66667/bw/001.png","","","relaxing"
"","","","","","animation","113","1121168","0.0-113.0","1920x1080","","6687.699999999953","4.76","img/238/2.5/1/bw/001.png","","","relaxing"
"","","","","","animation","114","1125195","0.0-114.0","1920x1080","","4025.6999999999534","19.97","img/314/3.5/0.66667/bw/001.png","","","relaxing"
"","","","","","animation","115","1129896","0.0-115.0","1920x1080","","4700.5","10.05","img/314/2.5/1.5/bw/001.png","","","relaxing"
"","","","","","animation","116","1133178","0.0-116.0","1920x1080","","3281.0999999998603","9","img/314/2.5/1/bw/001.png","","","relaxing"
"","","","","","animation","117","1139495","0.0-117.0","1920x1080","","6315.800000000047","30.03","img/117/3.5/2/bw/001.png","","","relaxing"
"","","","","","animation","118","1154672","0.0-118.0","1920x1080","","15175.600000000093","10.05","img/117/2.5/1/bw/001.png","","","relaxing"
"","","","","","animation","119","1158835","0.0-119.0","1920x1080","","4158.699999999953","49.87","img/314/4.5/0.66667/bw/001.png","","","relaxing"
"","","","","","animation","120","1164955","0.0-120.0","1920x1080","","6119.5","29.50","img/238/4/0.5/bw/001.png","","","relaxing"
"","","","","","animation","121","1172867","0.0-121.0","1920x1080","","7910.199999999953","40.21","img/117/2.5/2/bw/001.png","","","relaxing"
"","","","","","animation","122","1180383","0.0-122.0","1920x1080","","7515.300000000047","8","img/238/2.5/0.66667/bw/001.png","","","relaxing"
"","","","","","animation","123","1185555","0.0-123.0","1920x1080","","5170.40000000014","60.19","img/314/4.5/2/bw/001.png","","","relaxing"
"","","","","","animation","124","1191715","0.0-124.0","1920x1080","","6158.899999999907","100","img/117/5.5/2/bw/001.png","","","relaxing"
"","","","","","animation","125","1198451","0.0-125.0","1920x1080","","6734.299999999814","19.58","img/238/3.5/0.66667/bw/001.png","","","relaxing"
"","","","","","animation","126","1202643","0.0-126.0","1920x1080","","4191.5","39.55","img/314/4.5/1/bw/001.png","","","relaxing"
"","","","","","animation","127","1205231","0.0-127.0","1920x1080","","2587.100000000093","0.40","img/238/2.5/0.5/bw/001.png","","","relaxing"
"","","","","","animation","128","1210819","0.0-128.0","1920x1080","","5586.699999999953","40.34","img/117/4/2/bw/001.png","","","relaxing"
"","","","","","animation","129","1214443","0.0-129.0","1920x1080","","3623","5.16","img/117/2.5/0.66667/bw/001.png","","","relaxing"
"","","","","","animation","130","1218253","0.0-130.0","1920x1080","","3806.5999999998603","19.84","img/117/3.5/1.5/bw/001.png","","","relaxing"
"","","","","","animation","131","1223342","0.0-131.0","1920x1080","","5087.40000000014","29.76","img/238/4.5/0.66667/bw/001.png","","","relaxing"
"","","","","","animation","132","1226917","0.0-132.0","1920x1080","","3574.6999999999534","39.95","img/117/4.5/1.5/bw/001.png","","","relaxing"
"","","","","","animation","133","1231590","0.0-133.0","1920x1080","","4671.40000000014","29.76","img/238/3.5/1.5/bw/001.png","","","relaxing"
"","","","","","animation","134","1236317","0.0-134.0","1920x1080","","4726.699999999953","20.24","img/314/4/0.66667/bw/001.png","","","relaxing"
"","","","","","animation","135","1242758","0.0-135.0","1920x1080","","6439.399999999907","100","img/238/5.5/2/bw/001.png","","","relaxing"
"","","","","","animation","136","1266646","0.0-136.0","1920x1080","","23886.90000000014","50.13","img/117/3.5/1/bw/001.png","","","relaxing"
"","","","","","animation","137","1272190","0.0-137.0","1920x1080","","5542.699999999953","49.87","img/238/4.5/2/bw/001.png","","","relaxing"
"","","","","","animation","138","1276318","0.0-138.0","1920x1080","","4127.699999999953","19.97","img/314/4/0.5/bw/001.png","","","relaxing"
"","","","","","animation","139","1280256","0.0-139.0","1920x1080","","3933.899999999907","69.84","img/314/5.5/2/bw/001.png","","","relaxing"
"","","","","","animation","140","1285088","0.0-140.0","1920x1080","","4831","50.13","img/238/3.5/2/bw/001.png","","","relaxing"
"","","","","","animation","141","1288592","0.0-141.0","1920x1080","","3503.100000000093","40.34","img/314/3.5/1.5/bw/001.png","","","relaxing"
"","","","","","animation","142","1292360","0.0-142.0","1920x1080","","3766.6999999999534","30.29","img/238/4/1/bw/001.png","","","relaxing"
"","","","","","animation","143","1298680","0.0-143.0","1920x1080","","6319.199999999953","60.19","img/314/5.5/0.66667/bw/001.png","","","relaxing"
"","","","","","animation","144","1304371","0.0-144.0","1920x1080","","5689.5","10.45","img/238/3.5/0.5/bw/001.png","","","relaxing"
"","","","","","animation","145","1307528","0.0-145.0","1920x1080","","3156.5","0.53","img/117/2.5/0.5/bw/001.png","","","relaxing"
"","","","","","animation","146","1310680","0.0-146.0","1920x1080","","3151","90.08","img/117/5.5/1/bw/001.png","","","relaxing"
"","","","","","animation","147","1313937","0.0-147.0","1920x1080","","3255.3000000000466","50.40","img/238/4/2/bw/001.png","","","relaxing"
"","","","","","animation","148","1318064","0.0-148.0","1920x1080","","4126.399999999907","19.84","img/238/2.5/1.5/bw/001.png","","","relaxing"
"","","","","","animation","149","1323555","0.0-149.0","1920x1080","","5489.800000000047","79.76","img/314/5.5/1.5/bw/001.png","","","relaxing"
"","","","","","animation","150","1327272","0.0-150.0","1920x1080","","3715.1999999999534","41.01","img/117/4/0.5/bw/001.png","","","relaxing"
"","","","","","animation","151","1331872","0.0-151.0","1920x1080","","4599.100000000093","49.87","img/314/4.5/1.5/bw/001.png","","","relaxing"
"","","","","","animation","152","1337008","0.0-152.0","1920x1080","","5135.5","30.42","img/238/2.5/2/bw/001.png","","","relaxing"
"","","","","","animation","153","1340654","0.0-153.0","1920x1080","","3643.5","14.55","img/117/3.5/0.5/bw/001.png","","","relaxing"
"","","","","","animation","154","1344161","0.0-154.0","1920x1080","","3506.600000000093","49.74","img/117/5.5/0.5/bw/001.png","","","relaxing"
"","","","","","animation","155","1347689","0.0-155.0","1920x1080","","3526.5999999998603","90.34","img/117/5.5/1.5/bw/001.png","","","relaxing"
"","","","","","animation","156","1351329","0.0-156.0","1920x1080","","3639.399999999907","50.00","img/314/4/2/bw/001.png","","","relaxing"
"","","","","","animation","157","1355621","0.0-157.0","1920x1080","","4290.699999999953","29.89","img/117/4.5/0.66667/bw/001.png","","","relaxing"
"","","","","","animation","158","1360145","0.0-158.0","1920x1080","","4523.5","10.05","img/238/3.5/1/bw/001.png","","","relaxing"
"","","","","","html-button-response","159","1381610","0.0-159.0","1920x1080","","21462.699999999953","","<div class=""intro"">You are about to view a new series of animations.<br><br></div><div class=""intro"">You will evaluate them based on a different descriptor.<br><br></div><div class=""intro"">Move the slider to indicate how <strong style=""text-transform:capitalize"">NATURAL</strong> you find each animation.<br><br></div><div class=""intro"">0 = Least Natural<br></div><div class=""intro"">1 = Most Natural<br><br></div><div class=""intro"">Remember to use the <strong><em>entire range</em></strong> of the slider to make your ratings.<br></div><div class=""intro"">Please <strong><em>take your time</em></strong> and carefully consider each rating you make.<br><br></div>","0","",""
"","","","","","call-function","160","1381611","0.0-160.0","1920x1080","","","","","","",""
"","","","","","animation","161","1392737","0.0-161.0","1920x1080","","11125.299999999814","0","img/314/2.5/0.66667/bw/001.png","","","natural"
"","","","","","animation","162","1397305","0.0-162.0","1920x1080","","4565.799999999814","9.79","img/117/2.5/1.5/bw/001.png","","","natural"
"","","","","","animation","163","1403920","0.0-163.0","1920x1080","","6607.40000000014","5.29","img/117/3.5/0.66667/bw/001.png","","","natural"
"","","","","","animation","164","1409145","0.0-164.0","1920x1080","","5223.899999999907","15.48","img/238/3.5/1/bw/001.png","","","natural"
"","","","","","animation","165","1414104","0.0-165.0","1920x1080","","4958.09999999986","5.03","img/314/2.5/2/bw/001.png","","","natural"
"","","","","","animation","166","1417744","0.0-166.0","1920x1080","","3639","50.26","img/238/5.5/0.5/bw/001.png","","","natural"
"","","","","","animation","167","1420827","0.0-167.0","1920x1080","","3081.5","50.00","img/117/5.5/0.5/bw/001.png","","","natural"
"","","","","","animation","168","1424745","0.0-168.0","1920x1080","","3916.1999999999534","14.81","img/314/2.5/1.5/bw/001.png","","","natural"
"","","","","","animation","169","1430304","0.0-169.0","1920x1080","","5559","20.37","img/238/4/2/bw/001.png","","","natural"
"","","","","","animation","170","1434361","0.0-170.0","1920x1080","","4055.5","0","img/117/2.5/0.66667/bw/001.png","","","natural"
"","","","","","animation","171","1438168","0.0-171.0","1920x1080","","3806.5999999998603","89.95","img/238/5.5/1/bw/001.png","","","natural"
"","","","","","animation","172","1441664","0.0-172.0","1920x1080","","3494.5999999998603","29.63","img/238/4/1/bw/001.png","","","natural"
"","","","","","animation","173","1445848","0.0-173.0","1920x1080","","4183.199999999953","80.03","img/117/5.5/1/bw/001.png","","","natural"
"","","","","","animation","174","1449546","0.0-174.0","1920x1080","","3696.3000000000466","60.05","img/314/4.5/2/bw/001.png","","","natural"
"","","","","","animation","175","1453152","0.0-175.0","1920x1080","","3605.7999999998137","49.87","img/117/4.5/0.66667/bw/001.png","","","natural"
"","","","","","animation","176","1457945","0.0-176.0","1920x1080","","4791.40000000014","40.21","img/314/3.5/2/bw/001.png","","","natural"
"","","","","","animation","177","1465007","0.0-177.0","1920x1080","","7065.90000000014","40.08","img/314/4.5/1/bw/001.png","","","natural"
"","","","","","animation","178","1471923","0.0-178.0","1920x1080","","6914.90000000014","59.79","img/238/4.5/1.5/bw/001.png","","","natural"
"","","","","","animation","179","1476899","0.0-179.0","1920x1080","","4974.90000000014","29.50","img/314/4/1/bw/001.png","","","natural"
"","","","","","animation","180","1480340","0.0-180.0","1920x1080","","3439.399999999907","49.74","img/314/4.5/0.66667/bw/001.png","","","natural"
"","","","","","animation","181","1484440","0.0-181.0","1920x1080","","4099.399999999907","10.19","img/238/4/0.5/bw/001.png","","","natural"
"","","","","","animation","182","1488691","0.0-182.0","1920x1080","","4250.199999999953","20.37","img/117/4/1.5/bw/001.png","","","natural"
"","","","","","animation","183","1494900","0.0-183.0","1920x1080","","6206.899999999907","30.29","img/238/4/1.5/bw/001.png","","","natural"
"","","","","","animation","184","1499475","0.0-184.0","1920x1080","","4574.299999999814","0.40","img/117/2.5/0.5/bw/001.png","","","natural"
"","","","","","animation","185","1511373","0.0-185.0","1920x1080","","11896.699999999953","20","img/117/3.5/0.5/bw/001.png","","","natural"
"","","","","","animation","186","1515257","0.0-186.0","1920x1080","","3882.4000000001397","65.21","img/314/5.5/0.66667/bw/001.png","","","natural"
"","","","","","animation","187","1519755","0.0-187.0","1920x1080","","4499","29.89","img/117/4.5/0.5/bw/001.png","","","natural"
"","","","","","animation","188","1524609","0.0-188.0","1920x1080","","4853.600000000093","49.74","img/117/3.5/1.5/bw/001.png","","","natural"
"","","","","","animation","189","1528129","0.0-189.0","1920x1080","","3519.1999999999534","39.55","img/238/4.5/0.66667/bw/001.png","","","natural"
"","","","","","animation","190","1531593","0.0-190.0","1920x1080","","3462.6999999999534","50.26","img/117/3.5/1/bw/001.png","","","natural"
"","","","","","animation","191","1535993","0.0-191.0","1920x1080","","4399.09999999986","49.74","img/117/4/1/bw/001.png","","","natural"
"","","","","","animation","192","1543372","0.0-192.0","1920x1080","","7377.100000000093","50.40","img/238/3.5/1.5/bw/001.png","","","natural"
"","","","","","animation","193","1546605","0.0-193.0","1920x1080","","3231.6999999999534","70.37","img/238/4.5/2/bw/001.png","","","natural"
"","","","","","animation","194","1551238","0.0-194.0","1920x1080","","4632.90000000014","69.97","img/117/4.5/1/bw/001.png","","","natural"
"","","","","","animation","195","1557921","0.0-195.0","1920x1080","","6681.800000000047","60.45","img/117/4/2/bw/001.png","","","natural"
"","","","","","animation","196","1563841","0.0-196.0","1920x1080","","5917.799999999814","59.79","img/117/4.5/2/bw/001.png","","","natural"
"","","","","","animation","197","1569205","0.0-197.0","1920x1080","","5362.300000000047","10.45","img/238/3.5/0.66667/bw/001.png","","","natural"
"","","","","","animation","198","1572638","0.0-198.0","1920x1080","","3431.6999999999534","0.40","img/238/2.5/0.5/bw/001.png","","","natural"
"","","","","","animation","199","1577209","0.0-199.0","1920x1080","","4570.699999999953","14.68","img/314/4.5/0.5/bw/001.png","","","natural"
"","","","","","animation","200","1580840","0.0-200.0","1920x1080","","3627.1999999999534","20.37","img/314/3.5/1/bw/001.png","","","natural"
"","","","","","animation","201","1588956","0.0-201.0","1920x1080","","8115.800000000047","49.74","img/314/4.5/1.5/bw/001.png","","","natural"
"","","","","","animation","202","1601075","0.0-202.0","1920x1080","","12117.399999999907","30","img/117/4/0.66667/bw/001.png","","","natural"
"","","","","","animation","203","1604843","0.0-203.0","1920x1080","","3766.9000000001397","20.11","img/117/4/0.5/bw/001.png","","","natural"
"","","","","","animation","204","1609240","0.0-204.0","1920x1080","","4395.600000000093","4.76","img/117/2.5/1/bw/001.png","","","natural"
"","","","","","animation","205","1617540","0.0-205.0","1920x1080","","8298.59999999986","30.29","img/238/3.5/2/bw/001.png","","","natural"
"","","","","","animation","206","1620340","0.0-206.0","1920x1080","","2798.3000000000466","0.40","img/238/2.5/0.66667/bw/001.png","","","natural"
"","","","","","animation","207","1623979","0.0-207.0","1920x1080","","3637.899999999907","90.08","img/117/5.5/2/bw/001.png","","","natural"
"","","","","","animation","208","1633059","0.0-208.0","1920x1080","","9078.299999999814","79.89","img/238/5.5/0.66667/bw/001.png","","","natural"
"","","","","","animation","209","1643227","0.0-209.0","1920x1080","","10167.100000000093","49.60","img/238/2.5/2/bw/001.png","","","natural"
"","","","","","animation","210","1648115","0.0-210.0","1920x1080","","4884.899999999907","50.00","img/314/4/1.5/bw/001.png","","","natural"
"","","","","","animation","211","1650827","0.0-211.0","1920x1080","","2710.399999999907","49.87","img/117/2.5/2/bw/001.png","","","natural"
"","","","","","animation","212","1654779","0.0-212.0","1920x1080","","3950.899999999907","59.52","img/238/4.5/1/bw/001.png","","","natural"
"","","","","","animation","213","1660873","0.0-213.0","1920x1080","","6092.899999999907","10.45","img/314/2.5/1/bw/001.png","","","natural"
"","","","","","animation","214","1665456","0.0-214.0","1920x1080","","4582.300000000047","10","img/314/3.5/1.5/bw/001.png","","","natural"
"","","","","","animation","215","1669595","0.0-215.0","1920x1080","","4137.199999999953","0.53","img/314/4/0.5/bw/001.png","","","natural"
"","","","","","animation","216","1674795","0.0-216.0","1920x1080","","5198.899999999907","19.71","img/238/4.5/0.5/bw/001.png","","","natural"
"","","","","","animation","217","1681811","0.0-217.0","1920x1080","","7014.59999999986","39.55","img/117/3.5/2/bw/001.png","","","natural"
"","","","","","animation","218","1687075","0.0-218.0","1920x1080","","5262.699999999953","10.45","img/238/3.5/0.5/bw/001.png","","","natural"
"","","","","","animation","219","1696139","0.0-219.0","1920x1080","","9063.600000000093","14.95","img/314/3.5/0.66667/bw/001.png","","","natural"
"","","","","","animation","220","1702010","0.0-220.0","1920x1080","","5870.300000000047","35.32","img/314/4/2/bw/001.png","","","natural"
"","","","","","animation","221","1708730","0.0-221.0","1920x1080","","6718.799999999814","19","img/238/2.5/1/bw/001.png","","","natural"
"","","","","","animation","222","1713330","0.0-222.0","1920x1080","","4598.799999999814","20.11","img/238/4/0.66667/bw/001.png","","","natural"
"","","","","","animation","223","1717074","0.0-223.0","1920x1080","","3742.2999999998137","10.45","img/314/3.5/0.5/bw/001.png","","","natural"
"","","","","","animation","224","1722290","0.0-224.0","1920x1080","","5215","69.84","img/117/5.5/0.66667/bw/001.png","","","natural"
"","","","","","animation","225","1728655","0.0-225.0","1920x1080","","6364.300000000047","100","img/238/5.5/1.5/bw/001.png","","","natural"
"","","","","","animation","226","1731994","0.0-226.0","1920x1080","","3337.399999999907","100","img/117/5.5/1.5/bw/001.png","","","natural"
"","","","","","animation","227","1735378","0.0-227.0","1920x1080","","3382.399999999907","50.26","img/238/2.5/1.5/bw/001.png","","","natural"
"","","","","","animation","228","1738394","0.0-228.0","1920x1080","","3014.899999999907","29.63","img/314/4/0.66667/bw/001.png","","","natural"
"","","","","","animation","229","1742546","0.0-229.0","1920x1080","","4150.899999999907","59.52","img/314/5.5/0.5/bw/001.png","","","natural"
"","","","","","animation","230","1748010","0.0-230.0","1920x1080","","5462.800000000047","80.42","img/238/5.5/2/bw/001.png","","","natural"
"","","","","","animation","231","1752898","0.0-231.0","1920x1080","","4886.800000000047","80.42","img/314/5.5/2/bw/001.png","","","natural"
"","","","","","animation","232","1763025","0.0-232.0","1920x1080","","10126.5","80","img/314/5.5/1/bw/001.png","","","natural"
"","","","","","animation","233","1766073","0.0-233.0","1920x1080","","3046.399999999907","79.50","img/314/5.5/1.5/bw/001.png","","","natural"
"","","","","","animation","234","1770021","0.0-234.0","1920x1080","","3946.899999999907","0","img/314/2.5/0.5/bw/001.png","","","natural"
"","","","","","animation","235","1778255","0.0-235.0","1920x1080","","8232.800000000047","29.76","img/117/4.5/1.5/bw/001.png","","","natural"
"","","","","","html-button-response","236","1797962","0.0-236.0","1920x1080","","19705.09999999986","","<div class=""intro"">You are about to view a new series of animations.<br><br></div><div class=""intro"">You will evaluate them based on a different descriptor.<br><br></div><div class=""intro"">Move the slider to indicate how <strong style=""text-transform:capitalize"">APPEALING</strong> you find each animation.<br><br></div><div class=""intro"">0 = Least Appealing<br></div><div class=""intro"">1 = Most Appealing<br><br></div><div class=""intro"">Remember to use the <strong><em>entire range</em></strong> of the slider to make your ratings.<br></div><div class=""intro"">Please <strong><em>take your time</em></strong> and carefully consider each rating you make.<br><br></div>","0","",""
"","","","","","call-function","237","1797963","0.0-237.0","1920x1080","","","","","","",""
"","","","","","animation","238","1803025","0.0-238.0","1920x1080","","5061.40000000014","50.26","img/314/3.5/2/bw/001.png","","","appealing"
"","","","","","animation","239","1807889","0.0-239.0","1920x1080","","4862.699999999953","50.26","img/314/5.5/0.66667/bw/001.png","","","appealing"
"","","","","","animation","240","1814471","0.0-240.0","1920x1080","","6580.59999999986","19.97","img/314/4.5/0.5/bw/001.png","","","appealing"
"","","","","","animation","241","1820287","0.0-241.0","1920x1080","","5815.699999999953","30.16","img/238/3.5/2/bw/001.png","","","appealing"
"","","","","","animation","242","1825203","0.0-242.0","1920x1080","","4915.600000000093","14","img/238/4/0.66667/bw/001.png","","","appealing"
"","","","","","animation","243","1828856","0.0-243.0","1920x1080","","3651.3000000000466","49.60","img/117/3.5/1.5/bw/001.png","","","appealing"
"","","","","","animation","244","1835792","0.0-244.0","1920x1080","","6935.399999999907","19.58","img/314/2.5/1/bw/001.png","","","appealing"
"","","","","","animation","245","1840240","0.0-245.0","1920x1080","","4446.600000000093","79.76","img/117/5.5/1.5/bw/001.png","","","appealing"
"","","","","","animation","246","1843008","0.0-246.0","1920x1080","","2766.5999999998603","80.95","img/314/5.5/1/bw/001.png","","","appealing"
"","","","","","animation","247","1849487","0.0-247.0","1920x1080","","6477.699999999953","70.11","img/238/5.5/0.66667/bw/001.png","","","appealing"
"","","","","","animation","248","1853020","0.0-248.0","1920x1080","","3532.100000000093","0","img/314/2.5/0.5/bw/001.png","","","appealing"
"","","","","","animation","249","1860160","0.0-249.0","1920x1080","","7139","30.29","img/117/5.5/0.66667/bw/001.png","","","appealing"
"","","","","","animation","250","1864656","0.0-250.0","1920x1080","","4494.399999999907","10.32","img/117/2.5/0.5/bw/001.png","","","appealing"
"","","","","","animation","251","1869960","0.0-251.0","1920x1080","","5303.199999999953","20.24","img/314/4/0.66667/bw/001.png","","","appealing"
"","","","","","animation","252","1875008","0.0-252.0","1920x1080","","5046.799999999814","59.66","img/238/2.5/1/bw/001.png","","","appealing"
"","","","","","animation","253","1879072","0.0-253.0","1920x1080","","4060.4000000001397","60.32","img/117/3.5/2/bw/001.png","","","appealing"
"","","","","","animation","254","1883378","0.0-254.0","1920x1080","","4305","69.84","img/314/4.5/1.5/bw/001.png","","","appealing"
"","","","","","animation","255","1889872","0.0-255.0","1920x1080","","6492.800000000047","40.34","img/314/3.5/1/bw/001.png","","","appealing"
"","","","","","animation","256","1893426","0.0-256.0","1920x1080","","3553","40.08","img/238/3.5/1/bw/001.png","","","appealing"
"","","","","","animation","257","1896762","0.0-257.0","1920x1080","","3334.899999999907","100","img/238/5.5/2/bw/001.png","","","appealing"
"","","","","","animation","258","1900639","0.0-258.0","1920x1080","","3875.5","90.08","img/117/5.5/0.5/bw/001.png","","","appealing"
"","","","","","animation","259","1903806","0.0-259.0","1920x1080","","3165.5999999998603","49.60","img/314/2.5/1.5/bw/001.png","","","appealing"
"","","","","","animation","260","1908156","0.0-260.0","1920x1080","","4348.800000000047","50.26","img/117/4.5/1/bw/001.png","","","appealing"
"","","","","","animation","261","1912562","0.0-261.0","1920x1080","","4405.800000000047","39.95","img/238/4/1.5/bw/001.png","","","appealing"
"","","","","","animation","262","1916722","0.0-262.0","1920x1080","","4158.399999999907","25","img/314/2.5/0.66667/bw/001.png","","","appealing"
"","","","","","animation","263","1920306","0.0-263.0","1920x1080","","3582.600000000093","30.29","img/238/4/0.5/bw/001.png","","","appealing"
"","","","","","animation","264","1924194","0.0-264.0","1920x1080","","3887.5","20.11","img/238/3.5/0.66667/bw/001.png","","","appealing"
"","","","","","animation","265","1929189","0.0-265.0","1920x1080","","4993.5","70.37","img/117/5.5/2/bw/001.png","","","appealing"
"","","","","","animation","266","1934372","0.0-266.0","1920x1080","","5182.100000000093","64.81","img/238/4.5/1/bw/001.png","","","appealing"
"","","","","","animation","267","1937306","0.0-267.0","1920x1080","","2932.399999999907","40.34","img/314/4/0.5/bw/001.png","","","appealing"
"","","","","","animation","268","1939841","0.0-268.0","1920x1080","","2535.2000000001863","50.00","img/117/2.5/1/bw/001.png","","","appealing"
"","","","","","animation","269","1944405","0.0-269.0","1920x1080","","4562.799999999814","49.87","img/314/4/1.5/bw/001.png","","","appealing"
"","","","","","animation","270","1950521","0.0-270.0","1920x1080","","6115","80.16","img/117/4.5/2/bw/001.png","","","appealing"
"","","","","","animation","271","1955162","0.0-271.0","1920x1080","","4637.399999999907","30.16","img/117/3.5/0.66667/bw/001.png","","","appealing"
"","","","","","animation","272","1959705","0.0-272.0","1920x1080","","4542.300000000047","39.95","img/314/4/1/bw/001.png","","","appealing"
"","","","","","animation","273","1964789","0.0-273.0","1920x1080","","5082","40.34","img/238/3.5/1.5/bw/001.png","","","appealing"
"","","","","","animation","274","1970626","0.0-274.0","1920x1080","","5836","50.00","img/238/4/2/bw/001.png","","","appealing"
"","","","","","animation","275","1975689","0.0-275.0","1920x1080","","5061.5","49.87","img/238/2.5/2/bw/001.png","","","appealing"
"","","","","","animation","276","1984162","0.0-276.0","1920x1080","","8471.899999999907","50.26","img/238/4.5/0.66667/bw/001.png","","","appealing"
"","","","","","animation","277","1988730","0.0-277.0","1920x1080","","4566.800000000047","60.45","img/117/5.5/1/bw/001.png","","","appealing"
"","","","","","animation","278","1992605","0.0-278.0","1920x1080","","3874.0999999998603","69.97","img/117/4/1.5/bw/001.png","","","appealing"
"","","","","","animation","279","1997426","0.0-279.0","1920x1080","","4819.399999999907","30.42","img/238/4.5/0.5/bw/001.png","","","appealing"
"","","","","","animation","280","2001269","0.0-280.0","1920x1080","","3844.3000000000466","19.71","img/117/4/0.66667/bw/001.png","","","appealing"
"","","","","","animation","281","2004653","0.0-281.0","1920x1080","","3382.5","49.74","img/314/4.5/1/bw/001.png","","","appealing"
"","","","","","animation","282","2008770","0.0-282.0","1920x1080","","4115.700000000186","30.16","img/314/3.5/0.66667/bw/001.png","","","appealing"
"","","","","","animation","283","2012070","0.0-283.0","1920x1080","","3298.8000000000466","15.34","img/314/3.5/0.5/bw/001.png","","","appealing"
"","","","","","animation","284","2016887","0.0-284.0","1920x1080","","4816.300000000047","79.63","img/238/4.5/1.5/bw/001.png","","","appealing"
"","","","","","animation","285","2020360","0.0-285.0","1920x1080","","3471","50.13","img/238/2.5/1.5/bw/001.png","","","appealing"
"","","","","","animation","286","2025986","0.0-286.0","1920x1080","","5625.199999999953","89.55","img/117/4.5/1.5/bw/001.png","","","appealing"
"","","","","","animation","287","2028824","0.0-287.0","1920x1080","","2836.2999999998137","29.63","img/117/4/0.5/bw/001.png","","","appealing"
"","","","","","animation","288","2032353","0.0-288.0","1920x1080","","3527.9000000001397","86","img/314/5.5/1.5/bw/001.png","","","appealing"
"","","","","","animation","289","2035289","0.0-289.0","1920x1080","","2934.5999999998603","50.40","img/314/4/2/bw/001.png","","","appealing"
"","","","","","animation","290","2039120","0.0-290.0","1920x1080","","3829.1999999999534","69.97","img/238/5.5/0.5/bw/001.png","","","appealing"
"","","","","","animation","291","2045103","0.0-291.0","1920x1080","","5982.40000000014","10","img/238/3.5/0.5/bw/001.png","","","appealing"
"","","","","","animation","292","2051576","0.0-292.0","1920x1080","","6471.100000000093","50","img/117/2.5/2/bw/001.png","","","appealing"
"","","","","","animation","293","2055854","0.0-293.0","1920x1080","","4276.9000000003725","49.87","img/117/4.5/0.66667/bw/001.png","","","appealing"
"","","","","","animation","294","2060640","0.0-294.0","1920x1080","","4783.899999999907","100","img/238/5.5/1.5/bw/001.png","","","appealing"
"","","","","","animation","295","2073653","0.0-295.0","1920x1080","","13012","40.21","img/117/2.5/0.66667/bw/001.png","","","appealing"
"","","","","","animation","296","2078928","0.0-296.0","1920x1080","","5273.399999999907","59.79","img/117/2.5/1.5/bw/001.png","","","appealing"
"","","","","","animation","297","2083653","0.0-297.0","1920x1080","","4724.399999999907","5.29","img/238/2.5/0.5/bw/001.png","","","appealing"
"","","","","","animation","298","2091392","0.0-298.0","1920x1080","","7737.100000000093","20","img/314/4.5/0.66667/bw/001.png","","","appealing"
"","","","","","animation","299","2095936","0.0-299.0","1920x1080","","4542.600000000093","39.81","img/314/5.5/0.5/bw/001.png","","","appealing"
"","","","","","animation","300","2101039","0.0-300.0","1920x1080","","5101.899999999674","70.24","img/314/5.5/2/bw/001.png","","","appealing"
"","","","","","animation","301","2105487","0.0-301.0","1920x1080","","4446","70.11","img/117/4/2/bw/001.png","","","appealing"
"","","","","","animation","302","2109839","0.0-302.0","1920x1080","","4351.5","60.45","img/314/4.5/2/bw/001.png","","","appealing"
"","","","","","animation","303","2113003","0.0-303.0","1920x1080","","3162.7999999998137","19.71","img/117/3.5/0.5/bw/001.png","","","appealing"
"","","","","","animation","304","2118338","0.0-304.0","1920x1080","","5339.299999999814","10.05","img/238/2.5/0.66667/bw/001.png","","","appealing"
"","","","","","animation","305","2122570","0.0-305.0","1920x1080","","4230.5","50.00","img/314/3.5/1.5/bw/001.png","","","appealing"
"","","","","","animation","306","2126420","0.0-306.0","1920x1080","","3849","30.16","img/117/3.5/1/bw/001.png","","","appealing"
"","","","","","animation","307","2130747","0.0-307.0","1920x1080","","4325.399999999907","25.40","img/117/4.5/0.5/bw/001.png","","","appealing"
"","","","","","animation","308","2134014","0.0-308.0","1920x1080","","3265.7000000001863","49.60","img/314/2.5/2/bw/001.png","","","appealing"
"","","","","","animation","309","2137547","0.0-309.0","1920x1080","","3532.100000000093","35.32","img/117/4/1/bw/001.png","","","appealing"
"","","","","","animation","310","2144964","0.0-310.0","1920x1080","","7415.399999999907","40","img/238/4/1/bw/001.png","","","appealing"
"","","","","","animation","311","2149138","0.0-311.0","1920x1080","","4172.199999999721","60.05","img/238/4.5/2/bw/001.png","","","appealing"
"","","","","","animation","312","2154097","0.0-312.0","1920x1080","","4958.200000000186","69.97","img/238/5.5/1/bw/001.png","","","appealing"
"","","","","","html-button-response","313","2172897","0.0-313.0","1920x1080","","18798.700000000186","","<div class=""intro"">You are about to view a new series of animations.<br><br></div><div class=""intro"">You will evaluate them based on a different descriptor.<br><br></div><div class=""intro"">Move the slider to indicate how <strong style=""text-transform:capitalize"">INTERESTING</strong> you find each animation.<br><br></div><div class=""intro"">0 = Least Interesting<br></div><div class=""intro"">1 = Most Interesting<br><br></div><div class=""intro"">Remember to use the <strong><em>entire range</em></strong> of the slider to make your ratings.<br></div><div class=""intro"">Please <strong><em>take your time</em></strong> and carefully consider each rating you make.<br><br></div>","0","",""
"","","","","","call-function","314","2172898","0.0-314.0","1920x1080","","","","","","",""
"","","","","","animation","315","2181108","0.0-315.0","1920x1080","","8214.899999999907","50","img/314/2.5/0.5/bw/001.png","","","interesting"
"","","","","","animation","316","2200132","0.0-316.0","1920x1080","","19023","20.24","img/314/5.5/1.5/bw/001.png","","","interesting"
"","","","","","animation","317","2205148","0.0-317.0","1920x1080","","5014.399999999907","89.68","img/314/3.5/1/bw/001.png","","","interesting"
"","","","","","animation","318","2215125","0.0-318.0","1920x1080","","9975.100000000093","20.37","img/238/3.5/0.5/bw/001.png","","","interesting"
"","","","","","animation","319","2221008","0.0-319.0","1920x1080","","5881.899999999907","79.89","img/238/4.5/2/bw/001.png","","","interesting"
"","","","","","animation","320","2228241","0.0-320.0","1920x1080","","7231.799999999814","100","img/314/2.5/1.5/bw/001.png","","","interesting"
"","","","","","animation","321","2233291","0.0-321.0","1920x1080","","5048","60.19","img/314/5.5/0.66667/bw/001.png","","","interesting"
"","","","","","animation","322","2239382","0.0-322.0","1920x1080","","6082.5","69.71","img/314/4.5/2/bw/001.png","","","interesting"
"","","","","","animation","323","2245415","0.0-323.0","1920x1080","","6031.699999999721","90","img/117/2.5/2/bw/001.png","","","interesting"
"","","","","","animation","324","2251798","0.0-324.0","1920x1080","","6381.399999999907","79.63","img/238/4.5/1/bw/001.png","","","interesting"
"","","","","","animation","325","2254932","0.0-325.0","1920x1080","","3132.100000000093","69.84","img/238/4/1/bw/001.png","","","interesting"
"","","","","","animation","326","2259451","0.0-326.0","1920x1080","","4517.600000000093","60.45","img/238/4/1.5/bw/001.png","","","interesting"
"","","","","","animation","327","2264339","0.0-327.0","1920x1080","","4887","100","img/238/2.5/2/bw/001.png","","","interesting"
"","","","","","animation","328","2268982","0.0-328.0","1920x1080","","4641.200000000186","39.95","img/117/2.5/0.5/bw/001.png","","","interesting"
"","","","","","animation","329","2273715","0.0-329.0","1920x1080","","4731.199999999721","50.26","img/117/5.5/2/bw/001.png","","","interesting"
"","","","","","animation","330","2278699","0.0-330.0","1920x1080","","4982.5","49.87","img/117/5.5/0.5/bw/001.png","","","interesting"
"","","","","","animation","331","2283467","0.0-331.0","1920x1080","","4766.600000000093","60.32","img/314/4.5/1.5/bw/001.png","","","interesting"
"","","","","","animation","332","2288500","0.0-332.0","1920x1080","","5031.100000000093","39.95","img/314/3.5/0.66667/bw/001.png","","","interesting"
"","","","","","animation","333","2293332","0.0-333.0","1920x1080","","4829.600000000093","91","img/117/2.5/1/bw/001.png","","","interesting"
"","","","","","animation","334","2301287","0.0-334.0","1920x1080","","7965.299999999814","50","img/117/4.5/0.66667/bw/001.png","","","interesting"
"","","","","","animation","335","2305144","0.0-335.0","1920x1080","","3854.899999999907","69.84","img/117/4.5/2/bw/001.png","","","interesting"
"","","","","","animation","336","2308671","0.0-336.0","1920x1080","","3526","50.26","img/314/4/1/bw/001.png","","","interesting"
"","","","","","animation","337","2313639","0.0-337.0","1920x1080","","4966.800000000279","40.08","img/238/3.5/1/bw/001.png","","","interesting"
"","","","","","animation","338","2348087","0.0-338.0","1920x1080","","34446.5","80","img/117/3.5/1.5/bw/001.png","","","interesting"
"","","","","","animation","339","2352195","0.0-339.0","1920x1080","","4106","69.84","img/117/4/1.5/bw/001.png","","","interesting"
"","","","","","animation","340","2355528","0.0-340.0","1920x1080","","3331.7000000001863","50.40","img/314/4/0.66667/bw/001.png","","","interesting"
"","","","","","animation","341","2359249","0.0-341.0","1920x1080","","3723.899999999907","40.74","img/238/4/0.5/bw/001.png","","","interesting"
"","","","","","animation","342","2363576","0.0-342.0","1920x1080","","4326","30.03","img/117/2.5/0.66667/bw/001.png","","","interesting"
"","","","","","animation","343","2367706","0.0-343.0","1920x1080","","4127.700000000186","50.00","img/238/5.5/2/bw/001.png","","","interesting"
"","","","","","animation","344","2371971","0.0-344.0","1920x1080","","4264.5","40.34","img/238/3.5/0.66667/bw/001.png","","","interesting"
"","","","","","animation","345","2375355","0.0-345.0","1920x1080","","3382.5","60.05","img/238/5.5/1.5/bw/001.png","","","interesting"
"","","","","","animation","346","2378566","0.0-346.0","1920x1080","","3209.600000000093","69.71","img/314/5.5/1/bw/001.png","","","interesting"
"","","","","","animation","347","2381933","0.0-347.0","1920x1080","","3365.2000000001863","50.26","img/314/5.5/2/bw/001.png","","","interesting"
"","","","","","animation","348","2394367","0.0-348.0","1920x1080","","12432.69999999972","60","img/117/4.5/1/bw/001.png","","","interesting"
"","","","","","animation","349","2400200","0.0-349.0","1920x1080","","5831.4000000003725","35.05","img/117/4/0.5/bw/001.png","","","interesting"
"","","","","","animation","350","2403187","0.0-350.0","1920x1080","","2986.2999999998137","50.26","img/238/4.5/0.66667/bw/001.png","","","interesting"
"","","","","","animation","351","2406451","0.0-351.0","1920x1080","","3263","50.00","img/238/5.5/1/bw/001.png","","","interesting"
"","","","","","animation","352","2410899","0.0-352.0","1920x1080","","4445.199999999721","79.50","img/314/3.5/1.5/bw/001.png","","","interesting"
"","","","","","animation","353","2416532","0.0-353.0","1920x1080","","5631.899999999907","29.76","img/314/3.5/0.5/bw/001.png","","","interesting"
"","","","","","animation","354","2420058","0.0-354.0","1920x1080","","3524.2000000001863","59.79","img/117/4/2/bw/001.png","","","interesting"
"","","","","","animation","355","2425299","0.0-355.0","1920x1080","","5239.100000000093","69.97","img/117/3.5/2/bw/001.png","","","interesting"
"","","","","","animation","356","2428849","0.0-356.0","1920x1080","","3548.7999999998137","50.00","img/117/5.5/1/bw/001.png","","","interesting"
"","","","","","animation","357","2432874","0.0-357.0","1920x1080","","4023.7000000001863","49.74","img/238/5.5/0.66667/bw/001.png","","","interesting"
"","","","","","animation","358","2437699","0.0-358.0","1920x1080","","4823.299999999814","89.95","img/314/2.5/2/bw/001.png","","","interesting"
"","","","","","animation","359","2450717","0.0-359.0","1920x1080","","13016","70.24","img/314/4.5/0.66667/bw/001.png","","","interesting"
"","","","","","animation","360","2454260","0.0-360.0","1920x1080","","3542.3000000002794","49.87","img/117/5.5/0.66667/bw/001.png","","","interesting"
"","","","","","animation","361","2458927","0.0-361.0","1920x1080","","4665.600000000093","80.03","img/238/3.5/2/bw/001.png","","","interesting"
"","","","","","animation","362","2463658","0.0-362.0","1920x1080","","4728.899999999907","70.24","img/314/3.5/2/bw/001.png","","","interesting"
"","","","","","animation","363","2473083","0.0-363.0","1920x1080","","9423.399999999907","34","img/314/4/0.5/bw/001.png","","","interesting"
"","","","","","animation","364","2477267","0.0-364.0","1920x1080","","4182.800000000279","49.87","img/117/3.5/0.66667/bw/001.png","","","interesting"
"","","","","","animation","365","2480711","0.0-365.0","1920x1080","","3431.5","49.87","img/314/4.5/1/bw/001.png","","","interesting"
"","","","","","animation","366","2483994","0.0-366.0","1920x1080","","3282","9.79","img/238/2.5/0.5/bw/001.png","","","interesting"
"","","","","","animation","367","2487145","0.0-367.0","1920x1080","","3148.100000000093","19.97","img/117/4.5/0.5/bw/001.png","","","interesting"
"","","","","","animation","368","2495098","0.0-368.0","1920x1080","","7950.899999999907","44.84","img/238/4/2/bw/001.png","","","interesting"
"","","","","","animation","369","2501414","0.0-369.0","1920x1080","","6315.100000000093","60.05","img/117/4.5/1.5/bw/001.png","","","interesting"
"","","","","","animation","370","2504614","0.0-370.0","1920x1080","","3198.600000000093","49.74","img/314/4/1.5/bw/001.png","","","interesting"
"","","","","","animation","371","2509111","0.0-371.0","1920x1080","","4495.799999999814","40.08","img/314/4.5/0.5/bw/001.png","","","interesting"
"","","","","","animation","372","2515818","0.0-372.0","1920x1080","","6703.5","20.11","img/314/2.5/0.66667/bw/001.png","","","interesting"
"","","","","","animation","373","2520342","0.0-373.0","1920x1080","","4522.100000000093","29.76","img/314/4/2/bw/001.png","","","interesting"
"","","","","","animation","374","2529994","0.0-374.0","1920x1080","","9650.899999999907","60.05","img/238/4.5/1.5/bw/001.png","","","interesting"
"","","","","","animation","375","2534594","0.0-375.0","1920x1080","","4598.5999999996275","39.55","img/117/4/0.66667/bw/001.png","","","interesting"
"","","","","","animation","376","2539873","0.0-376.0","1920x1080","","5282.100000000093","40.48","img/117/4/1/bw/001.png","","","interesting"
"","","","","","animation","377","2545339","0.0-377.0","1920x1080","","5464.399999999907","89.55","img/117/2.5/1.5/bw/001.png","","","interesting"
"","","","","","animation","378","2551707","0.0-378.0","1920x1080","","6365.799999999814","74.87","img/117/5.5/1.5/bw/001.png","","","interesting"
"","","","","","animation","379","2559755","0.0-379.0","1920x1080","","8046.199999999721","79.89","img/117/3.5/1/bw/001.png","","","interesting"
"","","","","","animation","380","2564793","0.0-380.0","1920x1080","","5036.100000000093","59.66","img/314/5.5/0.5/bw/001.png","","","interesting"
"","","","","","animation","381","2569822","0.0-381.0","1920x1080","","5027.600000000093","96","img/238/2.5/1.5/bw/001.png","","","interesting"
"","","","","","animation","382","2574839","0.0-382.0","1920x1080","","5015.200000000186","10.32","img/238/2.5/0.66667/bw/001.png","","","interesting"
"","","","","","animation","383","2578722","0.0-383.0","1920x1080","","3881.399999999907","30.16","img/238/3.5/1.5/bw/001.png","","","interesting"
"","","","","","animation","384","2582196","0.0-384.0","1920x1080","","3473","40.34","img/238/5.5/0.5/bw/001.png","","","interesting"
"","","","","","animation","385","2586816","0.0-385.0","1920x1080","","4618.5","19.71","img/117/3.5/0.5/bw/001.png","","","interesting"
"","","","","","animation","386","2590399","0.0-386.0","1920x1080","","3581.7000000001863","49.74","img/314/2.5/1/bw/001.png","","","interesting"
"","","","","","animation","387","2593971","0.0-387.0","1920x1080","","3570.899999999907","30.16","img/238/4/0.66667/bw/001.png","","","interesting"
"","","","","","animation","388","2603830","0.0-388.0","1920x1080","","9852.399999999907","27.78","img/238/4.5/0.5/bw/001.png","","","interesting"
"","","","","","animation","389","2609244","0.0-389.0","1920x1080","","5412.5","70.37","img/238/2.5/1/bw/001.png","","","interesting"
"","","","","","html-button-response","390","2648996","0.0-390.0","1920x1080","","39749.89999999991","","<strong>Study Debriefing</strong><br><p class=""debrief""><strong>Background:</strong> The patterns you rated are called <em>fractals</em>. The term fractal describes a class of irregular curves or shapes for which any suitably chosen part is similar in shape to a given larger or smaller part when magnified or reduced to the same size. Fractal properties are found throughout the natural and manmade world. The series of animations you saw today displayed animated fractal patterns of a varying complexity.</p><p class=""debrief""><strong>Purpose of this study:</strong> We hope to better understand how the perception of static fractals differs from the perception of animated fractals, and how the speed of the animated patterns influences people&apos;s perception of them. Fractals allow us to study the perception of aesthetic properties (e.g. the perceived level of beauty in an image) without using recognizable content, which makes them an excellent tool for studying abstract aesthetic judgement.</p><p class=""debrief""><strong>Your part:</strong> Your participation has helped us to further understand how humans perceive these patterns across different levels of speed and complexity. This research with allow us to better understand how the visual system and brain process our ever-changing visual environments.<p class=""debrief""><strong>Feedback and Further information:</strong> If you have additional questions about this study, please feel free to ask the researcher, Nathan Gonzales-Hess at nhess @ uoregon.edu. If you have any questions concerning your rights as a research participant, please contact Research Compliance Services, 5237 University of Oregon, Eugene, OR 97403, 541-346-2510, or email researchCompliance @ uoregon.edu. You can also email the Human Subjects Coordinator for psychology and linguistics research at hscoord @ uoregon.edu. ","0","",""
"","","","","","html-button-response","391","2655735","0.0-391.0","1920x1080","","6735.600000000093","","Thank you for participating in this study. <br>Please click below to finish the experiment and submit your responses.<br><br>","0","",""
"true","","","","","fullscreen","392","2656753","0.0-392.0","1920x1080","10:39 24/10/2022","","","","","",""
