"success","timeout","failed_images","failed_audio","failed_video","trial_type","trial_index","time_elapsed","internal_node_id","resolution","timeStamp","rt","response","stimulus","button_pressed","value","descriptor"
"true","false","[]","[]","[]","preload","0","6056","0.0-0.0","1920x1080","","","","","","",""
"true","false","[]","[]","[]","preload","1","12239","0.0-1.0","1920x1080","","","","","","",""
"true","false","[]","[]","[]","preload","2","18471","0.0-2.0","1920x1080","","","","","","",""
"true","","","","","fullscreen","3","3605314","0.0-3.0","1920x1080","12:49 18/10/2022","","","","","",""
"","","","","","survey-html-form","4","3617062","0.0-4.0","1920x1080","","11745.5","{""age"":""18"",""gender"":""Female""}","","","",""
"","","","","","html-button-response","5","3675825","0.0-5.0","1920x1080","","58758.799999999814","","<div class=""complex"">You are going to see a series of animations.<br><br></div><div class=""complex"">Move the slider to indicate how <strong style=""text-transform:capitalize"">COMPLEX</strong> you find each animation.<br><br></div><div class=""complex"">0 = Least Complex<br></div><div class=""complex"">1 = Most Complex<br><br></div><div class=""complex"">Remember to use the <strong><em>entire range</em></strong> of the slider to make your ratings.<br></div><div class=""complex"">Please <strong><em>take your time</em></strong> and carefully consider each rating you make.<br><br></div><div class=""complex"">The study has five sections and will take about 45 minutes to complete.<br><br></div>","0","",""
"","","","","","call-function","6","3675825","0.0-6.0","1920x1080","","","","","","",""
"","","","","","animation","7","3689305","0.0-7.0","1920x1080","","13476.700000000186","18.39","img/117/5.5/0.5/bw/001.png","","","complex"
"","","","","","animation","8","3705040","0.0-8.0","1920x1080","","15734.5","19.18","img/314/4.5/0.5/bw/001.png","","","complex"
"","","","","","animation","9","3714672","0.0-9.0","1920x1080","","9630.900000000373","27.65","img/117/5.5/1/bw/001.png","","","complex"
"","","","","","animation","10","3729831","0.0-10.0","1920x1080","","15159.399999999441","55.16","img/314/2.5/1.5/bw/001.png","","","complex"
"","","","","","animation","11","3739038","0.0-11.0","1920x1080","","9206.700000000186","15.08","img/314/5.5/1/bw/001.png","","","complex"
"","","","","","animation","12","3744926","0.0-12.0","1920x1080","","5887.4000000003725","70.50","img/117/2.5/0.66667/bw/001.png","","","complex"
"","","","","","animation","13","3752631","0.0-13.0","1920x1080","","7703.4000000003725","50.26","img/117/4/2/bw/001.png","","","complex"
"","","","","","animation","14","3760558","0.0-14.0","1920x1080","","7927","71","img/238/2.5/0.66667/bw/001.png","","","complex"
"","","","","","animation","15","3771415","0.0-15.0","1920x1080","","10855.200000000186","67","img/238/2.5/2/bw/001.png","","","complex"
"","","","","","animation","16","3778734","0.0-16.0","1920x1080","","7318.5","34.92","img/117/5.5/1.5/bw/001.png","","","complex"
"","","","","","animation","17","3784230","0.0-17.0","1920x1080","","5495.199999999255","45.37","img/238/3.5/1/bw/001.png","","","complex"
"","","","","","animation","18","3789629","0.0-18.0","1920x1080","","5399","56.08","img/117/4/1.5/bw/001.png","","","complex"
"","","","","","animation","19","3794701","0.0-19.0","1920x1080","","5071.200000000186","65.74","img/314/3.5/0.66667/bw/001.png","","","complex"
"","","","","","animation","20","3802237","0.0-20.0","1920x1080","","7535.0999999996275","51.59","img/117/4.5/1.5/bw/001.png","","","complex"
"","","","","","animation","21","3807021","0.0-21.0","1920x1080","","4783","74.34","img/117/2.5/1.5/bw/001.png","","","complex"
"","","","","","animation","22","3812941","0.0-22.0","1920x1080","","5919.299999999814","60.19","img/314/4/0.5/bw/001.png","","","complex"
"","","","","","animation","23","3826237","0.0-23.0","1920x1080","","13295.200000000186","2","img/238/5.5/0.5/bw/001.png","","","complex"
"","","","","","animation","24","3832693","0.0-24.0","1920x1080","","6455.199999999255","78.70","img/117/2.5/2/bw/001.png","","","complex"
"","","","","","animation","25","3839973","0.0-25.0","1920x1080","","7279.299999999814","47.09","img/314/4.5/2/bw/001.png","","","complex"
"","","","","","animation","26","3844397","0.0-26.0","1920x1080","","4422.9000000003725","54.10","img/314/4/2/bw/001.png","","","complex"
"","","","","","animation","27","3864154","0.0-27.0","1920x1080","","19759.299999999814","6","img/314/5.5/2/bw/001.png","","","complex"
"","","","","","animation","28","3891362","0.0-28.0","1920x1080","","27207.299999999814","21.56","img/238/5.5/1/bw/001.png","","","complex"
"","","","","","animation","29","3907701","0.0-29.0","1920x1080","","16343","81","img/238/2.5/1/bw/001.png","","","complex"
"","","","","","animation","30","3920141","0.0-30.0","1920x1080","","12439.799999999814","21.69","img/117/5.5/0.66667/bw/001.png","","","complex"
"","","","","","animation","31","3936358","0.0-31.0","1920x1080","","16215.299999999814","71","img/117/3.5/1/bw/001.png","","","complex"
"","","","","","animation","32","3939909","0.0-32.0","1920x1080","","3550.100000000559","87.96","img/238/2.5/0.5/bw/001.png","","","complex"
"","","","","","animation","33","3945245","0.0-33.0","1920x1080","","5335.0999999996275","78.57","img/117/4/0.5/bw/001.png","","","complex"
"","","","","","animation","34","3979353","0.0-34.0","1920x1080","","34102.40000000037","46.96","img/117/4/1/bw/001.png","","","complex"
"","","","","","animation","35","3984442","0.0-35.0","1920x1080","","5087.200000000186","86.64","img/314/3.5/0.5/bw/001.png","","","complex"
"","","","","","animation","36","3989218","0.0-36.0","1920x1080","","4775.100000000559","52.51","img/117/4.5/1/bw/001.png","","","complex"
"","","","","","animation","37","3992801","0.0-37.0","1920x1080","","3582.600000000559","60.85","img/117/3.5/1.5/bw/001.png","","","complex"
"","","","","","animation","38","3999178","0.0-38.0","1920x1080","","6376","67.99","img/314/3.5/1/bw/001.png","","","complex"
"","","","","","animation","39","4005995","0.0-39.0","1920x1080","","6816.0999999996275","78","img/238/2.5/1.5/bw/001.png","","","complex"
"","","","","","animation","40","4012322","0.0-40.0","1920x1080","","6326.0999999996275","82","img/314/2.5/2/bw/001.png","","","complex"
"","","","","","animation","41","4018385","0.0-41.0","1920x1080","","6062.700000000186","87.70","img/314/2.5/1/bw/001.png","","","complex"
"","","","","","animation","42","4028456","0.0-42.0","1920x1080","","10071.299999999814","15","img/238/4.5/1.5/bw/001.png","","","complex"
"","","","","","animation","43","4037616","0.0-43.0","1920x1080","","9159.299999999814","18.12","img/238/4.5/2/bw/001.png","","","complex"
"","","","","","animation","44","4045711","0.0-44.0","1920x1080","","8094.899999999441","20.24","img/117/4.5/2/bw/001.png","","","complex"
"","","","","","animation","45","4052016","0.0-45.0","1920x1080","","6303.5","39","img/314/3.5/2/bw/001.png","","","complex"
"","","","","","animation","46","4062888","0.0-46.0","1920x1080","","10871.200000000186","37.96","img/238/4.5/1/bw/001.png","","","complex"
"","","","","","animation","47","4073727","0.0-47.0","1920x1080","","10838.599999999627","28.04","img/238/4.5/0.5/bw/001.png","","","complex"
"","","","","","animation","48","4079968","0.0-48.0","1920x1080","","6239.600000000559","36.11","img/238/4/1/bw/001.png","","","complex"
"","","","","","animation","49","4088608","0.0-49.0","1920x1080","","8640.799999999814","39.68","img/238/4/1.5/bw/001.png","","","complex"
"","","","","","animation","50","4092126","0.0-50.0","1920x1080","","3517","43.39","img/238/4/0.66667/bw/001.png","","","complex"
"","","","","","animation","51","4100270","0.0-51.0","1920x1080","","8143","48","img/117/4/0.66667/bw/001.png","","","complex"
"","","","","","animation","52","4107166","0.0-52.0","1920x1080","","6895","60.85","img/117/3.5/0.66667/bw/001.png","","","complex"
"","","","","","animation","53","4113254","0.0-53.0","1920x1080","","6085.800000000745","28.57","img/117/4.5/0.66667/bw/001.png","","","complex"
"","","","","","animation","54","4119509","0.0-54.0","1920x1080","","6254.699999999255","51.59","img/314/3.5/1.5/bw/001.png","","","complex"
"","","","","","animation","55","4156083","0.0-55.0","1920x1080","","36575.299999999814","17.46","img/314/5.5/1.5/bw/001.png","","","complex"
"","","","","","animation","56","4160067","0.0-56.0","1920x1080","","3982.7999999998137","88.62","img/314/2.5/0.5/bw/001.png","","","complex"
"","","","","","animation","57","4163205","0.0-57.0","1920x1080","","3136.7999999998137","80.95","img/238/3.5/0.5/bw/001.png","","","complex"
"","","","","","animation","58","4165667","0.0-58.0","1920x1080","","2461.600000000559","71.69","img/314/4.5/0.66667/bw/001.png","","","complex"
"","","","","","animation","59","4171606","0.0-59.0","1920x1080","","5937.199999999255","34.13","img/238/4/2/bw/001.png","","","complex"
"","","","","","animation","60","4175299","0.0-60.0","1920x1080","","3692.5","45.63","img/117/3.5/2/bw/001.png","","","complex"
"","","","","","animation","61","4188757","0.0-61.0","1920x1080","","13456.799999999814","12.83","img/238/5.5/0.66667/bw/001.png","","","complex"
"","","","","","animation","62","4198499","0.0-62.0","1920x1080","","9741.600000000559","17","img/314/5.5/0.5/bw/001.png","","","complex"
"","","","","","animation","63","4208799","0.0-63.0","1920x1080","","10294.400000000373","47.62","img/238/3.5/2/bw/001.png","","","complex"
"","","","","","animation","64","4227479","0.0-64.0","1920x1080","","18677.800000000745","23.02","img/314/5.5/0.66667/bw/001.png","","","complex"
"","","","","","animation","65","4232376","0.0-65.0","1920x1080","","4896.899999999441","37.96","img/314/4.5/1/bw/001.png","","","complex"
"","","","","","animation","66","4237247","0.0-66.0","1920x1080","","4869","44","img/314/4/1.5/bw/001.png","","","complex"
"","","","","","animation","67","4242793","0.0-67.0","1920x1080","","5545.299999999814","74.87","img/238/3.5/0.66667/bw/001.png","","","complex"
"","","","","","animation","68","4245831","0.0-68.0","1920x1080","","3036.7000000001863","65.87","img/238/3.5/1.5/bw/001.png","","","complex"
"","","","","","animation","69","4277286","0.0-69.0","1920x1080","","31455.300000000745","12.43","img/238/5.5/1.5/bw/001.png","","","complex"
"","","","","","animation","70","4291750","0.0-70.0","1920x1080","","14462.900000000373","61.64","img/314/4/1/bw/001.png","","","complex"
"","","","","","animation","71","4305878","0.0-71.0","1920x1080","","14126.200000000186","10.98","img/117/5.5/2/bw/001.png","","","complex"
"","","","","","animation","72","4311198","0.0-72.0","1920x1080","","5319.5","89.42","img/314/2.5/0.66667/bw/001.png","","","complex"
"","","","","","animation","73","4316614","0.0-73.0","1920x1080","","5414.700000000186","39.68","img/314/4.5/1.5/bw/001.png","","","complex"
"","","","","","animation","74","4319662","0.0-74.0","1920x1080","","3046.5","43.92","img/238/4.5/0.66667/bw/001.png","","","complex"
"","","","","","animation","75","4322998","0.0-75.0","1920x1080","","3335.5999999996275","50.00","img/314/4/0.66667/bw/001.png","","","complex"
"","","","","","animation","76","4325941","0.0-76.0","1920x1080","","2943.899999999441","53.17","img/117/3.5/0.5/bw/001.png","","","complex"
"","","","","","animation","77","4333276","0.0-77.0","1920x1080","","7334.200000000186","79.63","img/117/2.5/0.5/bw/001.png","","","complex"
"","","","","","animation","78","4342292","0.0-78.0","1920x1080","","9014.800000000745","42.46","img/117/4.5/0.5/bw/001.png","","","complex"
"","","","","","animation","79","4347749","0.0-79.0","1920x1080","","5455.4000000003725","91.93","img/117/2.5/1/bw/001.png","","","complex"
"","","","","","animation","80","4361428","0.0-80.0","1920x1080","","13678.200000000186","10.71","img/238/5.5/2/bw/001.png","","","complex"
"","","","","","animation","81","4364391","0.0-81.0","1920x1080","","2962","34.52","img/238/4/0.5/bw/001.png","","","complex"
"","","","","","html-button-response","82","4383558","0.0-82.0","1920x1080","","19165.199999999255","","<div class=""intro"">You are about to view a new series of animations.<br><br></div><div class=""intro"">You will evaluate them based on a different descriptor.<br><br></div><div class=""intro"">Move the slider to indicate how <strong style=""text-transform:capitalize"">APPEALING</strong> you find each animation.<br><br></div><div class=""intro"">0 = Least Appealing<br></div><div class=""intro"">1 = Most Appealing<br><br></div><div class=""intro"">Remember to use the <strong><em>entire range</em></strong> of the slider to make your ratings.<br></div><div class=""intro"">Please <strong><em>take your time</em></strong> and carefully consider each rating you make.<br><br></div>","0","",""
"","","","","","call-function","83","4383559","0.0-83.0","1920x1080","","","","","","",""
"","","","","","animation","84","4397896","0.0-84.0","1920x1080","","14333.200000000186","75.13","img/238/5.5/1/bw/001.png","","","appealing"
"","","","","","animation","85","4410880","0.0-85.0","1920x1080","","12982.700000000186","72.62","img/117/5.5/0.66667/bw/001.png","","","appealing"
"","","","","","animation","86","4419017","0.0-86.0","1920x1080","","8135.5999999996275","7","img/238/2.5/1/bw/001.png","","","appealing"
"","","","","","animation","87","4422344","0.0-87.0","1920x1080","","3326.4000000003725","2.65","img/314/2.5/0.66667/bw/001.png","","","appealing"
"","","","","","animation","88","4430880","0.0-88.0","1920x1080","","8535.099999999627","79.37","img/314/5.5/0.5/bw/001.png","","","appealing"
"","","","","","animation","89","4456192","0.0-89.0","1920x1080","","25312.299999999814","40","img/238/3.5/2/bw/001.png","","","appealing"
"","","","","","animation","90","4467678","0.0-90.0","1920x1080","","11485.299999999814","54.50","img/238/5.5/0.66667/bw/001.png","","","appealing"
"","","","","","animation","91","4472871","0.0-91.0","1920x1080","","5191.299999999814","50.26","img/117/4/2/bw/001.png","","","appealing"
"","","","","","animation","92","4476246","0.0-92.0","1920x1080","","3374","54.76","img/314/4.5/1/bw/001.png","","","appealing"
"","","","","","animation","93","4481102","0.0-93.0","1920x1080","","4855.299999999814","31.88","img/238/4/0.66667/bw/001.png","","","appealing"
"","","","","","animation","94","4484214","0.0-94.0","1920x1080","","3110.300000000745","11.90","img/117/3.5/0.66667/bw/001.png","","","appealing"
"","","","","","animation","95","4496430","0.0-95.0","1920x1080","","12214.900000000373","27.38","img/117/5.5/0.5/bw/001.png","","","appealing"
"","","","","","animation","96","4510364","0.0-96.0","1920x1080","","13934.699999999255","25.26","img/238/5.5/0.5/bw/001.png","","","appealing"
"","","","","","animation","97","4519348","0.0-97.0","1920x1080","","8982.5","42.06","img/314/3.5/1.5/bw/001.png","","","appealing"
"","","","","","animation","98","4524812","0.0-98.0","1920x1080","","5462.9000000003725","37.83","img/117/3.5/1.5/bw/001.png","","","appealing"
"","","","","","animation","99","4607178","0.0-99.0","1920x1080","","82366.90000000037","94.58","img/314/5.5/2/bw/001.png","","","appealing"
"","","","","","animation","100","4610578","0.0-100.0","1920x1080","","3398.9000000003725","7.94","img/314/2.5/2/bw/001.png","","","appealing"
"","","","","","animation","101","4614454","0.0-101.0","1920x1080","","3875.0999999996275","27.51","img/238/4.5/0.66667/bw/001.png","","","appealing"
"","","","","","animation","102","4619987","0.0-102.0","1920x1080","","5532.399999999441","16.40","img/238/3.5/0.5/bw/001.png","","","appealing"
"","","","","","animation","103","4626137","0.0-103.0","1920x1080","","6147.800000000745","2","img/117/2.5/2/bw/001.png","","","appealing"
"","","","","","animation","104","4630913","0.0-104.0","1920x1080","","4775.5999999996275","11.90","img/314/4/1.5/bw/001.png","","","appealing"
"","","","","","animation","105","4658986","0.0-105.0","1920x1080","","28070.900000000373","0","img/314/2.5/0.5/bw/001.png","","","appealing"
"","","","","","animation","106","4666777","0.0-106.0","1920x1080","","7790.4000000003725","0","img/238/2.5/0.5/bw/001.png","","","appealing"
"","","","","","animation","107","4670521","0.0-107.0","1920x1080","","3742.5999999996275","8.20","img/238/3.5/0.66667/bw/001.png","","","appealing"
"","","","","","animation","108","4677338","0.0-108.0","1920x1080","","6816.200000000186","47.62","img/117/5.5/1/bw/001.png","","","appealing"
"","","","","","animation","109","4685289","0.0-109.0","1920x1080","","7948.9000000003725","50.13","img/117/5.5/2/bw/001.png","","","appealing"
"","","","","","animation","110","4689844","0.0-110.0","1920x1080","","4550.5","23.68","img/314/4/0.66667/bw/001.png","","","appealing"
"","","","","","animation","111","4693724","0.0-111.0","1920x1080","","3878.89999999851","14.81","img/117/4.5/0.5/bw/001.png","","","appealing"
"","","","","","animation","112","4703628","0.0-112.0","1920x1080","","9902.799999998882","58.99","img/238/5.5/1.5/bw/001.png","","","appealing"
"","","","","","animation","113","4726429","0.0-113.0","1920x1080","","22798.699999999255","45.77","img/314/4.5/1.5/bw/001.png","","","appealing"
"","","","","","animation","114","4734372","0.0-114.0","1920x1080","","7942.5999999996275","25.66","img/314/3.5/2/bw/001.png","","","appealing"
"","","","","","animation","115","4738892","0.0-115.0","1920x1080","","4518.799999998882","0","img/314/2.5/1/bw/001.png","","","appealing"
"","","","","","animation","116","4752970","0.0-116.0","1920x1080","","14079.5","24","img/314/4/2/bw/001.png","","","appealing"
"","","","","","animation","117","4756330","0.0-117.0","1920x1080","","3358.699999999255","1.32","img/117/2.5/1.5/bw/001.png","","","appealing"
"","","","","","animation","118","4760057","0.0-118.0","1920x1080","","3726.5999999996275","0","img/117/2.5/0.66667/bw/001.png","","","appealing"
"","","","","","animation","119","4769921","0.0-119.0","1920x1080","","9862.599999999627","76","img/117/5.5/1.5/bw/001.png","","","appealing"
"","","","","","animation","120","4775870","0.0-120.0","1920x1080","","5947.299999998882","32.14","img/238/4/1/bw/001.png","","","appealing"
"","","","","","animation","121","4782362","0.0-121.0","1920x1080","","6490.5","0.79","img/314/2.5/1.5/bw/001.png","","","appealing"
"","","","","","animation","122","4793155","0.0-122.0","1920x1080","","10791.099999999627","29.89","img/314/4/0.5/bw/001.png","","","appealing"
"","","","","","animation","123","4801889","0.0-123.0","1920x1080","","8732.799999998882","59.92","img/314/5.5/1/bw/001.png","","","appealing"
"","","","","","animation","124","4806846","0.0-124.0","1920x1080","","4951","49.07","img/238/4.5/0.5/bw/001.png","","","appealing"
"","","","","","animation","125","4817342","0.0-125.0","1920x1080","","10494.5","52.51","img/238/4.5/1.5/bw/001.png","","","appealing"
"","","","","","animation","126","4823094","0.0-126.0","1920x1080","","5750.799999998882","18.52","img/314/3.5/0.66667/bw/001.png","","","appealing"
"","","","","","animation","127","4827492","0.0-127.0","1920x1080","","4394.5999999996275","0.13","img/117/2.5/1/bw/001.png","","","appealing"
"","","","","","animation","128","4848350","0.0-128.0","1920x1080","","20856.5","50.53","img/238/5.5/2/bw/001.png","","","appealing"
"","","","","","animation","129","4856891","0.0-129.0","1920x1080","","8539.200000001118","1","img/117/2.5/0.5/bw/001.png","","","appealing"
"","","","","","animation","130","4860782","0.0-130.0","1920x1080","","3890.300000000745","36.77","img/238/4/2/bw/001.png","","","appealing"
"","","","","","animation","131","4869789","0.0-131.0","1920x1080","","9007.5","46","img/238/4/1.5/bw/001.png","","","appealing"
"","","","","","animation","132","4894933","0.0-132.0","1920x1080","","25142.900000000373","51","img/117/4/0.5/bw/001.png","","","appealing"
"","","","","","animation","133","4902689","0.0-133.0","1920x1080","","7752","41.93","img/117/4/0.66667/bw/001.png","","","appealing"
"","","","","","animation","134","4914613","0.0-134.0","1920x1080","","11922.400000000373","53.44","img/117/4/1.5/bw/001.png","","","appealing"
"","","","","","animation","135","4927739","0.0-135.0","1920x1080","","13126","30","img/238/4/0.5/bw/001.png","","","appealing"
"","","","","","animation","136","4930196","0.0-136.0","1920x1080","","2455.5999999996275","2.91","img/238/2.5/0.66667/bw/001.png","","","appealing"
"","","","","","animation","137","4940291","0.0-137.0","1920x1080","","10094.199999999255","52.78","img/314/5.5/0.66667/bw/001.png","","","appealing"
"","","","","","animation","138","4950076","0.0-138.0","1920x1080","","9783.400000000373","65.61","img/238/4.5/2/bw/001.png","","","appealing"
"","","","","","animation","139","4953332","0.0-139.0","1920x1080","","3255","20","img/314/3.5/0.5/bw/001.png","","","appealing"
"","","","","","animation","140","4955856","0.0-140.0","1920x1080","","2522.5","5.95","img/238/2.5/1.5/bw/001.png","","","appealing"
"","","","","","animation","141","4961356","0.0-141.0","1920x1080","","5499.0999999996275","12","img/117/3.5/0.5/bw/001.png","","","appealing"
"","","","","","animation","142","4965916","0.0-142.0","1920x1080","","4559","16.93","img/314/4.5/0.66667/bw/001.png","","","appealing"
"","","","","","animation","143","4970380","0.0-143.0","1920x1080","","4463","22.62","img/117/4/1/bw/001.png","","","appealing"
"","","","","","animation","144","4974612","0.0-144.0","1920x1080","","4230.0999999996275","22.49","img/238/3.5/1.5/bw/001.png","","","appealing"
"","","","","","animation","145","4981158","0.0-145.0","1920x1080","","6545.300000000745","25.00","img/117/3.5/2/bw/001.png","","","appealing"
"","","","","","animation","146","4984492","0.0-146.0","1920x1080","","3332.4000000003725","14.68","img/314/4/1/bw/001.png","","","appealing"
"","","","","","animation","147","4989205","0.0-147.0","1920x1080","","4714.199999999255","35.32","img/117/4.5/0.66667/bw/001.png","","","appealing"
"","","","","","animation","148","4993690","0.0-148.0","1920x1080","","4483.200000001118","38.36","img/314/4.5/0.5/bw/001.png","","","appealing"
"","","","","","animation","149","5000194","0.0-149.0","1920x1080","","6503.299999998882","14","img/238/3.5/1/bw/001.png","","","appealing"
"","","","","","animation","150","5005871","0.0-150.0","1920x1080","","5674.9000000003725","43.92","img/117/4.5/1/bw/001.png","","","appealing"
"","","","","","animation","151","5008653","0.0-151.0","1920x1080","","2781.699999999255","16.27","img/314/3.5/1/bw/001.png","","","appealing"
"","","","","","animation","152","5018238","0.0-152.0","1920x1080","","9584","71","img/117/4.5/1.5/bw/001.png","","","appealing"
"","","","","","animation","153","5027642","0.0-153.0","1920x1080","","9402.699999999255","85.98","img/117/4.5/2/bw/001.png","","","appealing"
"","","","","","animation","154","5039778","0.0-154.0","1920x1080","","12134.699999999255","9","img/238/2.5/2/bw/001.png","","","appealing"
"","","","","","animation","155","5048407","0.0-155.0","1920x1080","","8623.900000000373","70.77","img/314/4.5/2/bw/001.png","","","appealing"
"","","","","","animation","156","5053381","0.0-156.0","1920x1080","","4972.199999999255","37.04","img/117/3.5/1/bw/001.png","","","appealing"
"","","","","","animation","157","5065549","0.0-157.0","1920x1080","","12167","68","img/238/4.5/1/bw/001.png","","","appealing"
"","","","","","animation","158","5123287","0.0-158.0","1920x1080","","57738","86.24","img/314/5.5/1.5/bw/001.png","","","appealing"
"","","","","","html-button-response","159","5143156","0.0-159.0","1920x1080","","19867.599999999627","","<div class=""intro"">You are about to view a new series of animations.<br><br></div><div class=""intro"">You will evaluate them based on a different descriptor.<br><br></div><div class=""intro"">Move the slider to indicate how <strong style=""text-transform:capitalize"">INTERESTING</strong> you find each animation.<br><br></div><div class=""intro"">0 = Least Interesting<br></div><div class=""intro"">1 = Most Interesting<br><br></div><div class=""intro"">Remember to use the <strong><em>entire range</em></strong> of the slider to make your ratings.<br></div><div class=""intro"">Please <strong><em>take your time</em></strong> and carefully consider each rating you make.<br><br></div>","0","",""
"","","","","","call-function","160","5143157","0.0-160.0","1920x1080","","","","","","",""
"","","","","","animation","161","5152805","0.0-161.0","1920x1080","","9647.699999999255","7.67","img/117/3.5/0.66667/bw/001.png","","","interesting"
"","","","","","animation","162","5157323","0.0-162.0","1920x1080","","4517","4.76","img/314/3.5/0.5/bw/001.png","","","interesting"
"","","","","","animation","163","5160427","0.0-163.0","1920x1080","","3103","0.53","img/238/2.5/0.5/bw/001.png","","","interesting"
"","","","","","animation","164","5164321","0.0-164.0","1920x1080","","3892.2999999988824","31.75","img/117/4.5/1/bw/001.png","","","interesting"
"","","","","","animation","165","5169839","0.0-165.0","1920x1080","","5517.799999998882","1.72","img/117/2.5/0.66667/bw/001.png","","","interesting"
"","","","","","animation","166","5185687","0.0-166.0","1920x1080","","15846.60000000149","61.51","img/314/5.5/0.5/bw/001.png","","","interesting"
"","","","","","animation","167","5198347","0.0-167.0","1920x1080","","12658.400000000373","9.39","img/314/3.5/1/bw/001.png","","","interesting"
"","","","","","animation","168","5208907","0.0-168.0","1920x1080","","10558.300000000745","66.27","img/238/4.5/2/bw/001.png","","","interesting"
"","","","","","animation","169","5225020","0.0-169.0","1920x1080","","16112.700000001118","54.23","img/314/4.5/1/bw/001.png","","","interesting"
"","","","","","animation","170","5241390","0.0-170.0","1920x1080","","16365.5","33.99","img/238/4.5/0.66667/bw/001.png","","","interesting"
"","","","","","animation","171","5246856","0.0-171.0","1920x1080","","5465.800000000745","3.31","img/238/2.5/1/bw/001.png","","","interesting"
"","","","","","animation","172","5254781","0.0-172.0","1920x1080","","7923.700000001118","15.21","img/314/3.5/0.66667/bw/001.png","","","interesting"
"","","","","","animation","173","5275439","0.0-173.0","1920x1080","","20655.699999999255","60.98","img/314/4.5/1.5/bw/001.png","","","interesting"
"","","","","","animation","174","5279090","0.0-174.0","1920x1080","","3649.39999999851","4.89","img/314/2.5/1/bw/001.png","","","interesting"
"","","","","","animation","175","5306872","0.0-175.0","1920x1080","","27781.5","59.92","img/238/5.5/1.5/bw/001.png","","","interesting"
"","","","","","animation","176","5311240","0.0-176.0","1920x1080","","4366.199999999255","4.10","img/117/2.5/1.5/bw/001.png","","","interesting"
"","","","","","animation","177","5315239","0.0-177.0","1920x1080","","3997.4000000003725","2.65","img/117/2.5/1/bw/001.png","","","interesting"
"","","","","","animation","178","5319673","0.0-178.0","1920x1080","","4433.299999998882","15.87","img/117/4.5/1.5/bw/001.png","","","interesting"
"","","","","","animation","179","5324273","0.0-179.0","1920x1080","","4598","1.19","img/238/2.5/2/bw/001.png","","","interesting"
"","","","","","animation","180","5333565","0.0-180.0","1920x1080","","9290.300000000745","51.72","img/117/4.5/2/bw/001.png","","","interesting"
"","","","","","animation","181","5338309","0.0-181.0","1920x1080","","4742.300000000745","0.79","img/314/2.5/0.66667/bw/001.png","","","interesting"
"","","","","","animation","182","5353291","0.0-182.0","1920x1080","","14983.10000000149","70","img/117/5.5/0.5/bw/001.png","","","interesting"
"","","","","","animation","183","5360571","0.0-183.0","1920x1080","","7278.5","64.95","img/314/5.5/0.66667/bw/001.png","","","interesting"
"","","","","","animation","184","5381228","0.0-184.0","1920x1080","","20655.200000001118","75.66","img/117/5.5/2/bw/001.png","","","interesting"
"","","","","","animation","185","5401707","0.0-185.0","1920x1080","","20478.10000000149","66.40","img/117/5.5/1.5/bw/001.png","","","interesting"
"","","","","","animation","186","5411163","0.0-186.0","1920x1080","","9454.200000001118","10.85","img/238/3.5/0.66667/bw/001.png","","","interesting"
"","","","","","animation","187","5414971","0.0-187.0","1920x1080","","3806.800000000745","7.54","img/238/3.5/1/bw/001.png","","","interesting"
"","","","","","animation","188","5430736","0.0-188.0","1920x1080","","15764.099999999627","74.47","img/314/4/1.5/bw/001.png","","","interesting"
"","","","","","animation","189","5438354","0.0-189.0","1920x1080","","7616.800000000745","1.59","img/238/2.5/1.5/bw/001.png","","","interesting"
"","","","","","animation","190","5447503","0.0-190.0","1920x1080","","9147.200000001118","63.62","img/117/4.5/0.5/bw/001.png","","","interesting"
"","","","","","animation","191","5458870","0.0-191.0","1920x1080","","11366.599999999627","78.31","img/238/5.5/2/bw/001.png","","","interesting"
"","","","","","animation","192","5462669","0.0-192.0","1920x1080","","3797.7999999988824","33.86","img/238/3.5/2/bw/001.png","","","interesting"
"","","","","","animation","193","5466845","0.0-193.0","1920x1080","","4172","5.03","img/117/3.5/1.5/bw/001.png","","","interesting"
"","","","","","animation","194","5474857","0.0-194.0","1920x1080","","8010.10000000149","57.94","img/238/5.5/0.5/bw/001.png","","","interesting"
"","","","","","animation","195","5493923","0.0-195.0","1920x1080","","19064.099999999627","38.49","img/117/4/1/bw/001.png","","","interesting"
"","","","","","animation","196","5497939","0.0-196.0","1920x1080","","4015","4.23","img/314/2.5/0.5/bw/001.png","","","interesting"
"","","","","","animation","197","5505741","0.0-197.0","1920x1080","","7801","16","img/117/3.5/0.5/bw/001.png","","","interesting"
"","","","","","animation","198","5520557","0.0-198.0","1920x1080","","14812.900000000373","82","img/238/4/2/bw/001.png","","","interesting"
"","","","","","animation","199","5530245","0.0-199.0","1920x1080","","9687.599999999627","44.31","img/238/4.5/1/bw/001.png","","","interesting"
"","","","","","animation","200","5534861","0.0-200.0","1920x1080","","4614.700000001118","60.32","img/117/4/2/bw/001.png","","","interesting"
"","","","","","animation","201","5537906","0.0-201.0","1920x1080","","3043.199999999255","12.04","img/238/3.5/0.5/bw/001.png","","","interesting"
"","","","","","animation","202","5540472","0.0-202.0","1920x1080","","2565.5999999996275","4","img/314/2.5/2/bw/001.png","","","interesting"
"","","","","","animation","203","5547039","0.0-203.0","1920x1080","","6565.5","12.17","img/314/4/0.5/bw/001.png","","","interesting"
"","","","","","animation","204","5559757","0.0-204.0","1920x1080","","12716.599999999627","72.88","img/314/4.5/2/bw/001.png","","","interesting"
"","","","","","animation","205","5567509","0.0-205.0","1920x1080","","7750.699999999255","72.62","img/314/4/2/bw/001.png","","","interesting"
"","","","","","animation","206","5581622","0.0-206.0","1920x1080","","14111.799999998882","80","img/314/4/0.66667/bw/001.png","","","interesting"
"","","","","","animation","207","5594172","0.0-207.0","1920x1080","","12549.400000000373","34.39","img/238/3.5/1.5/bw/001.png","","","interesting"
"","","","","","animation","208","5599323","0.0-208.0","1920x1080","","5149.4000000003725","61","img/314/4/1/bw/001.png","","","interesting"
"","","","","","animation","209","5604441","0.0-209.0","1920x1080","","5116.60000000149","37.57","img/117/3.5/2/bw/001.png","","","interesting"
"","","","","","animation","210","5609156","0.0-210.0","1920x1080","","4713.199999999255","56.48","img/238/5.5/1/bw/001.png","","","interesting"
"","","","","","animation","211","5612988","0.0-211.0","1920x1080","","3831.4000000003725","71.43","img/117/5.5/0.66667/bw/001.png","","","interesting"
"","","","","","animation","212","5617255","0.0-212.0","1920x1080","","4265.5999999996275","32.54","img/238/4/0.66667/bw/001.png","","","interesting"
"","","","","","animation","213","5621293","0.0-213.0","1920x1080","","4036.5","65.08","img/314/5.5/1/bw/001.png","","","interesting"
"","","","","","animation","214","5628705","0.0-214.0","1920x1080","","7409.300000000745","84","img/314/5.5/1.5/bw/001.png","","","interesting"
"","","","","","animation","215","5631677","0.0-215.0","1920x1080","","2970.7000000011176","20.24","img/117/4/0.66667/bw/001.png","","","interesting"
"","","","","","animation","216","5636555","0.0-216.0","1920x1080","","4877.300000000745","11.11","img/117/4/0.5/bw/001.png","","","interesting"
"","","","","","animation","217","5643029","0.0-217.0","1920x1080","","6472.0999999996275","40","img/314/4.5/0.66667/bw/001.png","","","interesting"
"","","","","","animation","218","5647693","0.0-218.0","1920x1080","","4661.5999999996275","58.20","img/314/4.5/0.5/bw/001.png","","","interesting"
"","","","","","animation","219","5651922","0.0-219.0","1920x1080","","4227.800000000745","2.65","img/238/2.5/0.66667/bw/001.png","","","interesting"
"","","","","","animation","220","5654056","0.0-220.0","1920x1080","","2132.10000000149","16.80","img/117/3.5/1/bw/001.png","","","interesting"
"","","","","","animation","221","5657039","0.0-221.0","1920x1080","","2982","75.13","img/238/4.5/1.5/bw/001.png","","","interesting"
"","","","","","animation","222","5664797","0.0-222.0","1920x1080","","7757.4000000003725","85.58","img/314/3.5/2/bw/001.png","","","interesting"
"","","","","","animation","223","5672806","0.0-223.0","1920x1080","","8007","72","img/238/4.5/0.5/bw/001.png","","","interesting"
"","","","","","animation","224","5676525","0.0-224.0","1920x1080","","3718.0999999996275","5.42","img/117/2.5/2/bw/001.png","","","interesting"
"","","","","","animation","225","5680039","0.0-225.0","1920x1080","","3511.9000000003725","27.51","img/238/4/0.5/bw/001.png","","","interesting"
"","","","","","animation","226","5687989","0.0-226.0","1920x1080","","7949.300000000745","3.84","img/117/2.5/0.5/bw/001.png","","","interesting"
"","","","","","animation","227","5693925","0.0-227.0","1920x1080","","5934.5","49.34","img/117/4.5/0.66667/bw/001.png","","","interesting"
"","","","","","animation","228","5698757","0.0-228.0","1920x1080","","4829.9000000003725","66.80","img/314/3.5/1.5/bw/001.png","","","interesting"
"","","","","","animation","229","5701290","0.0-229.0","1920x1080","","2531.5","62.04","img/238/4/1.5/bw/001.png","","","interesting"
"","","","","","animation","230","5704573","0.0-230.0","1920x1080","","3282.5","2.25","img/314/2.5/1.5/bw/001.png","","","interesting"
"","","","","","animation","231","5710018","0.0-231.0","1920x1080","","5439","77.51","img/238/5.5/0.66667/bw/001.png","","","interesting"
"","","","","","animation","232","5723418","0.0-232.0","1920x1080","","13393.800000000745","96","img/117/4/1.5/bw/001.png","","","interesting"
"","","","","","animation","233","5729162","0.0-233.0","1920x1080","","5741.9000000003725","95","img/238/4/1/bw/001.png","","","interesting"
"","","","","","animation","234","5734127","0.0-234.0","1920x1080","","4964.0999999996275","80.82","img/314/5.5/2/bw/001.png","","","interesting"
"","","","","","animation","235","5740011","0.0-235.0","1920x1080","","5882.300000000745","74.34","img/117/5.5/1/bw/001.png","","","interesting"
"","","","","","html-button-response","236","5762994","0.0-236.0","1920x1080","","22981.900000000373","","<div class=""intro"">You are about to view a new series of animations.<br><br></div><div class=""intro"">You will evaluate them based on a different descriptor.<br><br></div><div class=""intro"">Move the slider to indicate how <strong style=""text-transform:capitalize"">NATURAL</strong> you find each animation.<br><br></div><div class=""intro"">0 = Least Natural<br></div><div class=""intro"">1 = Most Natural<br><br></div><div class=""intro"">Remember to use the <strong><em>entire range</em></strong> of the slider to make your ratings.<br></div><div class=""intro"">Please <strong><em>take your time</em></strong> and carefully consider each rating you make.<br><br></div>","0","",""
"","","","","","call-function","237","5762997","0.0-237.0","1920x1080","","","","","","",""
"","","","","","animation","238","5776586","0.0-238.0","1920x1080","","13579.199999999255","24","img/238/4/1/bw/001.png","","","natural"
"","","","","","animation","239","5783586","0.0-239.0","1920x1080","","6999","27","img/238/4.5/1/bw/001.png","","","natural"
"","","","","","animation","240","5790702","0.0-240.0","1920x1080","","7115.5","1.72","img/238/2.5/1/bw/001.png","","","natural"
"","","","","","animation","241","5796252","0.0-241.0","1920x1080","","5548.5999999996275","62","img/117/5.5/1/bw/001.png","","","natural"
"","","","","","animation","242","5799107","0.0-242.0","1920x1080","","2853.300000000745","25.40","img/238/3.5/0.5/bw/001.png","","","natural"
"","","","","","animation","243","5802187","0.0-243.0","1920x1080","","3078.4000000003725","7.28","img/238/2.5/0.66667/bw/001.png","","","natural"
"","","","","","animation","244","5809259","0.0-244.0","1920x1080","","7071.0999999996275","75.53","img/314/5.5/1/bw/001.png","","","natural"
"","","","","","animation","245","5818919","0.0-245.0","1920x1080","","9658.900000000373","30.95","img/238/3.5/2/bw/001.png","","","natural"
"","","","","","animation","246","5830881","0.0-246.0","1920x1080","","11965.5","47.09","img/238/4.5/1.5/bw/001.png","","","natural"
"","","","","","animation","247","5873180","0.0-247.0","1920x1080","","42296.800000000745","54","img/117/4/2/bw/001.png","","","natural"
"","","","","","animation","248","5884702","0.0-248.0","1920x1080","","11518.199999999255","76.85","img/117/4.5/2/bw/001.png","","","natural"
"","","","","","animation","249","5889797","0.0-249.0","1920x1080","","5094.39999999851","40.87","img/314/4.5/0.66667/bw/001.png","","","natural"
"","","","","","animation","250","5893549","0.0-250.0","1920x1080","","3750.9000000003725","15.48","img/314/3.5/0.5/bw/001.png","","","natural"
"","","","","","animation","251","5896454","0.0-251.0","1920x1080","","2903","3.57","img/117/2.5/1.5/bw/001.png","","","natural"
"","","","","","animation","252","5901098","0.0-252.0","1920x1080","","4642.9000000003725","1.72","img/314/2.5/1/bw/001.png","","","natural"
"","","","","","animation","253","5904414","0.0-253.0","1920x1080","","3314.7999999988824","15.21","img/117/4/0.66667/bw/001.png","","","natural"
"","","","","","animation","254","5907030","0.0-254.0","1920x1080","","2615.0999999996275","7.28","img/238/2.5/2/bw/001.png","","","natural"
"","","","","","animation","255","5910181","0.0-255.0","1920x1080","","3149.699999999255","0.93","img/314/2.5/2/bw/001.png","","","natural"
"","","","","","animation","256","5916270","0.0-256.0","1920x1080","","6087.199999999255","0","img/238/2.5/0.5/bw/001.png","","","natural"
"","","","","","animation","257","5920364","0.0-257.0","1920x1080","","4093","32.80","img/117/3.5/2/bw/001.png","","","natural"
"","","","","","animation","258","5924838","0.0-258.0","1920x1080","","4472.4000000003725","1","img/117/2.5/0.5/bw/001.png","","","natural"
"","","","","","animation","259","5927365","0.0-259.0","1920x1080","","2526.2999999988824","23.15","img/117/3.5/1.5/bw/001.png","","","natural"
"","","","","","animation","260","5935854","0.0-260.0","1920x1080","","8486.799999998882","47.09","img/238/4.5/0.66667/bw/001.png","","","natural"
"","","","","","animation","261","5943181","0.0-261.0","1920x1080","","7325.800000000745","60.85","img/314/4/1/bw/001.png","","","natural"
"","","","","","animation","262","5951450","0.0-262.0","1920x1080","","8264.599999999627","32.54","img/117/3.5/0.5/bw/001.png","","","natural"
"","","","","","animation","263","5956634","0.0-263.0","1920x1080","","5182.699999999255","83.20","img/117/5.5/0.66667/bw/001.png","","","natural"
"","","","","","animation","264","5966484","0.0-264.0","1920x1080","","9848.800000000745","76.59","img/314/5.5/0.5/bw/001.png","","","natural"
"","","","","","animation","265","5975534","0.0-265.0","1920x1080","","9048.5","62.96","img/314/4/1.5/bw/001.png","","","natural"
"","","","","","animation","266","5987817","0.0-266.0","1920x1080","","12282","70.63","img/117/5.5/2/bw/001.png","","","natural"
"","","","","","animation","267","5995601","0.0-267.0","1920x1080","","7782.199999999255","48","img/238/4.5/0.5/bw/001.png","","","natural"
"","","","","","animation","268","5999121","0.0-268.0","1920x1080","","3519.2999999988824","38.89","img/314/4/0.66667/bw/001.png","","","natural"
"","","","","","animation","269","6001657","0.0-269.0","1920x1080","","2534.5999999996275","0","img/238/2.5/1.5/bw/001.png","","","natural"
"","","","","","animation","270","6007609","0.0-270.0","1920x1080","","5950.299999998882","58.86","img/314/4.5/2/bw/001.png","","","natural"
"","","","","","animation","271","6019000","0.0-271.0","1920x1080","","11390.699999999255","48.15","img/117/5.5/0.5/bw/001.png","","","natural"
"","","","","","animation","272","6025617","0.0-272.0","1920x1080","","6613.200000001118","81.35","img/314/5.5/2/bw/001.png","","","natural"
"","","","","","animation","273","6030641","0.0-273.0","1920x1080","","5022.39999999851","14.02","img/314/3.5/1.5/bw/001.png","","","natural"
"","","","","","animation","274","6037153","0.0-274.0","1920x1080","","6509.300000000745","11","img/117/4/0.5/bw/001.png","","","natural"
"","","","","","animation","275","6041284","0.0-275.0","1920x1080","","4129.299999998882","23","img/238/4/2/bw/001.png","","","natural"
"","","","","","animation","276","6046369","0.0-276.0","1920x1080","","5082.800000000745","43","img/238/4.5/2/bw/001.png","","","natural"
"","","","","","animation","277","6049617","0.0-277.0","1920x1080","","3247.0999999996275","54.76","img/314/4.5/1.5/bw/001.png","","","natural"
"","","","","","animation","278","6054769","0.0-278.0","1920x1080","","5150.60000000149","32","img/117/4.5/1/bw/001.png","","","natural"
"","","","","","animation","279","6057767","0.0-279.0","1920x1080","","2997.2000000011176","0","img/314/2.5/0.5/bw/001.png","","","natural"
"","","","","","animation","280","6067473","0.0-280.0","1920x1080","","9704.5","91.14","img/238/5.5/2/bw/001.png","","","natural"
"","","","","","animation","281","6071334","0.0-281.0","1920x1080","","3859.0999999996275","37.57","img/238/3.5/1.5/bw/001.png","","","natural"
"","","","","","animation","282","6074550","0.0-282.0","1920x1080","","3215.199999999255","15.21","img/117/2.5/2/bw/001.png","","","natural"
"","","","","","animation","283","6080117","0.0-283.0","1920x1080","","5565.5999999996275","11.24","img/314/3.5/0.66667/bw/001.png","","","natural"
"","","","","","animation","284","6090952","0.0-284.0","1920x1080","","10833.700000001118","22","img/314/3.5/2/bw/001.png","","","natural"
"","","","","","animation","285","6095967","0.0-285.0","1920x1080","","5012.5","82.80","img/238/5.5/1/bw/001.png","","","natural"
"","","","","","animation","286","6104057","0.0-286.0","1920x1080","","8088.699999999255","17","img/117/3.5/0.66667/bw/001.png","","","natural"
"","","","","","animation","287","6107784","0.0-287.0","1920x1080","","3725.9000000003725","27","img/117/4.5/0.66667/bw/001.png","","","natural"
"","","","","","animation","288","6112041","0.0-288.0","1920x1080","","4255","19.18","img/314/4/0.5/bw/001.png","","","natural"
"","","","","","animation","289","6118967","0.0-289.0","1920x1080","","6924.700000001118","63","img/238/5.5/0.5/bw/001.png","","","natural"
"","","","","","animation","290","6124517","0.0-290.0","1920x1080","","5548.699999999255","54.76","img/314/4.5/0.5/bw/001.png","","","natural"
"","","","","","animation","291","6129673","0.0-291.0","1920x1080","","5154.5999999996275","56.35","img/238/4/1.5/bw/001.png","","","natural"
"","","","","","animation","292","6132801","0.0-292.0","1920x1080","","3126.39999999851","34.92","img/117/3.5/1/bw/001.png","","","natural"
"","","","","","animation","293","6137885","0.0-293.0","1920x1080","","5082.799999998882","24.60","img/238/4/0.5/bw/001.png","","","natural"
"","","","","","animation","294","6142473","0.0-294.0","1920x1080","","4586.4000000003725","47.49","img/117/4.5/1.5/bw/001.png","","","natural"
"","","","","","animation","295","6147784","0.0-295.0","1920x1080","","5307.0999999996275","31.75","img/117/4.5/0.5/bw/001.png","","","natural"
"","","","","","animation","296","6157089","0.0-296.0","1920x1080","","9303.799999998882","23.02","img/117/4/1/bw/001.png","","","natural"
"","","","","","animation","297","6161134","0.0-297.0","1920x1080","","4042.89999999851","17.99","img/314/3.5/1/bw/001.png","","","natural"
"","","","","","animation","298","6166650","0.0-298.0","1920x1080","","5514.5","7.54","img/117/2.5/0.66667/bw/001.png","","","natural"
"","","","","","animation","299","6171167","0.0-299.0","1920x1080","","4515","65.87","img/314/5.5/0.66667/bw/001.png","","","natural"
"","","","","","animation","300","6175034","0.0-300.0","1920x1080","","3865.9000000003725","43.78","img/314/4/2/bw/001.png","","","natural"
"","","","","","animation","301","6179451","0.0-301.0","1920x1080","","4415.0999999996275","90.34","img/238/5.5/1.5/bw/001.png","","","natural"
"","","","","","animation","302","6191523","0.0-302.0","1920x1080","","12068.799999998882","86.38","img/238/5.5/0.66667/bw/001.png","","","natural"
"","","","","","animation","303","6196170","0.0-303.0","1920x1080","","4644.89999999851","0","img/314/2.5/0.66667/bw/001.png","","","natural"
"","","","","","animation","304","6201491","0.0-304.0","1920x1080","","5317.300000000745","2","img/314/2.5/1.5/bw/001.png","","","natural"
"","","","","","animation","305","6205003","0.0-305.0","1920x1080","","3510.5","12.96","img/238/3.5/0.66667/bw/001.png","","","natural"
"","","","","","animation","306","6207843","0.0-306.0","1920x1080","","2839.10000000149","20.63","img/117/4/1.5/bw/001.png","","","natural"
"","","","","","animation","307","6225323","0.0-307.0","1920x1080","","17478.200000001118","95","img/314/5.5/1.5/bw/001.png","","","natural"
"","","","","","animation","308","6229286","0.0-308.0","1920x1080","","3961.5","1","img/117/2.5/1/bw/001.png","","","natural"
"","","","","","animation","309","6239269","0.0-309.0","1920x1080","","9981.099999999627","9","img/238/3.5/1/bw/001.png","","","natural"
"","","","","","animation","310","6241469","0.0-310.0","1920x1080","","2198.10000000149","21.16","img/314/4.5/1/bw/001.png","","","natural"
"","","","","","animation","311","6245155","0.0-311.0","1920x1080","","3684.7000000011176","75.53","img/117/5.5/1.5/bw/001.png","","","natural"
"","","","","","animation","312","6249785","0.0-312.0","1920x1080","","4630.200000001118","41.14","img/238/4/0.66667/bw/001.png","","","natural"
"","","","","","html-button-response","313","6270506","0.0-313.0","1920x1080","","20718.800000000745","","<div class=""intro"">You are about to view a new series of animations.<br><br></div><div class=""intro"">You will evaluate them based on a different descriptor.<br><br></div><div class=""intro"">Move the slider to indicate how <strong style=""text-transform:capitalize"">RELAXING</strong> you find each animation.<br><br></div><div class=""intro"">0 = Least Relaxing<br></div><div class=""intro"">1 = Most Relaxing<br><br></div><div class=""intro"">Remember to use the <strong><em>entire range</em></strong> of the slider to make your ratings.<br></div><div class=""intro"">Please <strong><em>take your time</em></strong> and carefully consider each rating you make.<br><br></div>","0","",""
"","","","","","call-function","314","6270507","0.0-314.0","1920x1080","","","","","","",""
"","","","","","animation","315","6275409","0.0-315.0","1920x1080","","4901.10000000149","19.44","img/314/3.5/0.66667/bw/001.png","","","relaxing"
"","","","","","animation","316","6278217","0.0-316.0","1920x1080","","2806","27.91","img/314/4/2/bw/001.png","","","relaxing"
"","","","","","animation","317","6280101","0.0-317.0","1920x1080","","1883.1000000014901","16","img/238/3.5/0.66667/bw/001.png","","","relaxing"
"","","","","","animation","318","6283175","0.0-318.0","1920x1080","","3072.199999999255","25.40","img/238/4/2/bw/001.png","","","relaxing"
"","","","","","animation","319","6286601","0.0-319.0","1920x1080","","3424.7000000011176","39.55","img/238/4.5/1.5/bw/001.png","","","relaxing"
"","","","","","animation","320","6292884","0.0-320.0","1920x1080","","6281.5999999996275","46.30","img/238/5.5/0.5/bw/001.png","","","relaxing"
"","","","","","animation","321","6296380","0.0-321.0","1920x1080","","3494.5","65.87","img/117/5.5/1.5/bw/001.png","","","relaxing"
"","","","","","animation","322","6302057","0.0-322.0","1920x1080","","5676.0999999996275","5.16","img/314/2.5/2/bw/001.png","","","relaxing"
"","","","","","animation","323","6308890","0.0-323.0","1920x1080","","6831.200000001118","90","img/314/5.5/1/bw/001.png","","","relaxing"
"","","","","","animation","324","6312451","0.0-324.0","1920x1080","","3558.800000000745","0","img/117/2.5/1/bw/001.png","","","relaxing"
"","","","","","animation","325","6326569","0.0-325.0","1920x1080","","14116.300000000745","77.65","img/238/5.5/1.5/bw/001.png","","","relaxing"
"","","","","","animation","326","6333581","0.0-326.0","1920x1080","","7008.699999999255","81","img/117/5.5/0.66667/bw/001.png","","","relaxing"
"","","","","","animation","327","6336985","0.0-327.0","1920x1080","","3401.5","15.34","img/117/3.5/2/bw/001.png","","","relaxing"
"","","","","","animation","328","6351677","0.0-328.0","1920x1080","","14690.599999999627","61.77","img/238/5.5/0.66667/bw/001.png","","","relaxing"
"","","","","","animation","329","6355985","0.0-329.0","1920x1080","","4306.4000000003725","51.06","img/314/5.5/0.66667/bw/001.png","","","relaxing"
"","","","","","animation","330","6359034","0.0-330.0","1920x1080","","3047.4000000003725","27.38","img/117/3.5/0.66667/bw/001.png","","","relaxing"
"","","","","","animation","331","6369088","0.0-331.0","1920x1080","","10051.39999999851","54.89","img/314/4.5/2/bw/001.png","","","relaxing"
"","","","","","animation","332","6394503","0.0-332.0","1920x1080","","25413.299999998882","87","img/314/5.5/2/bw/001.png","","","relaxing"
"","","","","","animation","333","6398107","0.0-333.0","1920x1080","","3602.300000000745","14.95","img/238/3.5/2/bw/001.png","","","relaxing"
"","","","","","animation","334","6401871","0.0-334.0","1920x1080","","3762.4000000003725","14.68","img/117/4/1/bw/001.png","","","relaxing"
"","","","","","animation","335","6406602","0.0-335.0","1920x1080","","4728.5999999996275","16.93","img/117/4/2/bw/001.png","","","relaxing"
"","","","","","animation","336","6411397","0.0-336.0","1920x1080","","4793.299999998882","46.56","img/238/4.5/2/bw/001.png","","","relaxing"
"","","","","","animation","337","6414075","0.0-337.0","1920x1080","","2676.5999999996275","11.51","img/117/3.5/0.5/bw/001.png","","","relaxing"
"","","","","","animation","338","6418019","0.0-338.0","1920x1080","","3942.2999999988824","14.81","img/238/3.5/1.5/bw/001.png","","","relaxing"
"","","","","","animation","339","6420675","0.0-339.0","1920x1080","","2654.5","3.70","img/314/2.5/1.5/bw/001.png","","","relaxing"
"","","","","","animation","340","6433324","0.0-340.0","1920x1080","","12648.799999998882","32","img/117/4.5/1.5/bw/001.png","","","relaxing"
"","","","","","animation","341","6444570","0.0-341.0","1920x1080","","11244.200000001118","22","img/314/3.5/2/bw/001.png","","","relaxing"
"","","","","","animation","342","6450168","0.0-342.0","1920x1080","","5596.300000000745","16.67","img/238/4/0.66667/bw/001.png","","","relaxing"
"","","","","","animation","343","6454551","0.0-343.0","1920x1080","","4379.89999999851","0.00","img/314/2.5/0.66667/bw/001.png","","","relaxing"
"","","","","","animation","344","6462689","0.0-344.0","1920x1080","","8136.5999999996275","40.61","img/238/4/1/bw/001.png","","","relaxing"
"","","","","","animation","345","6470018","0.0-345.0","1920x1080","","7327.200000001118","42.99","img/117/4/1.5/bw/001.png","","","relaxing"
"","","","","","animation","346","6478402","0.0-346.0","1920x1080","","8382","38.10","img/314/4/0.5/bw/001.png","","","relaxing"
"","","","","","animation","347","6482136","0.0-347.0","1920x1080","","3732.5","59.52","img/238/5.5/1/bw/001.png","","","relaxing"
"","","","","","animation","348","6485352","0.0-348.0","1920x1080","","3214.699999999255","29.23","img/314/4/0.66667/bw/001.png","","","relaxing"
"","","","","","animation","349","6489018","0.0-349.0","1920x1080","","3664.2000000011176","5","img/117/2.5/0.5/bw/001.png","","","relaxing"
"","","","","","animation","350","6494891","0.0-350.0","1920x1080","","5871","37","img/314/4/1.5/bw/001.png","","","relaxing"
"","","","","","animation","351","6498073","0.0-351.0","1920x1080","","3181.0999999996275","23.94","img/117/4.5/0.5/bw/001.png","","","relaxing"
"","","","","","animation","352","6502585","0.0-352.0","1920x1080","","4510.199999999255","22.35","img/117/4.5/0.66667/bw/001.png","","","relaxing"
"","","","","","animation","353","6513968","0.0-353.0","1920x1080","","11381.599999999627","39","img/238/4.5/1/bw/001.png","","","relaxing"
"","","","","","animation","354","6516359","0.0-354.0","1920x1080","","2389.60000000149","3.17","img/117/2.5/0.66667/bw/001.png","","","relaxing"
"","","","","","animation","355","6524137","0.0-355.0","1920x1080","","7776.800000000745","55.82","img/314/5.5/0.5/bw/001.png","","","relaxing"
"","","","","","animation","356","6527755","0.0-356.0","1920x1080","","3616.4000000003725","0.00","img/314/2.5/0.5/bw/001.png","","","relaxing"
"","","","","","animation","357","6531217","0.0-357.0","1920x1080","","3460.0999999996275","11.51","img/117/4/0.5/bw/001.png","","","relaxing"
"","","","","","animation","358","6537734","0.0-358.0","1920x1080","","6514.799999998882","25.00","img/238/3.5/0.5/bw/001.png","","","relaxing"
"","","","","","animation","359","6543173","0.0-359.0","1920x1080","","5437.5999999996275","50.66","img/238/4/1.5/bw/001.png","","","relaxing"
"","","","","","animation","360","6547123","0.0-360.0","1920x1080","","3936.2999999988824","36.11","img/117/4/0.66667/bw/001.png","","","relaxing"
"","","","","","animation","361","6551680","0.0-361.0","1920x1080","","4554.60000000149","29.37","img/314/4.5/0.5/bw/001.png","","","relaxing"
"","","","","","animation","362","6554189","0.0-362.0","1920x1080","","2507.800000000745","3.70","img/117/2.5/2/bw/001.png","","","relaxing"
"","","","","","animation","363","6564165","0.0-363.0","1920x1080","","9973.800000000745","46","img/314/4.5/1/bw/001.png","","","relaxing"
"","","","","","animation","364","6569413","0.0-364.0","1920x1080","","5246.4000000003725","16","img/314/3.5/1/bw/001.png","","","relaxing"
"","","","","","animation","365","6573214","0.0-365.0","1920x1080","","3798.5999999996275","12.04","img/314/3.5/0.5/bw/001.png","","","relaxing"
"","","","","","animation","366","6576381","0.0-366.0","1920x1080","","3165.9000000003725","6.61","img/117/2.5/1.5/bw/001.png","","","relaxing"
"","","","","","animation","367","6590613","0.0-367.0","1920x1080","","14230.300000000745","32","img/117/3.5/1.5/bw/001.png","","","relaxing"
"","","","","","animation","368","6593363","0.0-368.0","1920x1080","","2747.699999999255","7.01","img/238/2.5/2/bw/001.png","","","relaxing"
"","","","","","animation","369","6599306","0.0-369.0","1920x1080","","5941.9000000003725","85","img/117/4.5/2/bw/001.png","","","relaxing"
"","","","","","animation","370","6602959","0.0-370.0","1920x1080","","3650.4000000003725","70.63","img/117/4.5/1/bw/001.png","","","relaxing"
"","","","","","animation","371","6609006","0.0-371.0","1920x1080","","6056.299999998882","74.74","img/117/5.5/0.5/bw/001.png","","","relaxing"
"","","","","","animation","372","6616787","0.0-372.0","1920x1080","","7779","87","img/314/5.5/1.5/bw/001.png","","","relaxing"
"","","","","","animation","373","6625155","0.0-373.0","1920x1080","","8366.799999998882","19.97","img/238/4/0.5/bw/001.png","","","relaxing"
"","","","","","animation","374","6631970","0.0-374.0","1920x1080","","6813.699999999255","3.04","img/238/2.5/1/bw/001.png","","","relaxing"
"","","","","","animation","375","6640802","0.0-375.0","1920x1080","","8827","72.75","img/117/5.5/2/bw/001.png","","","relaxing"
"","","","","","animation","376","6645172","0.0-376.0","1920x1080","","4367.89999999851","18.52","img/314/4.5/0.66667/bw/001.png","","","relaxing"
"","","","","","animation","377","6648019","0.0-377.0","1920x1080","","2846.199999999255","1.98","img/314/2.5/1/bw/001.png","","","relaxing"
"","","","","","animation","378","6652886","0.0-378.0","1920x1080","","4865","34.66","img/238/4.5/0.66667/bw/001.png","","","relaxing"
"","","","","","animation","379","6660069","0.0-379.0","1920x1080","","7181.5999999996275","4.89","img/238/2.5/1.5/bw/001.png","","","relaxing"
"","","","","","animation","380","6663107","0.0-380.0","1920x1080","","3036","0","img/238/2.5/0.5/bw/001.png","","","relaxing"
"","","","","","animation","381","6671626","0.0-381.0","1920x1080","","8516.400000000373","90.08","img/238/5.5/2/bw/001.png","","","relaxing"
"","","","","","animation","382","6678703","0.0-382.0","1920x1080","","7075.9000000003725","83.07","img/117/5.5/1/bw/001.png","","","relaxing"
"","","","","","animation","383","6681431","0.0-383.0","1920x1080","","2726","36.64","img/238/3.5/1/bw/001.png","","","relaxing"
"","","","","","animation","384","6688354","0.0-384.0","1920x1080","","6920.89999999851","7","img/238/2.5/0.66667/bw/001.png","","","relaxing"
"","","","","","animation","385","6695420","0.0-385.0","1920x1080","","7064.199999999255","67.46","img/314/4.5/1.5/bw/001.png","","","relaxing"
"","","","","","animation","386","6698286","0.0-386.0","1920x1080","","2865.5999999996275","43.39","img/238/4.5/0.5/bw/001.png","","","relaxing"
"","","","","","animation","387","6705758","0.0-387.0","1920x1080","","7469.0999999996275","45.11","img/314/3.5/1.5/bw/001.png","","","relaxing"
"","","","","","animation","388","6711484","0.0-388.0","1920x1080","","5723.800000000745","29.50","img/314/4/1/bw/001.png","","","relaxing"
"","","","","","animation","389","6718204","0.0-389.0","1920x1080","","6718.0999999996275","28.44","img/117/3.5/1/bw/001.png","","","relaxing"
"","","","","","html-button-response","390","6775821","0.0-390.0","1920x1080","","57606.5","","<strong>Study Debriefing</strong><br><p class=""debrief""><strong>Background:</strong> The patterns you rated are called <em>fractals</em>. The term fractal describes a class of irregular curves or shapes for which any suitably chosen part is similar in shape to a given larger or smaller part when magnified or reduced to the same size. Fractal properties are found throughout the natural and manmade world. The series of animations you saw today displayed animated fractal patterns of a varying complexity.</p><p class=""debrief""><strong>Purpose of this study:</strong> We hope to better understand how the perception of static fractals differs from the perception of animated fractals, and how the speed of the animated patterns influences people&apos;s perception of them. Fractals allow us to study the perception of aesthetic properties (e.g. the perceived level of beauty in an image) without using recognizable content, which makes them an excellent tool for studying abstract aesthetic judgement.</p><p class=""debrief""><strong>Your part:</strong> Your participation has helped us to further understand how humans perceive these patterns across different levels of speed and complexity. This research with allow us to better understand how the visual system and brain process our ever-changing visual environments.<p class=""debrief""><strong>Feedback and Further information:</strong> If you have additional questions about this study, please feel free to ask the researcher, Nathan Gonzales-Hess at nhess @ uoregon.edu. If you have any questions concerning your rights as a research participant, please contact Research Compliance Services, 5237 University of Oregon, Eugene, OR 97403, 541-346-2510, or email researchCompliance @ uoregon.edu. You can also email the Human Subjects Coordinator for psychology and linguistics research at hscoord @ uoregon.edu. ","0","",""
"","","","","","html-button-response","391","6781120","0.0-391.0","1920x1080","","5295","","Thank you for participating in this study. <br>Please click below to finish the experiment and submit your responses.<br><br>","0","",""
"true","","","","","fullscreen","392","6782131","0.0-392.0","1920x1080","14:42 18/10/2022","","","","","",""
