"success","timeout","failed_images","failed_audio","failed_video","trial_type","trial_index","time_elapsed","internal_node_id","resolution","timeStamp","rt","response","stimulus","button_pressed","value","descriptor"
"true","false","[]","[]","[]","preload","0","6175","0.0-0.0","1920x1080","","","","","","",""
"true","false","[]","[]","[]","preload","1","12455","0.0-1.0","1920x1080","","","","","","",""
"true","false","[]","[]","[]","preload","2","18666","0.0-2.0","1920x1080","","","","","","",""
"true","","","","","fullscreen","3","66944","0.0-3.0","1920x1080","12:52 25/10/2022","","","","","",""
"","","","","","survey-html-form","4","77031","0.0-4.0","1920x1080","","10084.40000000596","{""age"":""19"",""gender"":""female""}","","","",""
"","","","","","html-button-response","5","131127","0.0-5.0","1920x1080","","54094.90000000596","","<div class=""complex"">You are going to see a series of animations.<br><br></div><div class=""complex"">Move the slider to indicate how <strong style=""text-transform:capitalize"">COMPLEX</strong> you find each animation.<br><br></div><div class=""complex"">0 = Least Complex<br></div><div class=""complex"">1 = Most Complex<br><br></div><div class=""complex"">Remember to use the <strong><em>entire range</em></strong> of the slider to make your ratings.<br></div><div class=""complex"">Please <strong><em>take your time</em></strong> and carefully consider each rating you make.<br><br></div><div class=""complex"">The study has five sections and will take about 45 minutes to complete.<br><br></div>","0","",""
"","","","","","call-function","6","131128","0.0-6.0","1920x1080","","","","","","",""
"","","","","","animation","7","162927","0.0-7.0","1920x1080","","31798","34.13","img/238/3.5/2/bw/001.png","","","complex"
"","","","","","animation","8","173695","0.0-8.0","1920x1080","","10767.09999999404","10","img/314/5.5/0.5/bw/001.png","","","complex"
"","","","","","animation","9","189591","0.0-9.0","1920x1080","","15894.800000011921","35.32","img/314/4/2/bw/001.png","","","complex"
"","","","","","animation","10","202863","0.0-10.0","1920x1080","","13271.5","28.57","img/314/5.5/0.66667/bw/001.png","","","complex"
"","","","","","animation","11","211463","0.0-11.0","1920x1080","","8599.5","64.95","img/117/4.5/0.66667/bw/001.png","","","complex"
"","","","","","animation","12","222639","0.0-12.0","1920x1080","","11175","97","img/238/2.5/1.5/bw/001.png","","","complex"
"","","","","","animation","13","232470","0.0-13.0","1920x1080","","9831","38.62","img/117/4/1/bw/001.png","","","complex"
"","","","","","animation","14","241254","0.0-14.0","1920x1080","","8783.199999988079","81","img/117/3.5/0.5/bw/001.png","","","complex"
"","","","","","animation","15","246574","0.0-15.0","1920x1080","","5319.4000000059605","87","img/117/3.5/0.66667/bw/001.png","","","complex"
"","","","","","animation","16","251590","0.0-16.0","1920x1080","","5015.5","52","img/314/4/0.66667/bw/001.png","","","complex"
"","","","","","animation","17","257990","0.0-17.0","1920x1080","","6398.70000000298","47.09","img/117/3.5/2/bw/001.png","","","complex"
"","","","","","animation","18","263662","0.0-18.0","1920x1080","","5671.800000011921","85.98","img/117/2.5/2/bw/001.png","","","complex"
"","","","","","animation","19","273518","0.0-19.0","1920x1080","","9855.199999988079","11","img/314/4.5/0.66667/bw/001.png","","","complex"
"","","","","","animation","20","278110","0.0-20.0","1920x1080","","4591","100","img/117/2.5/1/bw/001.png","","","complex"
"","","","","","animation","21","285590","0.0-21.0","1920x1080","","7479.5","46.83","img/314/3.5/2/bw/001.png","","","complex"
"","","","","","animation","22","291678","0.0-22.0","1920x1080","","6087.5","88.89","img/314/2.5/2/bw/001.png","","","complex"
"","","","","","animation","23","296894","0.0-23.0","1920x1080","","5215.300000011921","100","img/238/2.5/1/bw/001.png","","","complex"
"","","","","","animation","24","304950","0.0-24.0","1920x1080","","8055.300000011921","46","img/238/3.5/1.5/bw/001.png","","","complex"
"","","","","","animation","25","316165","0.0-25.0","1920x1080","","11216.10000000894","70","img/117/4/0.66667/bw/001.png","","","complex"
"","","","","","animation","26","329060","0.0-26.0","1920x1080","","12894.79999999702","53.57","img/117/3.5/1/bw/001.png","","","complex"
"","","","","","animation","27","351709","0.0-27.0","1920x1080","","22647.40000000596","2.91","img/238/5.5/2/bw/001.png","","","complex"
"","","","","","animation","28","356789","0.0-28.0","1920x1080","","5078.9000000059605","95","img/117/2.5/1.5/bw/001.png","","","complex"
"","","","","","animation","29","361653","0.0-29.0","1920x1080","","4863.20000000298","100","img/314/2.5/0.5/bw/001.png","","","complex"
"","","","","","animation","30","367893","0.0-30.0","1920x1080","","6239.5","100","img/314/2.5/0.66667/bw/001.png","","","complex"
"","","","","","animation","31","376476","0.0-31.0","1920x1080","","8582.89999999106","44.58","img/117/4.5/2/bw/001.png","","","complex"
"","","","","","animation","32","381964","0.0-32.0","1920x1080","","5486.5","64","img/314/4.5/0.5/bw/001.png","","","complex"
"","","","","","animation","33","400372","0.0-33.0","1920x1080","","18407.89999999106","88.49","img/238/4.5/0.66667/bw/001.png","","","complex"
"","","","","","animation","34","409932","0.0-34.0","1920x1080","","9558.59999999404","80.03","img/238/4/0.66667/bw/001.png","","","complex"
"","","","","","animation","35","418164","0.0-35.0","1920x1080","","8231.20000000298","42.33","img/314/4.5/2/bw/001.png","","","complex"
"","","","","","animation","36","440576","0.0-36.0","1920x1080","","22415.39999999106","28.31","img/117/3.5/1.5/bw/001.png","","","complex"
"","","","","","animation","37","446831","0.0-37.0","1920x1080","","6254.9000000059605","81.48","img/314/3.5/0.5/bw/001.png","","","complex"
"","","","","","animation","38","454160","0.0-38.0","1920x1080","","7328.0999999940395","1","img/117/5.5/0.66667/bw/001.png","","","complex"
"","","","","","animation","39","477263","0.0-39.0","1920x1080","","23101.89999999106","20.63","img/238/4/2/bw/001.png","","","complex"
"","","","","","animation","40","486952","0.0-40.0","1920x1080","","9687.40000000596","42.20","img/314/5.5/1.5/bw/001.png","","","complex"
"","","","","","animation","41","492208","0.0-41.0","1920x1080","","5256.699999988079","98","img/117/4.5/0.5/bw/001.png","","","complex"
"","","","","","animation","42","498550","0.0-42.0","1920x1080","","6341.5999999940395","86.51","img/238/3.5/0.5/bw/001.png","","","complex"
"","","","","","animation","43","507854","0.0-43.0","1920x1080","","9303.09999999404","4","img/238/5.5/1/bw/001.png","","","complex"
"","","","","","animation","44","515725","0.0-44.0","1920x1080","","7870.399999991059","13.62","img/117/4/1.5/bw/001.png","","","complex"
"","","","","","animation","45","521134","0.0-45.0","1920x1080","","5407.70000000298","41","img/314/3.5/1/bw/001.png","","","complex"
"","","","","","animation","46","527262","0.0-46.0","1920x1080","","6126.79999999702","91.80","img/117/4/0.5/bw/001.png","","","complex"
"","","","","","animation","47","531750","0.0-47.0","1920x1080","","4487.20000000298","100","img/117/2.5/0.5/bw/001.png","","","complex"
"","","","","","animation","48","550678","0.0-48.0","1920x1080","","18919.39999999106","20","img/314/4.5/1.5/bw/001.png","","","complex"
"","","","","","animation","49","562678","0.0-49.0","1920x1080","","11998.90000000596","48.15","img/238/3.5/1/bw/001.png","","","complex"
"","","","","","animation","50","570583","0.0-50.0","1920x1080","","7904.0999999940395","50.40","img/314/4/0.5/bw/001.png","","","complex"
"","","","","","animation","51","577894","0.0-51.0","1920x1080","","7310.199999988079","20.24","img/314/3.5/1.5/bw/001.png","","","complex"
"","","","","","animation","52","589982","0.0-52.0","1920x1080","","12086.79999999702","2","img/238/5.5/1.5/bw/001.png","","","complex"
"","","","","","animation","53","597999","0.0-53.0","1920x1080","","8016.4000000059605","89.42","img/238/2.5/2/bw/001.png","","","complex"
"","","","","","animation","54","604974","0.0-54.0","1920x1080","","6973.5999999940395","39.95","img/238/4/1.5/bw/001.png","","","complex"
"","","","","","animation","55","653877","0.0-55.0","1920x1080","","48902.29999999702","55.95","img/117/4/2/bw/001.png","","","complex"
"","","","","","animation","56","661877","0.0-56.0","1920x1080","","7998.79999999702","0","img/314/5.5/2/bw/001.png","","","complex"
"","","","","","animation","57","673218","0.0-57.0","1920x1080","","11342.20000000298","28.44","img/314/4/1.5/bw/001.png","","","complex"
"","","","","","animation","58","677612","0.0-58.0","1920x1080","","4392.9000000059605","80.29","img/238/3.5/0.66667/bw/001.png","","","complex"
"","","","","","animation","59","682114","0.0-59.0","1920x1080","","4500.79999999702","90.74","img/314/2.5/1/bw/001.png","","","complex"
"","","","","","animation","60","690234","0.0-60.0","1920x1080","","8119.0999999940395","58.99","img/238/4.5/1/bw/001.png","","","complex"
"","","","","","animation","61","695954","0.0-61.0","1920x1080","","5719.0999999940395","78.57","img/314/3.5/0.66667/bw/001.png","","","complex"
"","","","","","animation","62","709282","0.0-62.0","1920x1080","","13327.20000000298","97","img/238/2.5/0.5/bw/001.png","","","complex"
"","","","","","animation","63","717306","0.0-63.0","1920x1080","","8023.5","3.04","img/238/5.5/0.5/bw/001.png","","","complex"
"","","","","","animation","64","743734","0.0-64.0","1920x1080","","26431","18.25","img/117/4.5/1.5/bw/001.png","","","complex"
"","","","","","animation","65","755054","0.0-65.0","1920x1080","","11319.09999999404","23.94","img/117/5.5/1/bw/001.png","","","complex"
"","","","","","animation","66","762302","0.0-66.0","1920x1080","","7246.5","69.84","img/238/4/0.5/bw/001.png","","","complex"
"","","","","","animation","67","771814","0.0-67.0","1920x1080","","9511.59999999404","3","img/117/5.5/2/bw/001.png","","","complex"
"","","","","","animation","68","783208","0.0-68.0","1920x1080","","11392.89999999106","23","img/238/4.5/1.5/bw/001.png","","","complex"
"","","","","","animation","69","793413","0.0-69.0","1920x1080","","10204.800000011921","15","img/117/5.5/1.5/bw/001.png","","","complex"
"","","","","","animation","70","812125","0.0-70.0","1920x1080","","18711.5","48","img/238/4/1/bw/001.png","","","complex"
"","","","","","animation","71","842685","0.0-71.0","1920x1080","","30558.79999999702","12.83","img/238/4.5/2/bw/001.png","","","complex"
"","","","","","animation","72","867676","0.0-72.0","1920x1080","","24983.20000000298","37.96","img/314/4.5/1/bw/001.png","","","complex"
"","","","","","animation","73","883331","0.0-73.0","1920x1080","","15654.5","60.71","img/117/4.5/1/bw/001.png","","","complex"
"","","","","","animation","74","888012","0.0-74.0","1920x1080","","4679.5999999940395","91.93","img/117/2.5/0.66667/bw/001.png","","","complex"
"","","","","","animation","75","894197","0.0-75.0","1920x1080","","6183.79999999702","67.33","img/117/5.5/0.5/bw/001.png","","","complex"
"","","","","","animation","76","900308","0.0-76.0","1920x1080","","6110","49.74","img/314/4/1/bw/001.png","","","complex"
"","","","","","animation","77","909430","0.0-77.0","1920x1080","","9121.09999999404","19","img/314/5.5/1/bw/001.png","","","complex"
"","","","","","animation","78","923691","0.0-78.0","1920x1080","","14260.79999999702","69.18","img/238/4.5/0.5/bw/001.png","","","complex"
"","","","","","animation","79","929171","0.0-79.0","1920x1080","","5478.699999988079","78.70","img/238/2.5/0.66667/bw/001.png","","","complex"
"","","","","","animation","80","937131","0.0-80.0","1920x1080","","7958.5999999940395","29.37","img/238/5.5/0.66667/bw/001.png","","","complex"
"","","","","","animation","81","941251","0.0-81.0","1920x1080","","4118.399999991059","74.47","img/314/2.5/1.5/bw/001.png","","","complex"
"","","","","","html-button-response","82","959603","0.0-82.0","1920x1080","","18351.19999998808","","<div class=""intro"">You are about to view a new series of animations.<br><br></div><div class=""intro"">You will evaluate them based on a different descriptor.<br><br></div><div class=""intro"">Move the slider to indicate how <strong style=""text-transform:capitalize"">APPEALING</strong> you find each animation.<br><br></div><div class=""intro"">0 = Least Appealing<br></div><div class=""intro"">1 = Most Appealing<br><br></div><div class=""intro"">Remember to use the <strong><em>entire range</em></strong> of the slider to make your ratings.<br></div><div class=""intro"">Please <strong><em>take your time</em></strong> and carefully consider each rating you make.<br><br></div>","0","",""
"","","","","","call-function","83","959605","0.0-83.0","1920x1080","","","","","","",""
"","","","","","animation","84","966907","0.0-84.0","1920x1080","","7301.79999999702","3.44","img/117/4.5/0.5/bw/001.png","","","appealing"
"","","","","","animation","85","981282","0.0-85.0","1920x1080","","14374.39999999106","5.82","img/314/4/1/bw/001.png","","","appealing"
"","","","","","animation","86","985891","0.0-86.0","1920x1080","","4607.20000000298","0.13","img/238/2.5/2/bw/001.png","","","appealing"
"","","","","","animation","87","990170","0.0-87.0","1920x1080","","4278.5","3.44","img/117/4/1/bw/001.png","","","appealing"
"","","","","","animation","88","1001002","0.0-88.0","1920x1080","","10830.70000000298","4.50","img/117/3.5/1.5/bw/001.png","","","appealing"
"","","","","","animation","89","1007786","0.0-89.0","1920x1080","","6782.9000000059605","16.27","img/238/4.5/1/bw/001.png","","","appealing"
"","","","","","animation","90","1014202","0.0-90.0","1920x1080","","6414.5","98","img/314/4.5/2/bw/001.png","","","appealing"
"","","","","","animation","91","1021530","0.0-91.0","1920x1080","","7326.699999988079","2","img/238/3.5/0.5/bw/001.png","","","appealing"
"","","","","","animation","92","1037617","0.0-92.0","1920x1080","","16087.5","43.52","img/117/4/1.5/bw/001.png","","","appealing"
"","","","","","animation","93","1045385","0.0-93.0","1920x1080","","7766.79999999702","53","img/117/4.5/2/bw/001.png","","","appealing"
"","","","","","animation","94","1058937","0.0-94.0","1920x1080","","13550.90000000596","45.37","img/238/4.5/1.5/bw/001.png","","","appealing"
"","","","","","animation","95","1071337","0.0-95.0","1920x1080","","12398.5","9","img/238/3.5/0.66667/bw/001.png","","","appealing"
"","","","","","animation","96","1077817","0.0-96.0","1920x1080","","6478.9000000059605","19.58","img/314/4/1.5/bw/001.png","","","appealing"
"","","","","","animation","97","1085529","0.0-97.0","1920x1080","","7710.29999999702","70","img/314/4.5/0.66667/bw/001.png","","","appealing"
"","","","","","animation","98","1093700","0.0-98.0","1920x1080","","8167.5","99","img/117/4.5/1/bw/001.png","","","appealing"
"","","","","","animation","99","1103116","0.0-99.0","1920x1080","","9414.70000000298","56.75","img/238/4.5/2/bw/001.png","","","appealing"
"","","","","","animation","100","1107300","0.0-100.0","1920x1080","","4182.699999988079","0.00","img/314/2.5/0.5/bw/001.png","","","appealing"
"","","","","","animation","101","1112540","0.0-101.0","1920x1080","","5239.399999991059","0","img/117/2.5/1.5/bw/001.png","","","appealing"
"","","","","","animation","102","1120084","0.0-102.0","1920x1080","","7542.70000000298","21.83","img/238/4/2/bw/001.png","","","appealing"
"","","","","","animation","103","1124932","0.0-103.0","1920x1080","","4846.600000008941","2.12","img/117/2.5/2/bw/001.png","","","appealing"
"","","","","","animation","104","1131540","0.0-104.0","1920x1080","","6606.699999988079","3.17","img/314/3.5/0.5/bw/001.png","","","appealing"
"","","","","","animation","105","1135296","0.0-105.0","1920x1080","","3754.800000011921","0.40","img/117/2.5/0.5/bw/001.png","","","appealing"
"","","","","","animation","106","1140804","0.0-106.0","1920x1080","","5507","12","img/117/3.5/1/bw/001.png","","","appealing"
"","","","","","animation","107","1157466","0.0-107.0","1920x1080","","16663","36.51","img/314/3.5/2/bw/001.png","","","appealing"
"","","","","","animation","108","1161077","0.0-108.0","1920x1080","","3610","11.51","img/314/3.5/0.66667/bw/001.png","","","appealing"
"","","","","","animation","109","1166043","0.0-109.0","1920x1080","","4965.5","100","img/314/5.5/0.66667/bw/001.png","","","appealing"
"","","","","","animation","110","1174730","0.0-110.0","1920x1080","","8685.70000000298","26.85","img/314/3.5/1.5/bw/001.png","","","appealing"
"","","","","","animation","111","1182563","0.0-111.0","1920x1080","","7831.5","99","img/238/4.5/0.66667/bw/001.png","","","appealing"
"","","","","","animation","112","1190860","0.0-112.0","1920x1080","","8296.70000000298","73.81","img/314/4.5/0.5/bw/001.png","","","appealing"
"","","","","","animation","113","1203698","0.0-113.0","1920x1080","","12836.59999999404","66.14","img/117/4/2/bw/001.png","","","appealing"
"","","","","","animation","114","1208754","0.0-114.0","1920x1080","","5055","0","img/238/2.5/1.5/bw/001.png","","","appealing"
"","","","","","animation","115","1214226","0.0-115.0","1920x1080","","5471.600000008941","100","img/314/5.5/1.5/bw/001.png","","","appealing"
"","","","","","animation","116","1222176","0.0-116.0","1920x1080","","7949.9000000059605","45.90","img/314/4/2/bw/001.png","","","appealing"
"","","","","","animation","117","1242881","0.0-117.0","1920x1080","","20703.5","47.49","img/238/4/1/bw/001.png","","","appealing"
"","","","","","animation","118","1248644","0.0-118.0","1920x1080","","5762.20000000298","11.38","img/117/4/0.5/bw/001.png","","","appealing"
"","","","","","animation","119","1292661","0.0-119.0","1920x1080","","44014","48.41","img/117/4.5/0.66667/bw/001.png","","","appealing"
"","","","","","animation","120","1297971","0.0-120.0","1920x1080","","5308.79999999702","100","img/117/5.5/1/bw/001.png","","","appealing"
"","","","","","animation","121","1302635","0.0-121.0","1920x1080","","4662.79999999702","100","img/117/5.5/0.66667/bw/001.png","","","appealing"
"","","","","","animation","122","1308379","0.0-122.0","1920x1080","","5742.29999999702","100","img/238/5.5/1.5/bw/001.png","","","appealing"
"","","","","","animation","123","1312371","0.0-123.0","1920x1080","","3990.2999999970198","100","img/117/5.5/1.5/bw/001.png","","","appealing"
"","","","","","animation","124","1318467","0.0-124.0","1920x1080","","6094.699999988079","3","img/238/3.5/2/bw/001.png","","","appealing"
"","","","","","animation","125","1326878","0.0-125.0","1920x1080","","8409.79999999702","100","img/238/5.5/2/bw/001.png","","","appealing"
"","","","","","animation","126","1332321","0.0-126.0","1920x1080","","5444","17.46","img/117/4/0.66667/bw/001.png","","","appealing"
"","","","","","animation","127","1335809","0.0-127.0","1920x1080","","3486.2999999970198","4.10","img/117/3.5/2/bw/001.png","","","appealing"
"","","","","","animation","128","1352617","0.0-128.0","1920x1080","","16806.69999998808","8.60","img/314/3.5/1/bw/001.png","","","appealing"
"","","","","","animation","129","1362833","0.0-129.0","1920x1080","","10215.20000000298","38","img/238/4.5/0.5/bw/001.png","","","appealing"
"","","","","","animation","130","1366676","0.0-130.0","1920x1080","","3842.1000000089407","0","img/238/2.5/1/bw/001.png","","","appealing"
"","","","","","animation","131","1370976","0.0-131.0","1920x1080","","4299.20000000298","0","img/238/2.5/0.5/bw/001.png","","","appealing"
"","","","","","animation","132","1376497","0.0-132.0","1920x1080","","5519.29999999702","6","img/238/4/0.66667/bw/001.png","","","appealing"
"","","","","","animation","133","1385249","0.0-133.0","1920x1080","","8751.10000000894","11.11","img/238/4/1.5/bw/001.png","","","appealing"
"","","","","","animation","134","1396814","0.0-134.0","1920x1080","","11561","20.24","img/238/3.5/1.5/bw/001.png","","","appealing"
"","","","","","animation","135","1402712","0.0-135.0","1920x1080","","5896.899999991059","11.51","img/238/3.5/1/bw/001.png","","","appealing"
"","","","","","animation","136","1419547","0.0-136.0","1920x1080","","16834.40000000596","71.56","img/117/4.5/1.5/bw/001.png","","","appealing"
"","","","","","animation","137","1425484","0.0-137.0","1920x1080","","5935.29999999702","100","img/238/5.5/1/bw/001.png","","","appealing"
"","","","","","animation","138","1429972","0.0-138.0","1920x1080","","4487.0999999940395","0","img/314/2.5/1/bw/001.png","","","appealing"
"","","","","","animation","139","1434731","0.0-139.0","1920x1080","","4758.4000000059605","0","img/238/2.5/0.66667/bw/001.png","","","appealing"
"","","","","","animation","140","1437795","0.0-140.0","1920x1080","","3063","0","img/117/2.5/0.66667/bw/001.png","","","appealing"
"","","","","","animation","141","1444728","0.0-141.0","1920x1080","","6931.70000000298","76","img/314/5.5/0.5/bw/001.png","","","appealing"
"","","","","","animation","142","1452482","0.0-142.0","1920x1080","","7754.399999991059","45.37","img/314/4/0.66667/bw/001.png","","","appealing"
"","","","","","animation","143","1460931","0.0-143.0","1920x1080","","8447.10000000894","89","img/238/5.5/0.5/bw/001.png","","","appealing"
"","","","","","animation","144","1463929","0.0-144.0","1920x1080","","2997.2000000029802","1.98","img/314/2.5/1.5/bw/001.png","","","appealing"
"","","","","","animation","145","1468147","0.0-145.0","1920x1080","","4216.699999988079","3.44","img/117/3.5/0.66667/bw/001.png","","","appealing"
"","","","","","animation","146","1474987","0.0-146.0","1920x1080","","6838.5999999940395","100","img/117/5.5/2/bw/001.png","","","appealing"
"","","","","","animation","147","1505803","0.0-147.0","1920x1080","","30814.20000000298","47.62","img/238/4/0.5/bw/001.png","","","appealing"
"","","","","","animation","148","1511176","0.0-148.0","1920x1080","","5374.79999999702","17.99","img/117/3.5/0.5/bw/001.png","","","appealing"
"","","","","","animation","149","1516417","0.0-149.0","1920x1080","","5239.29999999702","100","img/314/5.5/2/bw/001.png","","","appealing"
"","","","","","animation","150","1521194","0.0-150.0","1920x1080","","4775.79999999702","100","img/238/5.5/0.66667/bw/001.png","","","appealing"
"","","","","","animation","151","1531081","0.0-151.0","1920x1080","","9885.5","26.72","img/314/4/0.5/bw/001.png","","","appealing"
"","","","","","animation","152","1535185","0.0-152.0","1920x1080","","4102.79999999702","100","img/314/5.5/1/bw/001.png","","","appealing"
"","","","","","animation","153","1553976","0.0-153.0","1920x1080","","18790.5","66.80","img/314/4.5/1/bw/001.png","","","appealing"
"","","","","","animation","154","1557709","0.0-154.0","1920x1080","","3731.0999999940395","0.13","img/117/2.5/1/bw/001.png","","","appealing"
"","","","","","animation","155","1562059","0.0-155.0","1920x1080","","4349.399999991059","63.36","img/314/4.5/1.5/bw/001.png","","","appealing"
"","","","","","animation","156","1565825","0.0-156.0","1920x1080","","3765.0999999940395","91.40","img/117/5.5/0.5/bw/001.png","","","appealing"
"","","","","","animation","157","1572611","0.0-157.0","1920x1080","","6782.29999999702","1.98","img/314/2.5/2/bw/001.png","","","appealing"
"","","","","","animation","158","1586611","0.0-158.0","1920x1080","","13998.79999999702","0","img/314/2.5/0.66667/bw/001.png","","","appealing"
"","","","","","html-button-response","159","1613811","0.0-159.0","1920x1080","","27198","","<div class=""intro"">You are about to view a new series of animations.<br><br></div><div class=""intro"">You will evaluate them based on a different descriptor.<br><br></div><div class=""intro"">Move the slider to indicate how <strong style=""text-transform:capitalize"">NATURAL</strong> you find each animation.<br><br></div><div class=""intro"">0 = Least Natural<br></div><div class=""intro"">1 = Most Natural<br><br></div><div class=""intro"">Remember to use the <strong><em>entire range</em></strong> of the slider to make your ratings.<br></div><div class=""intro"">Please <strong><em>take your time</em></strong> and carefully consider each rating you make.<br><br></div>","0","",""
"","","","","","call-function","160","1613814","0.0-160.0","1920x1080","","","","","","",""
"","","","","","animation","161","1619554","0.0-161.0","1920x1080","","5739.600000008941","97","img/314/5.5/0.66667/bw/001.png","","","natural"
"","","","","","animation","162","1626311","0.0-162.0","1920x1080","","6754.79999999702","91.80","img/238/2.5/2/bw/001.png","","","natural"
"","","","","","animation","163","1632593","0.0-163.0","1920x1080","","6283.399999991059","30","img/314/2.5/1/bw/001.png","","","natural"
"","","","","","animation","164","1635125","0.0-164.0","1920x1080","","2530.5999999940395","4.37","img/314/2.5/0.66667/bw/001.png","","","natural"
"","","","","","animation","165","1641976","0.0-165.0","1920x1080","","6850.399999991059","29.37","img/314/4/0.66667/bw/001.png","","","natural"
"","","","","","animation","166","1645643","0.0-166.0","1920x1080","","3665.4000000059605","92.59","img/314/4.5/2/bw/001.png","","","natural"
"","","","","","animation","167","1650160","0.0-167.0","1920x1080","","4516.29999999702","6.22","img/117/4/0.5/bw/001.png","","","natural"
"","","","","","animation","168","1652585","0.0-168.0","1920x1080","","2423.1000000089407","1.98","img/238/2.5/0.5/bw/001.png","","","natural"
"","","","","","animation","169","1657643","0.0-169.0","1920x1080","","5056.9000000059605","55.29","img/238/4/2/bw/001.png","","","natural"
"","","","","","animation","170","1660475","0.0-170.0","1920x1080","","2830.9000000059605","3.84","img/238/2.5/1.5/bw/001.png","","","natural"
"","","","","","animation","171","1665976","0.0-171.0","1920x1080","","5500.399999991059","20.24","img/314/5.5/0.5/bw/001.png","","","natural"
"","","","","","animation","172","1674969","0.0-172.0","1920x1080","","8991.40000000596","30","img/314/2.5/2/bw/001.png","","","natural"
"","","","","","animation","173","1682912","0.0-173.0","1920x1080","","7942.5","45","img/238/4.5/0.66667/bw/001.png","","","natural"
"","","","","","animation","174","1690835","0.0-174.0","1920x1080","","7919.100000008941","5.56","img/117/2.5/0.66667/bw/001.png","","","natural"
"","","","","","animation","175","1699928","0.0-175.0","1920x1080","","9091.40000000596","96","img/314/5.5/1/bw/001.png","","","natural"
"","","","","","animation","176","1780298","0.0-176.0","1920x1080","","80365.79999999702","44.05","img/314/4/1/bw/001.png","","","natural"
"","","","","","animation","177","1782991","0.0-177.0","1920x1080","","2691.6000000089407","19.71","img/117/4.5/0.5/bw/001.png","","","natural"
"","","","","","animation","178","1786166","0.0-178.0","1920x1080","","3174.2000000029802","96","img/238/5.5/1/bw/001.png","","","natural"
"","","","","","animation","179","1790439","0.0-179.0","1920x1080","","4271.29999999702","55","img/117/5.5/0.5/bw/001.png","","","natural"
"","","","","","animation","180","1793807","0.0-180.0","1920x1080","","3367","77.51","img/238/5.5/0.66667/bw/001.png","","","natural"
"","","","","","animation","181","1798965","0.0-181.0","1920x1080","","5156.5999999940395","100","img/117/4.5/1.5/bw/001.png","","","natural"
"","","","","","animation","182","1805439","0.0-182.0","1920x1080","","6473.20000000298","79.23","img/238/4.5/1/bw/001.png","","","natural"
"","","","","","animation","183","1852714","0.0-183.0","1920x1080","","47278.79999999702","30.29","img/117/3.5/0.5/bw/001.png","","","natural"
"","","","","","animation","184","1857635","0.0-184.0","1920x1080","","4918.79999999702","68.78","img/238/4/1/bw/001.png","","","natural"
"","","","","","animation","185","1872025","0.0-185.0","1920x1080","","14390.70000000298","25.66","img/238/4/0.66667/bw/001.png","","","natural"
"","","","","","animation","186","1876329","0.0-186.0","1920x1080","","4302.0999999940395","89.42","img/314/3.5/2/bw/001.png","","","natural"
"","","","","","animation","187","1881008","0.0-187.0","1920x1080","","4678.399999991059","6","img/238/3.5/0.5/bw/001.png","","","natural"
"","","","","","animation","188","1884758","0.0-188.0","1920x1080","","3748.8999999910593","100","img/117/5.5/1.5/bw/001.png","","","natural"
"","","","","","animation","189","1943359","0.0-189.0","1920x1080","","58600.20000000298","46.16","img/314/3.5/0.66667/bw/001.png","","","natural"
"","","","","","animation","190","1948674","0.0-190.0","1920x1080","","5313.9000000059605","58.20","img/238/2.5/1/bw/001.png","","","natural"
"","","","","","animation","191","1952624","0.0-191.0","1920x1080","","3947.7999999970198","100","img/238/3.5/2/bw/001.png","","","natural"
"","","","","","animation","192","1957512","0.0-192.0","1920x1080","","4886.600000008941","37.04","img/117/3.5/1/bw/001.png","","","natural"
"","","","","","animation","193","1960742","0.0-193.0","1920x1080","","3228.0999999940395","34.92","img/238/4.5/0.5/bw/001.png","","","natural"
"","","","","","animation","194","1966192","0.0-194.0","1920x1080","","5449.0999999940395","18.65","img/238/4/0.5/bw/001.png","","","natural"
"","","","","","animation","195","1969616","0.0-195.0","1920x1080","","3422.3999999910593","23.02","img/314/3.5/0.5/bw/001.png","","","natural"
"","","","","","animation","196","1974784","0.0-196.0","1920x1080","","5166.79999999702","89.02","img/314/4/2/bw/001.png","","","natural"
"","","","","","animation","197","1984280","0.0-197.0","1920x1080","","9494.40000000596","82.94","img/117/4/1/bw/001.png","","","natural"
"","","","","","animation","198","1989358","0.0-198.0","1920x1080","","5076.79999999702","92.46","img/238/5.5/0.5/bw/001.png","","","natural"
"","","","","","animation","199","2000259","0.0-199.0","1920x1080","","10899.09999999404","46.03","img/117/4/0.66667/bw/001.png","","","natural"
"","","","","","animation","200","2004493","0.0-200.0","1920x1080","","4232","91.14","img/238/4.5/2/bw/001.png","","","natural"
"","","","","","animation","201","2008250","0.0-201.0","1920x1080","","3756","99","img/314/5.5/2/bw/001.png","","","natural"
"","","","","","animation","202","2013442","0.0-202.0","1920x1080","","5190.70000000298","12","img/238/2.5/0.66667/bw/001.png","","","natural"
"","","","","","animation","203","2021176","0.0-203.0","1920x1080","","7732.20000000298","97","img/238/4.5/1.5/bw/001.png","","","natural"
"","","","","","animation","204","2040643","0.0-204.0","1920x1080","","19465.60000000894","57.41","img/117/4.5/1/bw/001.png","","","natural"
"","","","","","animation","205","2044777","0.0-205.0","1920x1080","","4133.5","41.53","img/314/4.5/0.66667/bw/001.png","","","natural"
"","","","","","animation","206","2113693","0.0-206.0","1920x1080","","68913.89999999106","78.57","img/117/4.5/2/bw/001.png","","","natural"
"","","","","","animation","207","2121130","0.0-207.0","1920x1080","","7435.79999999702","51.85","img/117/4/2/bw/001.png","","","natural"
"","","","","","animation","208","2124226","0.0-208.0","1920x1080","","3095.0999999940395","23.94","img/314/2.5/1.5/bw/001.png","","","natural"
"","","","","","animation","209","2128142","0.0-209.0","1920x1080","","3912.7999999970198","0","img/117/2.5/0.5/bw/001.png","","","natural"
"","","","","","animation","210","2131762","0.0-210.0","1920x1080","","3618.2999999970198","22.62","img/117/4.5/0.66667/bw/001.png","","","natural"
"","","","","","animation","211","2134910","0.0-211.0","1920x1080","","3147.4000000059605","94.97","img/238/5.5/1.5/bw/001.png","","","natural"
"","","","","","animation","212","2137218","0.0-212.0","1920x1080","","2306.7999999970198","3.70","img/117/2.5/1/bw/001.png","","","natural"
"","","","","","animation","213","2141378","0.0-213.0","1920x1080","","4158.0999999940395","42.33","img/117/4/1.5/bw/001.png","","","natural"
"","","","","","animation","214","2149726","0.0-214.0","1920x1080","","8347.20000000298","66.53","img/238/3.5/1.5/bw/001.png","","","natural"
"","","","","","animation","215","2166254","0.0-215.0","1920x1080","","16526.40000000596","45.77","img/238/3.5/1/bw/001.png","","","natural"
"","","","","","animation","216","2170218","0.0-216.0","1920x1080","","3962.5","70.24","img/117/3.5/2/bw/001.png","","","natural"
"","","","","","animation","217","2172926","0.0-217.0","1920x1080","","2706.4000000059605","62.04","img/238/4/1.5/bw/001.png","","","natural"
"","","","","","animation","218","2175946","0.0-218.0","1920x1080","","3018.6000000089407","98","img/238/5.5/2/bw/001.png","","","natural"
"","","","","","animation","219","2182243","0.0-219.0","1920x1080","","6296.300000011921","94","img/314/4/1.5/bw/001.png","","","natural"
"","","","","","animation","220","2187634","0.0-220.0","1920x1080","","5389.70000000298","89.42","img/117/5.5/1/bw/001.png","","","natural"
"","","","","","animation","221","2196093","0.0-221.0","1920x1080","","8457.60000000894","49.07","img/314/3.5/1/bw/001.png","","","natural"
"","","","","","animation","222","2209443","0.0-222.0","1920x1080","","13348.5","54.50","img/117/2.5/1.5/bw/001.png","","","natural"
"","","","","","animation","223","2217894","0.0-223.0","1920x1080","","8450.09999999404","67","img/314/3.5/1.5/bw/001.png","","","natural"
"","","","","","animation","224","2224759","0.0-224.0","1920x1080","","6864.29999999702","40","img/117/2.5/2/bw/001.png","","","natural"
"","","","","","animation","225","2229546","0.0-225.0","1920x1080","","4785.100000008941","0.79","img/238/3.5/0.66667/bw/001.png","","","natural"
"","","","","","animation","226","2234161","0.0-226.0","1920x1080","","4614.70000000298","100.00","img/117/5.5/2/bw/001.png","","","natural"
"","","","","","animation","227","2238710","0.0-227.0","1920x1080","","4547.4000000059605","97","img/314/5.5/1.5/bw/001.png","","","natural"
"","","","","","animation","228","2253692","0.0-228.0","1920x1080","","14980.59999999404","49.21","img/314/4.5/1/bw/001.png","","","natural"
"","","","","","animation","229","2268233","0.0-229.0","1920x1080","","14540.300000011921","24.47","img/314/4/0.5/bw/001.png","","","natural"
"","","","","","animation","230","2271177","0.0-230.0","1920x1080","","2942.300000011921","0","img/314/2.5/0.5/bw/001.png","","","natural"
"","","","","","animation","231","2275433","0.0-231.0","1920x1080","","4255.0999999940395","0","img/314/4.5/0.5/bw/001.png","","","natural"
"","","","","","animation","232","2277742","0.0-232.0","1920x1080","","2307.0999999940395","2.51","img/117/3.5/0.66667/bw/001.png","","","natural"
"","","","","","animation","233","2281729","0.0-233.0","1920x1080","","3986.3999999910593","98","img/314/4.5/1.5/bw/001.png","","","natural"
"","","","","","animation","234","2285567","0.0-234.0","1920x1080","","3836.5999999940395","96","img/117/5.5/0.66667/bw/001.png","","","natural"
"","","","","","animation","235","2306664","0.0-235.0","1920x1080","","21096.5","67.33","img/117/3.5/1.5/bw/001.png","","","natural"
"","","","","","html-button-response","236","2326432","0.0-236.0","1920x1080","","19766.90000000596","","<div class=""intro"">You are about to view a new series of animations.<br><br></div><div class=""intro"">You will evaluate them based on a different descriptor.<br><br></div><div class=""intro"">Move the slider to indicate how <strong style=""text-transform:capitalize"">INTERESTING</strong> you find each animation.<br><br></div><div class=""intro"">0 = Least Interesting<br></div><div class=""intro"">1 = Most Interesting<br><br></div><div class=""intro"">Remember to use the <strong><em>entire range</em></strong> of the slider to make your ratings.<br></div><div class=""intro"">Please <strong><em>take your time</em></strong> and carefully consider each rating you make.<br><br></div>","0","",""
"","","","","","call-function","237","2326433","0.0-237.0","1920x1080","","","","","","",""
"","","","","","animation","238","2338896","0.0-238.0","1920x1080","","12461.90000000596","27.12","img/117/3.5/1/bw/001.png","","","interesting"
"","","","","","animation","239","2342927","0.0-239.0","1920x1080","","4030.5","53.17","img/238/4/2/bw/001.png","","","interesting"
"","","","","","animation","240","2348900","0.0-240.0","1920x1080","","5971.0999999940395","52.12","img/117/4/1/bw/001.png","","","interesting"
"","","","","","animation","241","2361925","0.0-241.0","1920x1080","","13021.79999999702","33.86","img/238/3.5/0.66667/bw/001.png","","","interesting"
"","","","","","animation","242","2369161","0.0-242.0","1920x1080","","7234.20000000298","41.67","img/117/3.5/2/bw/001.png","","","interesting"
"","","","","","animation","243","2395393","0.0-243.0","1920x1080","","26230.5","64.02","img/238/4/0.66667/bw/001.png","","","interesting"
"","","","","","animation","244","2406259","0.0-244.0","1920x1080","","10864.29999999702","77.38","img/117/4/1.5/bw/001.png","","","interesting"
"","","","","","animation","245","2410129","0.0-245.0","1920x1080","","3869.5999999940395","82.54","img/117/4.5/0.66667/bw/001.png","","","interesting"
"","","","","","animation","246","2415633","0.0-246.0","1920x1080","","5502.5","65","img/238/4.5/2/bw/001.png","","","interesting"
"","","","","","animation","247","2418375","0.0-247.0","1920x1080","","2740.6000000089407","31","img/117/4/0.5/bw/001.png","","","interesting"
"","","","","","animation","248","2423249","0.0-248.0","1920x1080","","4873.100000008941","52","img/117/4/2/bw/001.png","","","interesting"
"","","","","","animation","249","2427608","0.0-249.0","1920x1080","","4357.5","0","img/117/2.5/1.5/bw/001.png","","","interesting"
"","","","","","animation","250","2433481","0.0-250.0","1920x1080","","5871.79999999702","33.07","img/314/4/1.5/bw/001.png","","","interesting"
"","","","","","animation","251","2438141","0.0-251.0","1920x1080","","4659.0999999940395","100","img/238/5.5/0.5/bw/001.png","","","interesting"
"","","","","","animation","252","2452075","0.0-252.0","1920x1080","","13932.59999999404","31.48","img/314/4/0.66667/bw/001.png","","","interesting"
"","","","","","animation","253","2455929","0.0-253.0","1920x1080","","3852.5999999940395","100","img/314/5.5/2/bw/001.png","","","interesting"
"","","","","","animation","254","2459192","0.0-254.0","1920x1080","","3261.2000000029802","0","img/238/2.5/1/bw/001.png","","","interesting"
"","","","","","animation","255","2479223","0.0-255.0","1920x1080","","20031.5","100","img/117/5.5/0.5/bw/001.png","","","interesting"
"","","","","","animation","256","2482223","0.0-256.0","1920x1080","","2997.7999999970198","0","img/117/2.5/0.66667/bw/001.png","","","interesting"
"","","","","","animation","257","2486373","0.0-257.0","1920x1080","","4149.4000000059605","100","img/117/5.5/1.5/bw/001.png","","","interesting"
"","","","","","animation","258","2491390","0.0-258.0","1920x1080","","5015.5999999940395","55.16","img/117/4.5/2/bw/001.png","","","interesting"
"","","","","","animation","259","2496864","0.0-259.0","1920x1080","","5472.100000008941","73.68","img/314/4.5/2/bw/001.png","","","interesting"
"","","","","","animation","260","2503973","0.0-260.0","1920x1080","","7108.600000008941","17.86","img/314/4/2/bw/001.png","","","interesting"
"","","","","","animation","261","2508048","0.0-261.0","1920x1080","","4073.2999999970198","0.40","img/314/2.5/1.5/bw/001.png","","","interesting"
"","","","","","animation","262","2536129","0.0-262.0","1920x1080","","28077.79999999702","91.80","img/238/4.5/0.66667/bw/001.png","","","interesting"
"","","","","","animation","263","2542993","0.0-263.0","1920x1080","","6862.20000000298","30.95","img/314/3.5/1/bw/001.png","","","interesting"
"","","","","","animation","264","2549897","0.0-264.0","1920x1080","","6903.300000011921","55.56","img/238/4.5/1/bw/001.png","","","interesting"
"","","","","","animation","265","2557961","0.0-265.0","1920x1080","","8062.4000000059605","0","img/238/2.5/0.5/bw/001.png","","","interesting"
"","","","","","animation","266","2562545","0.0-266.0","1920x1080","","4583.0999999940395","67.46","img/238/4/1/bw/001.png","","","interesting"
"","","","","","animation","267","2570177","0.0-267.0","1920x1080","","7630.4000000059605","76.85","img/117/4.5/1.5/bw/001.png","","","interesting"
"","","","","","animation","268","2574012","0.0-268.0","1920x1080","","3834","5.42","img/314/3.5/1.5/bw/001.png","","","interesting"
"","","","","","animation","269","2582945","0.0-269.0","1920x1080","","8931.29999999702","2","img/117/3.5/1.5/bw/001.png","","","interesting"
"","","","","","animation","270","2586925","0.0-270.0","1920x1080","","3978.5999999940395","4.89","img/238/4/1.5/bw/001.png","","","interesting"
"","","","","","animation","271","2592312","0.0-271.0","1920x1080","","5386.5","0","img/238/3.5/0.5/bw/001.png","","","interesting"
"","","","","","animation","272","2595824","0.0-272.0","1920x1080","","3510.7999999970198","100","img/238/5.5/2/bw/001.png","","","interesting"
"","","","","","animation","273","2610912","0.0-273.0","1920x1080","","15086.70000000298","100","img/314/5.5/0.66667/bw/001.png","","","interesting"
"","","","","","animation","274","2632696","0.0-274.0","1920x1080","","21782.20000000298","0","img/314/2.5/0.5/bw/001.png","","","interesting"
"","","","","","animation","275","2638423","0.0-275.0","1920x1080","","5725.29999999702","14","img/314/2.5/2/bw/001.png","","","interesting"
"","","","","","animation","276","2644790","0.0-276.0","1920x1080","","6365.5","3.17","img/117/2.5/2/bw/001.png","","","interesting"
"","","","","","animation","277","2648390","0.0-277.0","1920x1080","","3598.7999999970198","-0.26","img/314/2.5/1/bw/001.png","","","interesting"
"","","","","","animation","278","2677756","0.0-278.0","1920x1080","","29365.30000001192","56","img/314/3.5/2/bw/001.png","","","interesting"
"","","","","","animation","279","2681158","0.0-279.0","1920x1080","","3401.5999999940395","0.13","img/314/2.5/0.66667/bw/001.png","","","interesting"
"","","","","","animation","280","2684355","0.0-280.0","1920x1080","","3195.9000000059605","100","img/314/4.5/1.5/bw/001.png","","","interesting"
"","","","","","animation","281","2689263","0.0-281.0","1920x1080","","4904","75.00","img/117/4.5/0.5/bw/001.png","","","interesting"
"","","","","","animation","282","2693558","0.0-282.0","1920x1080","","4294.20000000298","86.38","img/314/4.5/0.66667/bw/001.png","","","interesting"
"","","","","","animation","283","2699711","0.0-283.0","1920x1080","","6151.20000000298","20","img/117/3.5/0.66667/bw/001.png","","","interesting"
"","","","","","animation","284","2703495","0.0-284.0","1920x1080","","3782.7000000029802","100","img/117/5.5/2/bw/001.png","","","interesting"
"","","","","","animation","285","2708942","0.0-285.0","1920x1080","","5446.20000000298","0","img/238/2.5/0.66667/bw/001.png","","","interesting"
"","","","","","animation","286","2715124","0.0-286.0","1920x1080","","6179","73","img/238/4/0.5/bw/001.png","","","interesting"
"","","","","","animation","287","2718458","0.0-287.0","1920x1080","","3332.2999999970198","100","img/117/5.5/1/bw/001.png","","","interesting"
"","","","","","animation","288","2723158","0.0-288.0","1920x1080","","4698.79999999702","29","img/314/3.5/0.66667/bw/001.png","","","interesting"
"","","","","","animation","289","2729776","0.0-289.0","1920x1080","","6617.0999999940395","50.13","img/314/4/0.5/bw/001.png","","","interesting"
"","","","","","animation","290","2735649","0.0-290.0","1920x1080","","5871.29999999702","63.10","img/117/4/0.66667/bw/001.png","","","interesting"
"","","","","","animation","291","2739408","0.0-291.0","1920x1080","","3758.0999999940395","0.93","img/117/2.5/1/bw/001.png","","","interesting"
"","","","","","animation","292","2754648","0.0-292.0","1920x1080","","15239.10000000894","21","img/117/3.5/0.5/bw/001.png","","","interesting"
"","","","","","animation","293","2759840","0.0-293.0","1920x1080","","5190.5","98","img/238/3.5/1.5/bw/001.png","","","interesting"
"","","","","","animation","294","2762891","0.0-294.0","1920x1080","","3049.2000000029802","100","img/314/4.5/1/bw/001.png","","","interesting"
"","","","","","animation","295","2765560","0.0-295.0","1920x1080","","2667.7999999970198","100","img/314/5.5/1/bw/001.png","","","interesting"
"","","","","","animation","296","2768448","0.0-296.0","1920x1080","","2886.9000000059605","10.85","img/238/2.5/2/bw/001.png","","","interesting"
"","","","","","animation","297","2772305","0.0-297.0","1920x1080","","3857","100","img/117/5.5/0.66667/bw/001.png","","","interesting"
"","","","","","animation","298","2794006","0.0-298.0","1920x1080","","21698.90000000596","22.62","img/238/3.5/1/bw/001.png","","","interesting"
"","","","","","animation","299","2801722","0.0-299.0","1920x1080","","7714.79999999702","100","img/314/5.5/0.5/bw/001.png","","","interesting"
"","","","","","animation","300","2807439","0.0-300.0","1920x1080","","5715.20000000298","100","img/238/5.5/1.5/bw/001.png","","","interesting"
"","","","","","animation","301","2815742","0.0-301.0","1920x1080","","8301.5","88.89","img/117/4.5/1/bw/001.png","","","interesting"
"","","","","","animation","302","2823855","0.0-302.0","1920x1080","","8112.0999999940395","100","img/238/5.5/0.66667/bw/001.png","","","interesting"
"","","","","","animation","303","2828939","0.0-303.0","1920x1080","","5081.899999991059","100","img/314/5.5/1.5/bw/001.png","","","interesting"
"","","","","","animation","304","2834481","0.0-304.0","1920x1080","","5537.699999988079","0","img/238/2.5/1.5/bw/001.png","","","interesting"
"","","","","","animation","305","2838543","0.0-305.0","1920x1080","","4060.2000000029802","45.90","img/314/3.5/0.5/bw/001.png","","","interesting"
"","","","","","animation","306","2842858","0.0-306.0","1920x1080","","4312.800000011921","40.61","img/238/3.5/2/bw/001.png","","","interesting"
"","","","","","animation","307","2846009","0.0-307.0","1920x1080","","3149.2999999970198","100","img/238/5.5/1/bw/001.png","","","interesting"
"","","","","","animation","308","2850124","0.0-308.0","1920x1080","","4114.100000008941","66.67","img/314/4/1/bw/001.png","","","interesting"
"","","","","","animation","309","2856313","0.0-309.0","1920x1080","","6187.70000000298","0","img/117/2.5/0.5/bw/001.png","","","interesting"
"","","","","","animation","310","2869881","0.0-310.0","1920x1080","","13566.10000000894","86.64","img/238/4.5/1.5/bw/001.png","","","interesting"
"","","","","","animation","311","2878150","0.0-311.0","1920x1080","","8265.5","100","img/238/4.5/0.5/bw/001.png","","","interesting"
"","","","","","animation","312","2882713","0.0-312.0","1920x1080","","4560.20000000298","79.10","img/314/4.5/0.5/bw/001.png","","","interesting"
"","","","","","html-button-response","313","2905352","0.0-313.0","1920x1080","","22631.10000000894","","<div class=""intro"">You are about to view a new series of animations.<br><br></div><div class=""intro"">You will evaluate them based on a different descriptor.<br><br></div><div class=""intro"">Move the slider to indicate how <strong style=""text-transform:capitalize"">RELAXING</strong> you find each animation.<br><br></div><div class=""intro"">0 = Least Relaxing<br></div><div class=""intro"">1 = Most Relaxing<br><br></div><div class=""intro"">Remember to use the <strong><em>entire range</em></strong> of the slider to make your ratings.<br></div><div class=""intro"">Please <strong><em>take your time</em></strong> and carefully consider each rating you make.<br><br></div>","0","",""
"","","","","","call-function","314","2905355","0.0-314.0","1920x1080","","","","","","",""
"","","","","","animation","315","2910823","0.0-315.0","1920x1080","","5467.300000011921","98","img/238/5.5/0.66667/bw/001.png","","","relaxing"
"","","","","","animation","316","2914065","0.0-316.0","1920x1080","","3240","100","img/238/5.5/1.5/bw/001.png","","","relaxing"
"","","","","","animation","317","2923164","0.0-317.0","1920x1080","","9097.60000000894","35","img/314/4/1/bw/001.png","","","relaxing"
"","","","","","animation","318","2926299","0.0-318.0","1920x1080","","3133.5","1.98","img/238/4.5/0.5/bw/001.png","","","relaxing"
"","","","","","animation","319","2930154","0.0-319.0","1920x1080","","3852.2999999970198","9.52","img/314/4/0.66667/bw/001.png","","","relaxing"
"","","","","","animation","320","2936052","0.0-320.0","1920x1080","","5896.20000000298","5.03","img/117/2.5/2/bw/001.png","","","relaxing"
"","","","","","animation","321","2943136","0.0-321.0","1920x1080","","7081.899999991059","21.43","img/314/4.5/0.66667/bw/001.png","","","relaxing"
"","","","","","animation","322","2947832","0.0-322.0","1920x1080","","4694.5999999940395","84.92","img/117/5.5/0.66667/bw/001.png","","","relaxing"
"","","","","","animation","323","2953623","0.0-323.0","1920x1080","","5798.5","11.24","img/238/2.5/2/bw/001.png","","","relaxing"
"","","","","","animation","324","2958122","0.0-324.0","1920x1080","","4497.5","-0.13","img/117/2.5/1/bw/001.png","","","relaxing"
"","","","","","animation","325","2970005","0.0-325.0","1920x1080","","11882.10000000894","78.31","img/238/3.5/1.5/bw/001.png","","","relaxing"
"","","","","","animation","326","2975479","0.0-326.0","1920x1080","","5472.5","77.25","img/238/3.5/2/bw/001.png","","","relaxing"
"","","","","","animation","327","2979548","0.0-327.0","1920x1080","","4067","38.76","img/238/3.5/1/bw/001.png","","","relaxing"
"","","","","","animation","328","2982956","0.0-328.0","1920x1080","","3406.0999999940395","0","img/238/2.5/0.5/bw/001.png","","","relaxing"
"","","","","","animation","329","2988096","0.0-329.0","1920x1080","","5138.5","0","img/117/2.5/0.66667/bw/001.png","","","relaxing"
"","","","","","animation","330","2997797","0.0-330.0","1920x1080","","9699","98","img/117/4.5/2/bw/001.png","","","relaxing"
"","","","","","animation","331","3012199","0.0-331.0","1920x1080","","14401.699999988079","81","img/314/3.5/2/bw/001.png","","","relaxing"
"","","","","","animation","332","3047294","0.0-332.0","1920x1080","","35092.79999999702","32","img/238/4/0.5/bw/001.png","","","relaxing"
"","","","","","animation","333","3050616","0.0-333.0","1920x1080","","3319.9000000059605","1.72","img/238/3.5/0.5/bw/001.png","","","relaxing"
"","","","","","animation","334","3055259","0.0-334.0","1920x1080","","4641.399999991059","100","img/314/5.5/0.66667/bw/001.png","","","relaxing"
"","","","","","animation","335","3060366","0.0-335.0","1920x1080","","5104.79999999702","0","img/238/2.5/1/bw/001.png","","","relaxing"
"","","","","","animation","336","3063931","0.0-336.0","1920x1080","","3562.7999999970198","0","img/117/2.5/0.5/bw/001.png","","","relaxing"
"","","","","","animation","337","3067173","0.0-337.0","1920x1080","","3240.5999999940395","48.28","img/117/4.5/1/bw/001.png","","","relaxing"
"","","","","","animation","338","3072527","0.0-338.0","1920x1080","","5351.20000000298","73","img/238/4.5/1.5/bw/001.png","","","relaxing"
"","","","","","animation","339","3076417","0.0-339.0","1920x1080","","3888.2999999970198","0","img/314/2.5/1/bw/001.png","","","relaxing"
"","","","","","animation","340","3080263","0.0-340.0","1920x1080","","3844.8999999910593","0","img/238/2.5/1.5/bw/001.png","","","relaxing"
"","","","","","animation","341","3084034","0.0-341.0","1920x1080","","3768.7000000029802","15.48","img/117/3.5/1/bw/001.png","","","relaxing"
"","","","","","animation","342","3088046","0.0-342.0","1920x1080","","4010.5999999940395","88","img/314/5.5/0.5/bw/001.png","","","relaxing"
"","","","","","animation","343","3091520","0.0-343.0","1920x1080","","3472.0999999940395","22.62","img/117/4/0.5/bw/001.png","","","relaxing"
"","","","","","animation","344","3094456","0.0-344.0","1920x1080","","2934.7000000029802","27.25","img/314/3.5/0.66667/bw/001.png","","","relaxing"
"","","","","","animation","345","3100047","0.0-345.0","1920x1080","","5589.79999999702","39.29","img/238/4/1/bw/001.png","","","relaxing"
"","","","","","animation","346","3103407","0.0-346.0","1920x1080","","3357.7000000029802","0.40","img/314/2.5/0.66667/bw/001.png","","","relaxing"
"","","","","","animation","347","3108244","0.0-347.0","1920x1080","","4836.4000000059605","3","img/117/3.5/0.5/bw/001.png","","","relaxing"
"","","","","","animation","348","3114524","0.0-348.0","1920x1080","","6276.399999991059","59.52","img/117/3.5/2/bw/001.png","","","relaxing"
"","","","","","animation","349","3120080","0.0-349.0","1920x1080","","5555.5","98","img/117/4.5/1.5/bw/001.png","","","relaxing"
"","","","","","animation","350","3123122","0.0-350.0","1920x1080","","3040","100","img/238/5.5/2/bw/001.png","","","relaxing"
"","","","","","animation","351","3128473","0.0-351.0","1920x1080","","5349.70000000298","4","img/238/3.5/0.66667/bw/001.png","","","relaxing"
"","","","","","animation","352","3133709","0.0-352.0","1920x1080","","5237.0999999940395","100","img/314/5.5/1.5/bw/001.png","","","relaxing"
"","","","","","animation","353","3138556","0.0-353.0","1920x1080","","4844.899999991059","100","img/238/5.5/1/bw/001.png","","","relaxing"
"","","","","","animation","354","3141571","0.0-354.0","1920x1080","","3013.2999999970198","35.58","img/314/4.5/0.5/bw/001.png","","","relaxing"
"","","","","","animation","355","3144105","0.0-355.0","1920x1080","","2533.4000000059605","23.94","img/238/4.5/0.66667/bw/001.png","","","relaxing"
"","","","","","animation","356","3147531","0.0-356.0","1920x1080","","3423.7000000029802","100","img/117/5.5/2/bw/001.png","","","relaxing"
"","","","","","animation","357","3151908","0.0-357.0","1920x1080","","4375.0999999940395","80.03","img/314/4/2/bw/001.png","","","relaxing"
"","","","","","animation","358","3155087","0.0-358.0","1920x1080","","3178","-0.26","img/314/2.5/0.5/bw/001.png","","","relaxing"
"","","","","","animation","359","3158892","0.0-359.0","1920x1080","","3803.2000000029802","55.16","img/117/4/1.5/bw/001.png","","","relaxing"
"","","","","","animation","360","3171014","0.0-360.0","1920x1080","","12119.800000011921","81.08","img/238/4/2/bw/001.png","","","relaxing"
"","","","","","animation","361","3176551","0.0-361.0","1920x1080","","5535.300000011921","80.56","img/238/4/1.5/bw/001.png","","","relaxing"
"","","","","","animation","362","3183175","0.0-362.0","1920x1080","","6622.70000000298","86","img/314/4.5/1/bw/001.png","","","relaxing"
"","","","","","animation","363","3188988","0.0-363.0","1920x1080","","5811.20000000298","61.90","img/117/5.5/0.5/bw/001.png","","","relaxing"
"","","","","","animation","364","3195387","0.0-364.0","1920x1080","","6386.5999999940395","74","img/117/5.5/1/bw/001.png","","","relaxing"
"","","","","","animation","365","3202505","0.0-365.0","1920x1080","","7115","92.72","img/238/4.5/1/bw/001.png","","","relaxing"
"","","","","","animation","366","3208167","0.0-366.0","1920x1080","","5660.29999999702","87.30","img/314/4.5/2/bw/001.png","","","relaxing"
"","","","","","animation","367","3211687","0.0-367.0","1920x1080","","3518.0999999940395","0","img/117/4.5/0.5/bw/001.png","","","relaxing"
"","","","","","animation","368","3215265","0.0-368.0","1920x1080","","3575.2999999970198","0.40","img/314/2.5/2/bw/001.png","","","relaxing"
"","","","","","animation","369","3221081","0.0-369.0","1920x1080","","5815.300000011921","51.19","img/117/4/2/bw/001.png","","","relaxing"
"","","","","","animation","370","3225432","0.0-370.0","1920x1080","","4349.20000000298","100","img/314/5.5/2/bw/001.png","","","relaxing"
"","","","","","animation","371","3229381","0.0-371.0","1920x1080","","3947.5999999940395","22.62","img/314/3.5/1/bw/001.png","","","relaxing"
"","","","","","animation","372","3232367","0.0-372.0","1920x1080","","2984.3999999910593","73.15","img/314/4.5/1.5/bw/001.png","","","relaxing"
"","","","","","animation","373","3236232","0.0-373.0","1920x1080","","3863.5","0","img/238/2.5/0.66667/bw/001.png","","","relaxing"
"","","","","","animation","374","3239315","0.0-374.0","1920x1080","","3081.3999999910593","0","img/314/2.5/1.5/bw/001.png","","","relaxing"
"","","","","","animation","375","3246608","0.0-375.0","1920x1080","","7291.29999999702","8.47","img/117/3.5/0.66667/bw/001.png","","","relaxing"
"","","","","","animation","376","3249304","0.0-376.0","1920x1080","","2694.3999999910593","7.28","img/314/3.5/0.5/bw/001.png","","","relaxing"
"","","","","","animation","377","3269931","0.0-377.0","1920x1080","","20625.70000000298","49","img/117/4.5/0.66667/bw/001.png","","","relaxing"
"","","","","","animation","378","3275434","0.0-378.0","1920x1080","","5501.20000000298","57.80","img/314/4/1.5/bw/001.png","","","relaxing"
"","","","","","animation","379","3286903","0.0-379.0","1920x1080","","11468.29999999702","77.38","img/117/4/1/bw/001.png","","","relaxing"
"","","","","","animation","380","3293065","0.0-380.0","1920x1080","","6159.5","100","img/314/5.5/1/bw/001.png","","","relaxing"
"","","","","","animation","381","3296470","0.0-381.0","1920x1080","","3402.800000011921","100","img/117/5.5/1.5/bw/001.png","","","relaxing"
"","","","","","animation","382","3299947","0.0-382.0","1920x1080","","3475.199999988079","99","img/238/4.5/2/bw/001.png","","","relaxing"
"","","","","","animation","383","3304531","0.0-383.0","1920x1080","","4582.20000000298","23.68","img/238/4/0.66667/bw/001.png","","","relaxing"
"","","","","","animation","384","3306967","0.0-384.0","1920x1080","","2434.9000000059605","6.88","img/117/4/0.66667/bw/001.png","","","relaxing"
"","","","","","animation","385","3309798","0.0-385.0","1920x1080","","2829.5","0.93","img/117/2.5/1.5/bw/001.png","","","relaxing"
"","","","","","animation","386","3314910","0.0-386.0","1920x1080","","5119.399999991059","62.83","img/314/3.5/1.5/bw/001.png","","","relaxing"
"","","","","","animation","387","3318222","0.0-387.0","1920x1080","","3310.5","51.72","img/117/3.5/1.5/bw/001.png","","","relaxing"
"","","","","","animation","388","3324006","0.0-388.0","1920x1080","","5782.0999999940395","76.72","img/238/5.5/0.5/bw/001.png","","","relaxing"
"","","","","","animation","389","3326626","0.0-389.0","1920x1080","","2618","6.35","img/314/4/0.5/bw/001.png","","","relaxing"
"","","","","","html-button-response","390","3344615","0.0-390.0","1920x1080","","17986.29999999702","","<strong>Study Debriefing</strong><br><p class=""debrief""><strong>Background:</strong> The patterns you rated are called <em>fractals</em>. The term fractal describes a class of irregular curves or shapes for which any suitably chosen part is similar in shape to a given larger or smaller part when magnified or reduced to the same size. Fractal properties are found throughout the natural and manmade world. The series of animations you saw today displayed animated fractal patterns of a varying complexity.</p><p class=""debrief""><strong>Purpose of this study:</strong> We hope to better understand how the perception of static fractals differs from the perception of animated fractals, and how the speed of the animated patterns influences people&apos;s perception of them. Fractals allow us to study the perception of aesthetic properties (e.g. the perceived level of beauty in an image) without using recognizable content, which makes them an excellent tool for studying abstract aesthetic judgement.</p><p class=""debrief""><strong>Your part:</strong> Your participation has helped us to further understand how humans perceive these patterns across different levels of speed and complexity. This research with allow us to better understand how the visual system and brain process our ever-changing visual environments.<p class=""debrief""><strong>Feedback and Further information:</strong> If you have additional questions about this study, please feel free to ask the researcher, Nathan Gonzales-Hess at nhess @ uoregon.edu. If you have any questions concerning your rights as a research participant, please contact Research Compliance Services, 5237 University of Oregon, Eugene, OR 97403, 541-346-2510, or email researchCompliance @ uoregon.edu. You can also email the Human Subjects Coordinator for psychology and linguistics research at hscoord @ uoregon.edu. ","0","",""
"","","","","","html-button-response","391","3347726","0.0-391.0","1920x1080","","3107.2000000029802","","Thank you for participating in this study. <br>Please click below to finish the experiment and submit your responses.<br><br>","0","",""
"true","","","","","fullscreen","392","3348751","0.0-392.0","1920x1080","13:48 25/10/2022","","","","","",""
