"success","timeout","failed_images","failed_audio","failed_video","trial_type","trial_index","time_elapsed","internal_node_id","resolution","timeStamp","rt","response","stimulus","button_pressed","value","descriptor"
"true","false","[]","[]","[]","preload","0","26891","0.0-0.0","1920x1080","","","","","","",""
"true","false","[]","[]","[]","preload","1","53745","0.0-1.0","1920x1080","","","","","","",""
"true","false","[]","[]","[]","preload","2","80792","0.0-2.0","1920x1080","","","","","","",""
"true","","","","","fullscreen","3","235256","0.0-3.0","1920x1080","9:11 17/10/2022","","","","","",""
"","","","","","survey-html-form","4","247570","0.0-4.0","1920x1080","","12311.600000023842","{""age"":""18"",""gender"":""male""}","","","",""
"","","","","","html-button-response","5","321711","0.0-5.0","1920x1080","","73927.10000002384","","<div class=""complex"">You are going to see a series of animations.<br><br></div><div class=""complex"">Move the slider to indicate how <strong style=""text-transform:capitalize"">COMPLEX</strong> you find each animation.<br><br></div><div class=""complex"">0 = Least Complex<br></div><div class=""complex"">1 = Most Complex<br><br></div><div class=""complex"">Remember to use the <strong><em>entire range</em></strong> of the slider to make your ratings.<br></div><div class=""complex"">Please <strong><em>take your time</em></strong> and carefully consider each rating you make.<br><br></div><div class=""complex"">The study has five sections and will take about 45 minutes to complete.<br><br></div>","0","",""
"","","","","","call-function","6","321711","0.0-6.0","1920x1080","","","","","","",""
"","","","","","animation","7","339214","0.0-7.0","1920x1080","","17502","50","img/238/2.5/2/bw/001.png","","","complex"
"","","","","","animation","8","348302","0.0-8.0","1920x1080","","9086.900000035763","2.25","img/314/4/0.66667/bw/001.png","","","complex"
"","","","","","animation","9","351950","0.0-9.0","1920x1080","","3647.2000000476837","60.71","img/117/2.5/1/bw/001.png","","","complex"
"","","","","","animation","10","357494","0.0-10.0","1920x1080","","5542.899999976158","11.77","img/117/4/1.5/bw/001.png","","","complex"
"","","","","","animation","11","360294","0.0-11.0","1920x1080","","2799.199999988079","15.87","img/117/4/2/bw/001.png","","","complex"
"","","","","","animation","12","365238","0.0-12.0","1920x1080","","4943.699999988079","86.11","img/238/2.5/0.5/bw/001.png","","","complex"
"","","","","","animation","13","369150","0.0-13.0","1920x1080","","3911.099999964237","96","img/314/2.5/0.66667/bw/001.png","","","complex"
"","","","","","animation","14","374932","0.0-14.0","1920x1080","","5630.600000023842","0.00","img/117/5.5/1.5/bw/001.png","","","complex"
"","","","","","animation","15","382404","0.0-15.0","1920x1080","","7471.800000011921","6.35","img/238/3.5/0.66667/bw/001.png","","","complex"
"","","","","","animation","16","389285","0.0-16.0","1920x1080","","6879.400000035763","0","img/314/5.5/1/bw/001.png","","","complex"
"","","","","","animation","17","394636","0.0-17.0","1920x1080","","5351.100000023842","0","img/314/5.5/1.5/bw/001.png","","","complex"
"","","","","","animation","18","398837","0.0-18.0","1920x1080","","4199.399999976158","4.50","img/238/4.5/0.66667/bw/001.png","","","complex"
"","","","","","animation","19","404085","0.0-19.0","1920x1080","","5247.299999952316","6.61","img/238/4.5/0.5/bw/001.png","","","complex"
"","","","","","animation","20","416420","0.0-20.0","1920x1080","","12334.900000035763","16","img/238/3.5/1.5/bw/001.png","","","complex"
"","","","","","animation","21","429348","0.0-21.0","1920x1080","","12927.300000011921","63","img/314/2.5/2/bw/001.png","","","complex"
"","","","","","animation","22","438639","0.0-22.0","1920x1080","","9127","49.87","img/238/4/0.66667/bw/001.png","","","complex"
"","","","","","animation","23","472439","0.0-23.0","1920x1080","","33799.200000047684","29","img/238/3.5/1/bw/001.png","","","complex"
"","","","","","animation","24","485559","0.0-24.0","1920x1080","","13119.599999964237","0","img/117/5.5/0.66667/bw/001.png","","","complex"
"","","","","","animation","25","493095","0.0-25.0","1920x1080","","7535","70","img/117/2.5/0.5/bw/001.png","","","complex"
"","","","","","animation","26","496049","0.0-26.0","1920x1080","","2902.800000011921","76","img/314/2.5/1.5/bw/001.png","","","complex"
"","","","","","animation","27","500153","0.0-27.0","1920x1080","","4103.699999988079","0.93","img/238/5.5/1/bw/001.png","","","complex"
"","","","","","animation","28","505497","0.0-28.0","1920x1080","","5343.5","9","img/314/4.5/0.66667/bw/001.png","","","complex"
"","","","","","animation","29","508977","0.0-29.0","1920x1080","","3478.699999988079","0","img/238/5.5/1.5/bw/001.png","","","complex"
"","","","","","animation","30","515713","0.0-30.0","1920x1080","","6735.600000023842","20.90","img/117/4/0.5/bw/001.png","","","complex"
"","","","","","animation","31","521609","0.0-31.0","1920x1080","","5894.800000011921","92","img/238/2.5/1/bw/001.png","","","complex"
"","","","","","animation","32","524745","0.0-32.0","1920x1080","","3135.5","8.07","img/314/5.5/0.66667/bw/001.png","","","complex"
"","","","","","animation","33","527497","0.0-33.0","1920x1080","","2751.100000023842","26.59","img/314/3.5/0.5/bw/001.png","","","complex"
"","","","","","animation","34","531081","0.0-34.0","1920x1080","","3583.2000000476837","25.26","img/117/4/0.66667/bw/001.png","","","complex"
"","","","","","animation","35","542419","0.0-35.0","1920x1080","","11336.699999988079","96","img/314/2.5/1/bw/001.png","","","complex"
"","","","","","animation","36","545313","0.0-36.0","1920x1080","","2893.399999976158","21.30","img/117/4.5/1.5/bw/001.png","","","complex"
"","","","","","animation","37","550681","0.0-37.0","1920x1080","","5367.100000023842","36","img/238/3.5/2/bw/001.png","","","complex"
"","","","","","animation","38","553177","0.0-38.0","1920x1080","","2495","34.52","img/314/4.5/0.5/bw/001.png","","","complex"
"","","","","","animation","39","557799","0.0-39.0","1920x1080","","4624.300000011921","97","img/117/2.5/2/bw/001.png","","","complex"
"","","","","","animation","40","566062","0.0-40.0","1920x1080","","8261.900000035763","41","img/238/4/1/bw/001.png","","","complex"
"","","","","","animation","41","612790","0.0-41.0","1920x1080","","46726.60000002384","13.10","img/314/4.5/1/bw/001.png","","","complex"
"","","","","","animation","42","617243","0.0-42.0","1920x1080","","4447.100000023842","5.95","img/238/4.5/2/bw/001.png","","","complex"
"","","","","","animation","43","621715","0.0-43.0","1920x1080","","4471.199999988079","75.13","img/117/3.5/0.5/bw/001.png","","","complex"
"","","","","","animation","44","626995","0.0-44.0","1920x1080","","5278.599999964237","78","img/238/3.5/0.5/bw/001.png","","","complex"
"","","","","","animation","45","632204","0.0-45.0","1920x1080","","5207.900000035763","14","img/117/5.5/0.5/bw/001.png","","","complex"
"","","","","","animation","46","634579","0.0-46.0","1920x1080","","2374.699999988079","32.01","img/314/4/2/bw/001.png","","","complex"
"","","","","","animation","47","638891","0.0-47.0","1920x1080","","4310.699999988079","53","img/117/3.5/0.66667/bw/001.png","","","complex"
"","","","","","animation","48","642188","0.0-48.0","1920x1080","","3296.399999976158","35.45","img/314/4.5/1.5/bw/001.png","","","complex"
"","","","","","animation","49","645139","0.0-49.0","1920x1080","","2950","44.71","img/314/4/0.5/bw/001.png","","","complex"
"","","","","","animation","50","647867","0.0-50.0","1920x1080","","2727.5","85.05","img/117/2.5/0.66667/bw/001.png","","","complex"
"","","","","","animation","51","651275","0.0-51.0","1920x1080","","3406.699999988079","28.57","img/238/4/1.5/bw/001.png","","","complex"
"","","","","","animation","52","655163","0.0-52.0","1920x1080","","3886.899999976158","56.08","img/314/3.5/0.66667/bw/001.png","","","complex"
"","","","","","animation","53","659467","0.0-53.0","1920x1080","","4303.899999976158","49","img/117/4/1/bw/001.png","","","complex"
"","","","","","animation","54","664387","0.0-54.0","1920x1080","","4915.800000011921","58","img/314/3.5/1.5/bw/001.png","","","complex"
"","","","","","animation","55","666795","0.0-55.0","1920x1080","","2407.599999964237","47.75","img/117/4.5/0.66667/bw/001.png","","","complex"
"","","","","","animation","56","670979","0.0-56.0","1920x1080","","4183.699999988079","2.78","img/117/5.5/2/bw/001.png","","","complex"
"","","","","","animation","57","676529","0.0-57.0","1920x1080","","5551.199999988079","5.69","img/314/5.5/0.5/bw/001.png","","","complex"
"","","","","","animation","58","679649","0.0-58.0","1920x1080","","3119","60.45","img/117/3.5/2/bw/001.png","","","complex"
"","","","","","animation","59","703009","0.0-59.0","1920x1080","","23355","28","img/117/3.5/1/bw/001.png","","","complex"
"","","","","","animation","60","718354","0.0-60.0","1920x1080","","15343.900000035763","31.35","img/117/4.5/0.5/bw/001.png","","","complex"
"","","","","","animation","61","722186","0.0-61.0","1920x1080","","3831.399999976158","17.86","img/117/4.5/1/bw/001.png","","","complex"
"","","","","","animation","62","727281","0.0-62.0","1920x1080","","5094","100","img/238/2.5/0.66667/bw/001.png","","","complex"
"","","","","","animation","63","735067","0.0-63.0","1920x1080","","7783","54.50","img/238/4/0.5/bw/001.png","","","complex"
"","","","","","animation","64","742411","0.0-64.0","1920x1080","","7342.5","80","img/314/2.5/0.5/bw/001.png","","","complex"
"","","","","","animation","65","748227","0.0-65.0","1920x1080","","5815","35.98","img/238/4.5/1.5/bw/001.png","","","complex"
"","","","","","animation","66","751011","0.0-66.0","1920x1080","","2783.400000035763","44","img/314/3.5/2/bw/001.png","","","complex"
"","","","","","animation","67","754772","0.0-67.0","1920x1080","","3759.900000035763","25.93","img/117/4.5/2/bw/001.png","","","complex"
"","","","","","animation","68","762011","0.0-68.0","1920x1080","","7237.600000023842","14.68","img/238/4.5/1/bw/001.png","","","complex"
"","","","","","animation","69","769859","0.0-69.0","1920x1080","","7846.699999988079","17.59","img/314/4/1/bw/001.png","","","complex"
"","","","","","animation","70","773179","0.0-70.0","1920x1080","","3319","21.30","img/238/4/2/bw/001.png","","","complex"
"","","","","","animation","71","775979","0.0-71.0","1920x1080","","2799","22","img/314/4/1.5/bw/001.png","","","complex"
"","","","","","animation","72","784059","0.0-72.0","1920x1080","","8078.699999988079","15","img/314/4.5/2/bw/001.png","","","complex"
"","","","","","animation","73","790755","0.0-73.0","1920x1080","","6695.199999988079","25","img/314/3.5/1/bw/001.png","","","complex"
"","","","","","animation","74","843520","0.0-74.0","1920x1080","","52766.5","50","img/314/5.5/2/bw/001.png","","","complex"
"","","","","","animation","75","853104","0.0-75.0","1920x1080","","9582.400000035763","50.26","img/117/5.5/1/bw/001.png","","","complex"
"","","","","","animation","76","857449","0.0-76.0","1920x1080","","4345.800000011921","70.63","img/117/3.5/1.5/bw/001.png","","","complex"
"","","","","","animation","77","861519","0.0-77.0","1920x1080","","4067.5","84.79","img/238/2.5/1.5/bw/001.png","","","complex"
"","","","","","animation","78","863718","0.0-78.0","1920x1080","","2199.100000023842","85","img/117/2.5/1.5/bw/001.png","","","complex"
"","","","","","animation","79","875655","0.0-79.0","1920x1080","","11935.5","6.22","img/238/5.5/0.5/bw/001.png","","","complex"
"","","","","","animation","80","924159","0.0-80.0","1920x1080","","48503.200000047684","10.98","img/238/5.5/2/bw/001.png","","","complex"
"","","","","","animation","81","935055","0.0-81.0","1920x1080","","10895.399999976158","25.79","img/238/5.5/0.66667/bw/001.png","","","complex"
"","","","","","html-button-response","82","955112","0.0-82.0","1920x1080","","20054.80000001192","","<div class=""intro"">You are about to view a new series of animations.<br><br></div><div class=""intro"">You will evaluate them based on a different descriptor.<br><br></div><div class=""intro"">Move the slider to indicate how <strong style=""text-transform:capitalize"">NATURAL</strong> you find each animation.<br><br></div><div class=""intro"">0 = Least Natural<br></div><div class=""intro"">1 = Most Natural<br><br></div><div class=""intro"">Remember to use the <strong><em>entire range</em></strong> of the slider to make your ratings.<br></div><div class=""intro"">Please <strong><em>take your time</em></strong> and carefully consider each rating you make.<br><br></div>","0","",""
"","","","","","call-function","83","955112","0.0-83.0","1920x1080","","","","","","",""
"","","","","","animation","84","1043129","0.0-84.0","1920x1080","","88030.09999996424","49.34","img/314/2.5/0.66667/bw/001.png","","","natural"
"","","","","","animation","85","1047673","0.0-85.0","1920x1080","","4543","67.46","img/238/2.5/0.5/bw/001.png","","","natural"
"","","","","","animation","86","1052913","0.0-86.0","1920x1080","","5238.5","34.66","img/117/3.5/1.5/bw/001.png","","","natural"
"","","","","","animation","87","1056489","0.0-87.0","1920x1080","","3574.699999988079","31","img/238/3.5/1.5/bw/001.png","","","natural"
"","","","","","animation","88","1060193","0.0-88.0","1920x1080","","3703","68","img/117/3.5/0.5/bw/001.png","","","natural"
"","","","","","animation","89","1062113","0.0-89.0","1920x1080","","1919","34.79","img/117/4/2/bw/001.png","","","natural"
"","","","","","animation","90","1066761","0.0-90.0","1920x1080","","4647","75.40","img/238/2.5/0.66667/bw/001.png","","","natural"
"","","","","","animation","91","1070689","0.0-91.0","1920x1080","","3927","25.26","img/238/3.5/2/bw/001.png","","","natural"
"","","","","","animation","92","1073418","0.0-92.0","1920x1080","","2727.399999976158","71","img/117/2.5/0.66667/bw/001.png","","","natural"
"","","","","","animation","93","1076985","0.0-93.0","1920x1080","","3566.199999988079","3.84","img/117/5.5/1/bw/001.png","","","natural"
"","","","","","animation","94","1100746","0.0-94.0","1920x1080","","23766.599999964237","7","img/314/2.5/1.5/bw/001.png","","","natural"
"","","","","","animation","95","1106106","0.0-95.0","1920x1080","","5359.5","30.69","img/238/4/2/bw/001.png","","","natural"
"","","","","","animation","96","1180003","0.0-96.0","1920x1080","","73904.69999998808","85","img/314/5.5/2/bw/001.png","","","natural"
"","","","","","animation","97","1182835","0.0-97.0","1920x1080","","2830.699999988079","55.42","img/238/4.5/0.5/bw/001.png","","","natural"
"","","","","","animation","98","1188685","0.0-98.0","1920x1080","","5848.900000035763","22","img/117/2.5/0.5/bw/001.png","","","natural"
"","","","","","animation","99","1191051","0.0-99.0","1920x1080","","2363.699999988079","76","img/117/5.5/0.66667/bw/001.png","","","natural"
"","","","","","animation","100","1193834","0.0-100.0","1920x1080","","2782.899999976158","57.54","img/238/4.5/2/bw/001.png","","","natural"
"","","","","","animation","101","1196073","0.0-101.0","1920x1080","","2238.199999988079","70.24","img/238/5.5/1/bw/001.png","","","natural"
"","","","","","animation","102","1198387","0.0-102.0","1920x1080","","2312.5","18","img/117/2.5/2/bw/001.png","","","natural"
"","","","","","animation","103","1205041","0.0-103.0","1920x1080","","6653.600000023842","34","img/238/3.5/0.5/bw/001.png","","","natural"
"","","","","","animation","104","1208769","0.0-104.0","1920x1080","","3726.7999999523163","34.79","img/117/4/1/bw/001.png","","","natural"
"","","","","","animation","105","1210937","0.0-105.0","1920x1080","","2166.899999976158","22.62","img/314/3.5/0.66667/bw/001.png","","","natural"
"","","","","","animation","106","1218120","0.0-106.0","1920x1080","","7183.300000011921","33.47","img/238/4.5/1/bw/001.png","","","natural"
"","","","","","animation","107","1220619","0.0-107.0","1920x1080","","2497.7000000476837","26.72","img/314/3.5/1/bw/001.png","","","natural"
"","","","","","animation","108","1224193","0.0-108.0","1920x1080","","3572.800000011921","90.21","img/238/5.5/0.5/bw/001.png","","","natural"
"","","","","","animation","109","1226688","0.0-109.0","1920x1080","","2494.5","21.69","img/314/3.5/2/bw/001.png","","","natural"
"","","","","","animation","110","1229318","0.0-110.0","1920x1080","","2628.099999964237","33","img/117/4.5/1.5/bw/001.png","","","natural"
"","","","","","animation","111","1231634","0.0-111.0","1920x1080","","2315.800000011921","18.92","img/314/4/1.5/bw/001.png","","","natural"
"","","","","","animation","112","1234101","0.0-112.0","1920x1080","","2466.100000023842","71.03","img/238/5.5/0.66667/bw/001.png","","","natural"
"","","","","","animation","113","1236793","0.0-113.0","1920x1080","","2690","0","img/117/2.5/1/bw/001.png","","","natural"
"","","","","","animation","114","1240609","0.0-114.0","1920x1080","","3815.199999988079","24.87","img/314/4.5/0.66667/bw/001.png","","","natural"
"","","","","","animation","115","1243809","0.0-115.0","1920x1080","","3198.599999964237","27.65","img/314/4/1/bw/001.png","","","natural"
"","","","","","animation","116","1245920","0.0-116.0","1920x1080","","2110.899999976158","25.13","img/314/4/0.66667/bw/001.png","","","natural"
"","","","","","animation","117","1251268","0.0-117.0","1920x1080","","5346.400000035763","24.74","img/117/3.5/0.66667/bw/001.png","","","natural"
"","","","","","animation","118","1253673","0.0-118.0","1920x1080","","2403.899999976158","13","img/117/3.5/1/bw/001.png","","","natural"
"","","","","","animation","119","1256673","0.0-119.0","1920x1080","","2999.099999964237","7.67","img/117/4.5/0.5/bw/001.png","","","natural"
"","","","","","animation","120","1260700","0.0-120.0","1920x1080","","4026.300000011921","14.81","img/117/4.5/1/bw/001.png","","","natural"
"","","","","","animation","121","1265161","0.0-121.0","1920x1080","","4459.899999976158","85.19","img/117/5.5/1.5/bw/001.png","","","natural"
"","","","","","animation","122","1267233","0.0-122.0","1920x1080","","2071.199999988079","37","img/117/4/0.5/bw/001.png","","","natural"
"","","","","","animation","123","1269609","0.0-123.0","1920x1080","","2374.599999964237","28.97","img/238/4/1.5/bw/001.png","","","natural"
"","","","","","animation","124","1275009","0.0-124.0","1920x1080","","5399","80","img/117/5.5/2/bw/001.png","","","natural"
"","","","","","animation","125","1277785","0.0-125.0","1920x1080","","2774.5","5.56","img/238/2.5/1/bw/001.png","","","natural"
"","","","","","animation","126","1280034","0.0-126.0","1920x1080","","2248.900000035763","21.56","img/238/4/0.5/bw/001.png","","","natural"
"","","","","","animation","127","1282318","0.0-127.0","1920x1080","","2282.5","4","img/117/2.5/1.5/bw/001.png","","","natural"
"","","","","","animation","128","1285284","0.0-128.0","1920x1080","","2964.899999976158","22.88","img/314/4/0.5/bw/001.png","","","natural"
"","","","","","animation","129","1288273","0.0-129.0","1920x1080","","2988.2999999523163","25.26","img/238/4/0.66667/bw/001.png","","","natural"
"","","","","","animation","130","1291025","0.0-130.0","1920x1080","","2751","3.70","img/238/2.5/2/bw/001.png","","","natural"
"","","","","","animation","131","1297069","0.0-131.0","1920x1080","","6042.5","20","img/314/4.5/0.5/bw/001.png","","","natural"
"","","","","","animation","132","1299689","0.0-132.0","1920x1080","","2619","2.91","img/238/2.5/1.5/bw/001.png","","","natural"
"","","","","","animation","133","1302745","0.0-133.0","1920x1080","","3055.199999988079","19.05","img/117/4.5/0.66667/bw/001.png","","","natural"
"","","","","","animation","134","1305577","0.0-134.0","1920x1080","","2830.600000023842","91.93","img/238/5.5/1.5/bw/001.png","","","natural"
"","","","","","animation","135","1310569","0.0-135.0","1920x1080","","4991.399999976158","48","img/238/4.5/0.66667/bw/001.png","","","natural"
"","","","","","animation","136","1313705","0.0-136.0","1920x1080","","3134.600000023842","25.79","img/314/3.5/0.5/bw/001.png","","","natural"
"","","","","","animation","137","1316117","0.0-137.0","1920x1080","","2411.100000023842","57.94","img/314/4.5/2/bw/001.png","","","natural"
"","","","","","animation","138","1319101","0.0-138.0","1920x1080","","2982.699999988079","28.04","img/238/4/1/bw/001.png","","","natural"
"","","","","","animation","139","1321884","0.0-139.0","1920x1080","","2782.600000023842","40.34","img/117/4/0.66667/bw/001.png","","","natural"
"","","","","","animation","140","1324393","0.0-140.0","1920x1080","","2507.800000011921","46.69","img/314/4.5/1.5/bw/001.png","","","natural"
"","","","","","animation","141","1327089","0.0-141.0","1920x1080","","2694.800000011921","61.11","img/314/5.5/1.5/bw/001.png","","","natural"
"","","","","","animation","142","1329301","0.0-142.0","1920x1080","","2210.899999976158","53","img/117/4.5/2/bw/001.png","","","natural"
"","","","","","animation","143","1331185","0.0-143.0","1920x1080","","1882.699999988079","57.54","img/314/4/2/bw/001.png","","","natural"
"","","","","","animation","144","1334392","0.0-144.0","1920x1080","","3207.199999988079","30","img/238/3.5/0.66667/bw/001.png","","","natural"
"","","","","","animation","145","1338472","0.0-145.0","1920x1080","","4079.100000023842","24.07","img/117/3.5/2/bw/001.png","","","natural"
"","","","","","animation","146","1340824","0.0-146.0","1920x1080","","2350.2000000476837","61.51","img/314/5.5/1/bw/001.png","","","natural"
"","","","","","animation","147","1344050","0.0-147.0","1920x1080","","3225.099999964237","99","img/314/5.5/0.5/bw/001.png","","","natural"
"","","","","","animation","148","1348856","0.0-148.0","1920x1080","","4804.900000035763","56.88","img/314/4.5/1/bw/001.png","","","natural"
"","","","","","animation","149","1350634","0.0-149.0","1920x1080","","1776.199999988079","55","img/117/5.5/0.5/bw/001.png","","","natural"
"","","","","","animation","150","1353544","0.0-150.0","1920x1080","","2909.7000000476837","93.78","img/238/5.5/2/bw/001.png","","","natural"
"","","","","","animation","151","1357544","0.0-151.0","1920x1080","","3998.800000011921","37","img/117/4/1.5/bw/001.png","","","natural"
"","","","","","animation","152","1360160","0.0-152.0","1920x1080","","2614.900000035763","29.63","img/238/3.5/1/bw/001.png","","","natural"
"","","","","","animation","153","1365352","0.0-153.0","1920x1080","","5190.699999988079","0","img/314/2.5/2/bw/001.png","","","natural"
"","","","","","animation","154","1368088","0.0-154.0","1920x1080","","2735.599999964237","98","img/314/5.5/0.66667/bw/001.png","","","natural"
"","","","","","animation","155","1378968","0.0-155.0","1920x1080","","10878.800000011921","9.13","img/314/3.5/1.5/bw/001.png","","","natural"
"","","","","","animation","156","1382944","0.0-156.0","1920x1080","","3975.199999988079","3.70","img/314/2.5/0.5/bw/001.png","","","natural"
"","","","","","animation","157","1390192","0.0-157.0","1920x1080","","7246.5","41.53","img/238/4.5/1.5/bw/001.png","","","natural"
"","","","","","animation","158","1393866","0.0-158.0","1920x1080","","3672.899999976158","3.17","img/314/2.5/1/bw/001.png","","","natural"
"","","","","","html-button-response","159","1415394","0.0-159.0","1920x1080","","21525.100000023842","","<div class=""intro"">You are about to view a new series of animations.<br><br></div><div class=""intro"">You will evaluate them based on a different descriptor.<br><br></div><div class=""intro"">Move the slider to indicate how <strong style=""text-transform:capitalize"">INTERESTING</strong> you find each animation.<br><br></div><div class=""intro"">0 = Least Interesting<br></div><div class=""intro"">1 = Most Interesting<br><br></div><div class=""intro"">Remember to use the <strong><em>entire range</em></strong> of the slider to make your ratings.<br></div><div class=""intro"">Please <strong><em>take your time</em></strong> and carefully consider each rating you make.<br><br></div>","0","",""
"","","","","","call-function","160","1415396","0.0-160.0","1920x1080","","","","","","",""
"","","","","","animation","161","1433386","0.0-161.0","1920x1080","","17988.900000035763","4.50","img/117/4/1.5/bw/001.png","","","interesting"
"","","","","","animation","162","1446235","0.0-162.0","1920x1080","","12847.900000035763","85.05","img/314/2.5/1.5/bw/001.png","","","interesting"
"","","","","","animation","163","1449386","0.0-163.0","1920x1080","","3150","16.27","img/117/4.5/2/bw/001.png","","","interesting"
"","","","","","animation","164","1452962","0.0-164.0","1920x1080","","3575.5","13.36","img/238/4/2/bw/001.png","","","interesting"
"","","","","","animation","165","1456351","0.0-165.0","1920x1080","","3390.5","64","img/238/3.5/0.66667/bw/001.png","","","interesting"
"","","","","","animation","166","1459192","0.0-166.0","1920x1080","","2839.400000035763","36.24","img/117/4/2/bw/001.png","","","interesting"
"","","","","","animation","167","1461872","0.0-167.0","1920x1080","","2678.800000011921","81.61","img/238/5.5/0.66667/bw/001.png","","","interesting"
"","","","","","animation","168","1464733","0.0-168.0","1920x1080","","2860.2999999523163","17.72","img/117/3.5/0.66667/bw/001.png","","","interesting"
"","","","","","animation","169","1468832","0.0-169.0","1920x1080","","4098.400000035763","33.33","img/117/3.5/2/bw/001.png","","","interesting"
"","","","","","animation","170","1475176","0.0-170.0","1920x1080","","6342.199999988079","77","img/117/5.5/2/bw/001.png","","","interesting"
"","","","","","animation","171","1479719","0.0-171.0","1920x1080","","4542.199999988079","21.03","img/314/4.5/1.5/bw/001.png","","","interesting"
"","","","","","animation","172","1482704","0.0-172.0","1920x1080","","2983.300000011921","86","img/314/2.5/0.5/bw/001.png","","","interesting"
"","","","","","animation","173","1484687","0.0-173.0","1920x1080","","1982.699999988079","24","img/117/4/0.66667/bw/001.png","","","interesting"
"","","","","","animation","174","1487632","0.0-174.0","1920x1080","","2944","22.49","img/314/4/1.5/bw/001.png","","","interesting"
"","","","","","animation","175","1491392","0.0-175.0","1920x1080","","3758.400000035763","68","img/314/5.5/2/bw/001.png","","","interesting"
"","","","","","animation","176","1493976","0.0-176.0","1920x1080","","2583","68.39","img/117/5.5/0.5/bw/001.png","","","interesting"
"","","","","","animation","177","1497116","0.0-177.0","1920x1080","","3138.600000023842","14.29","img/238/4/0.5/bw/001.png","","","interesting"
"","","","","","animation","178","1499346","0.0-178.0","1920x1080","","2229.600000023842","78.57","img/314/2.5/2/bw/001.png","","","interesting"
"","","","","","animation","179","1502066","0.0-179.0","1920x1080","","2716.600000023842","80.03","img/314/2.5/1/bw/001.png","","","interesting"
"","","","","","animation","180","1505349","0.0-180.0","1920x1080","","3282","49.74","img/117/3.5/1.5/bw/001.png","","","interesting"
"","","","","","animation","181","1508349","0.0-181.0","1920x1080","","2998.900000035763","75.26","img/238/5.5/0.5/bw/001.png","","","interesting"
"","","","","","animation","182","1511349","0.0-182.0","1920x1080","","2999.399999976158","79.10","img/117/2.5/1.5/bw/001.png","","","interesting"
"","","","","","animation","183","1514223","0.0-183.0","1920x1080","","2873.699999988079","36.11","img/314/3.5/2/bw/001.png","","","interesting"
"","","","","","animation","184","1516216","0.0-184.0","1920x1080","","1991.1000000238419","36","img/314/4/2/bw/001.png","","","interesting"
"","","","","","animation","185","1518384","0.0-185.0","1920x1080","","2167.300000011921","72.75","img/238/2.5/0.66667/bw/001.png","","","interesting"
"","","","","","animation","186","1521069","0.0-186.0","1920x1080","","2684.400000035763","34.66","img/238/4.5/1/bw/001.png","","","interesting"
"","","","","","animation","187","1523867","0.0-187.0","1920x1080","","2796.199999988079","41.40","img/238/3.5/0.5/bw/001.png","","","interesting"
"","","","","","animation","188","1525535","0.0-188.0","1920x1080","","1666.5","23.81","img/238/3.5/1/bw/001.png","","","interesting"
"","","","","","animation","189","1532687","0.0-189.0","1920x1080","","7151.599999964237","85.85","img/314/4.5/0.5/bw/001.png","","","interesting"
"","","","","","animation","190","1536439","0.0-190.0","1920x1080","","3751","92.46","img/238/2.5/1/bw/001.png","","","interesting"
"","","","","","animation","191","1538623","0.0-191.0","1920x1080","","2183","33.07","img/314/4.5/0.66667/bw/001.png","","","interesting"
"","","","","","animation","192","1540777","0.0-192.0","1920x1080","","2151.7999999523163","29.23","img/117/4/1/bw/001.png","","","interesting"
"","","","","","animation","193","1542839","0.0-193.0","1920x1080","","2060.2999999523163","22.22","img/238/4.5/0.66667/bw/001.png","","","interesting"
"","","","","","animation","194","1545333","0.0-194.0","1920x1080","","2492.2999999523163","91","img/238/5.5/2/bw/001.png","","","interesting"
"","","","","","animation","195","1547775","0.0-195.0","1920x1080","","2441.100000023842","25.79","img/314/3.5/1/bw/001.png","","","interesting"
"","","","","","animation","196","1550255","0.0-196.0","1920x1080","","2478.600000023842","24.07","img/238/4/1/bw/001.png","","","interesting"
"","","","","","animation","197","1552715","0.0-197.0","1920x1080","","2458.800000011921","90.61","img/238/2.5/1.5/bw/001.png","","","interesting"
"","","","","","animation","198","1555751","0.0-198.0","1920x1080","","3034.399999976158","42.20","img/314/3.5/0.5/bw/001.png","","","interesting"
"","","","","","animation","199","1558767","0.0-199.0","1920x1080","","3014.899999976158","40.61","img/314/4/1/bw/001.png","","","interesting"
"","","","","","animation","200","1561239","0.0-200.0","1920x1080","","2471.400000035763","81.08","img/314/5.5/0.66667/bw/001.png","","","interesting"
"","","","","","animation","201","1563519","0.0-201.0","1920x1080","","2278.600000023842","74.87","img/117/5.5/1.5/bw/001.png","","","interesting"
"","","","","","animation","202","1566215","0.0-202.0","1920x1080","","2695.199999988079","36.24","img/117/3.5/1/bw/001.png","","","interesting"
"","","","","","animation","203","1569249","0.0-203.0","1920x1080","","3032.400000035763","84.26","img/238/5.5/1.5/bw/001.png","","","interesting"
"","","","","","animation","204","1573866","0.0-204.0","1920x1080","","4616.699999988079","27.65","img/314/3.5/0.66667/bw/001.png","","","interesting"
"","","","","","animation","205","1577448","0.0-205.0","1920x1080","","3581.199999988079","21.56","img/238/4.5/2/bw/001.png","","","interesting"
"","","","","","animation","206","1587082","0.0-206.0","1920x1080","","9632.699999988079","24.60","img/117/4.5/0.5/bw/001.png","","","interesting"
"","","","","","animation","207","1590198","0.0-207.0","1920x1080","","3113.800000011921","88.36","img/117/2.5/0.5/bw/001.png","","","interesting"
"","","","","","animation","208","1601439","0.0-208.0","1920x1080","","11239.099999964237","19.71","img/314/4.5/1/bw/001.png","","","interesting"
"","","","","","animation","209","1605255","0.0-209.0","1920x1080","","3814.699999988079","20","img/117/4.5/0.66667/bw/001.png","","","interesting"
"","","","","","animation","210","1610287","0.0-210.0","1920x1080","","5030.699999988079","80.16","img/314/5.5/0.5/bw/001.png","","","interesting"
"","","","","","animation","211","1612732","0.0-211.0","1920x1080","","2443.399999976158","86.38","img/117/2.5/1/bw/001.png","","","interesting"
"","","","","","animation","212","1617522","0.0-212.0","1920x1080","","4788.899999976158","21.56","img/117/4/0.5/bw/001.png","","","interesting"
"","","","","","animation","213","1621215","0.0-213.0","1920x1080","","3691.199999988079","17","img/117/4.5/1/bw/001.png","","","interesting"
"","","","","","animation","214","1625265","0.0-214.0","1920x1080","","4049.399999976158","16.67","img/238/4/0.66667/bw/001.png","","","interesting"
"","","","","","animation","215","1628581","0.0-215.0","1920x1080","","3314.899999976158","94","img/314/2.5/0.66667/bw/001.png","","","interesting"
"","","","","","animation","216","1632518","0.0-216.0","1920x1080","","3936","15.21","img/238/3.5/2/bw/001.png","","","interesting"
"","","","","","animation","217","1635156","0.0-217.0","1920x1080","","2628.300000011921","85","img/314/5.5/1.5/bw/001.png","","","interesting"
"","","","","","animation","218","1638723","0.0-218.0","1920x1080","","3565.899999976158","22","img/238/3.5/1.5/bw/001.png","","","interesting"
"","","","","","animation","219","1640556","0.0-219.0","1920x1080","","1831.699999988079","85","img/238/5.5/1/bw/001.png","","","interesting"
"","","","","","animation","220","1644024","0.0-220.0","1920x1080","","3467.300000011921","29.10","img/314/4/0.5/bw/001.png","","","interesting"
"","","","","","animation","221","1648173","0.0-221.0","1920x1080","","4146.799999952316","53.44","img/314/5.5/1/bw/001.png","","","interesting"
"","","","","","animation","222","1652590","0.0-222.0","1920x1080","","4416.800000011921","28.57","img/117/3.5/0.5/bw/001.png","","","interesting"
"","","","","","animation","223","1657673","0.0-223.0","1920x1080","","5081.100000023842","65","img/117/5.5/1/bw/001.png","","","interesting"
"","","","","","animation","224","1660542","0.0-224.0","1920x1080","","2868.400000035763","36.38","img/238/4.5/1.5/bw/001.png","","","interesting"
"","","","","","animation","225","1663247","0.0-225.0","1920x1080","","2703.100000023842","28.44","img/314/4.5/2/bw/001.png","","","interesting"
"","","","","","animation","226","1668863","0.0-226.0","1920x1080","","5615.400000035763","70.77","img/238/4.5/0.5/bw/001.png","","","interesting"
"","","","","","animation","227","1673215","0.0-227.0","1920x1080","","4350.399999976158","88.62","img/238/2.5/2/bw/001.png","","","interesting"
"","","","","","animation","228","1811583","0.0-228.0","1920x1080","","138373.90000003576","21","img/238/4/1.5/bw/001.png","","","interesting"
"","","","","","animation","229","1814729","0.0-229.0","1920x1080","","3147.100000023842","90.61","img/117/2.5/0.66667/bw/001.png","","","interesting"
"","","","","","animation","230","1822563","0.0-230.0","1920x1080","","7832","87","img/117/2.5/2/bw/001.png","","","interesting"
"","","","","","animation","231","1825453","0.0-231.0","1920x1080","","2889.399999976158","28.57","img/314/3.5/1.5/bw/001.png","","","interesting"
"","","","","","animation","232","1828837","0.0-232.0","1920x1080","","3382.7000000476837","79","img/117/5.5/0.66667/bw/001.png","","","interesting"
"","","","","","animation","233","1831853","0.0-233.0","1920x1080","","3014.800000011921","32.80","img/314/4/0.66667/bw/001.png","","","interesting"
"","","","","","animation","234","1835412","0.0-234.0","1920x1080","","3557.7000000476837","83","img/238/2.5/0.5/bw/001.png","","","interesting"
"","","","","","animation","235","1837380","0.0-235.0","1920x1080","","1965.3999999761581","32.28","img/117/4.5/1.5/bw/001.png","","","interesting"
"","","","","","html-button-response","236","1866518","0.0-236.0","1920x1080","","29136.899999976158","","<div class=""intro"">You are about to view a new series of animations.<br><br></div><div class=""intro"">You will evaluate them based on a different descriptor.<br><br></div><div class=""intro"">Move the slider to indicate how <strong style=""text-transform:capitalize"">RELAXING</strong> you find each animation.<br><br></div><div class=""intro"">0 = Least Relaxing<br></div><div class=""intro"">1 = Most Relaxing<br><br></div><div class=""intro"">Remember to use the <strong><em>entire range</em></strong> of the slider to make your ratings.<br></div><div class=""intro"">Please <strong><em>take your time</em></strong> and carefully consider each rating you make.<br><br></div>","0","",""
"","","","","","call-function","237","1866521","0.0-237.0","1920x1080","","","","","","",""
"","","","","","animation","238","1871349","0.0-238.0","1920x1080","","4826.700000047684","91","img/314/5.5/1.5/bw/001.png","","","relaxing"
"","","","","","animation","239","1874832","0.0-239.0","1920x1080","","3477.800000011921","75.79","img/314/4.5/2/bw/001.png","","","relaxing"
"","","","","","animation","240","1877288","0.0-240.0","1920x1080","","2455.399999976158","65","img/117/5.5/1/bw/001.png","","","relaxing"
"","","","","","animation","241","1880288","0.0-241.0","1920x1080","","2998.699999988079","79","img/314/5.5/1/bw/001.png","","","relaxing"
"","","","","","animation","242","1883115","0.0-242.0","1920x1080","","2825.600000023842","5.56","img/117/2.5/1.5/bw/001.png","","","relaxing"
"","","","","","animation","243","1885799","0.0-243.0","1920x1080","","2682.899999976158","15","img/314/3.5/1/bw/001.png","","","relaxing"
"","","","","","animation","244","1902457","0.0-244.0","1920x1080","","16656.099999964237","19","img/314/4.5/1/bw/001.png","","","relaxing"
"","","","","","animation","245","1907149","0.0-245.0","1920x1080","","4690.399999976158","58","img/117/5.5/2/bw/001.png","","","relaxing"
"","","","","","animation","246","1909482","0.0-246.0","1920x1080","","2332.199999988079","34","img/238/3.5/1/bw/001.png","","","relaxing"
"","","","","","animation","247","1914598","0.0-247.0","1920x1080","","5115.299999952316","65","img/117/5.5/0.66667/bw/001.png","","","relaxing"
"","","","","","animation","248","1917200","0.0-248.0","1920x1080","","2599.699999988079","15","img/238/2.5/0.5/bw/001.png","","","relaxing"
"","","","","","animation","249","1937551","0.0-249.0","1920x1080","","20351","24.07","img/117/4/2/bw/001.png","","","relaxing"
"","","","","","animation","250","1939731","0.0-250.0","1920x1080","","2178.300000011921","10","img/117/2.5/0.5/bw/001.png","","","relaxing"
"","","","","","animation","251","1943847","0.0-251.0","1920x1080","","4115","9.26","img/314/2.5/1.5/bw/001.png","","","relaxing"
"","","","","","animation","252","1948598","0.0-252.0","1920x1080","","4750.300000011921","13.49","img/238/3.5/0.66667/bw/001.png","","","relaxing"
"","","","","","animation","253","1951097","0.0-253.0","1920x1080","","2496.900000035763","20.90","img/314/4/0.66667/bw/001.png","","","relaxing"
"","","","","","animation","254","1953064","0.0-254.0","1920x1080","","1965.3999999761581","8","img/117/2.5/2/bw/001.png","","","relaxing"
"","","","","","animation","255","1955497","0.0-255.0","1920x1080","","2432.100000023842","7.14","img/314/2.5/0.5/bw/001.png","","","relaxing"
"","","","","","animation","256","1958031","0.0-256.0","1920x1080","","2532.2999999523163","6.35","img/314/3.5/0.5/bw/001.png","","","relaxing"
"","","","","","animation","257","1960103","0.0-257.0","1920x1080","","2071.199999988079","4","img/117/3.5/1/bw/001.png","","","relaxing"
"","","","","","animation","258","1964364","0.0-258.0","1920x1080","","4259.5","31","img/314/4/2/bw/001.png","","","relaxing"
"","","","","","animation","259","1966814","0.0-259.0","1920x1080","","2448.600000023842","9.79","img/117/2.5/1/bw/001.png","","","relaxing"
"","","","","","animation","260","1969664","0.0-260.0","1920x1080","","2848.900000035763","1.19","img/314/2.5/1/bw/001.png","","","relaxing"
"","","","","","animation","261","1972764","0.0-261.0","1920x1080","","3098.699999988079","0","img/238/2.5/2/bw/001.png","","","relaxing"
"","","","","","animation","262","1975447","0.0-262.0","1920x1080","","2681.800000011921","31","img/238/4/1.5/bw/001.png","","","relaxing"
"","","","","","animation","263","1977567","0.0-263.0","1920x1080","","2118.699999988079","43.92","img/117/4.5/2/bw/001.png","","","relaxing"
"","","","","","animation","264","1979581","0.0-264.0","1920x1080","","2012.8999999761581","33.07","img/238/4/2/bw/001.png","","","relaxing"
"","","","","","animation","265","1981916","0.0-265.0","1920x1080","","2334.199999988079","19.18","img/238/4/0.66667/bw/001.png","","","relaxing"
"","","","","","animation","266","1984087","0.0-266.0","1920x1080","","2169.899999976158","26.98","img/314/4/1/bw/001.png","","","relaxing"
"","","","","","animation","267","1987298","0.0-267.0","1920x1080","","3209.199999988079","84.52","img/238/5.5/2/bw/001.png","","","relaxing"
"","","","","","animation","268","1989167","0.0-268.0","1920x1080","","1868","64","img/314/5.5/0.66667/bw/001.png","","","relaxing"
"","","","","","animation","269","1991983","0.0-269.0","1920x1080","","2815.100000023842","0","img/314/2.5/2/bw/001.png","","","relaxing"
"","","","","","animation","270","1998673","0.0-270.0","1920x1080","","6686.199999988079","71","img/117/5.5/0.5/bw/001.png","","","relaxing"
"","","","","","animation","271","2001885","0.0-271.0","1920x1080","","3210.699999988079","74.34","img/314/5.5/0.5/bw/001.png","","","relaxing"
"","","","","","animation","272","2005673","0.0-272.0","1920x1080","","3785.800000011921","19.58","img/117/3.5/1.5/bw/001.png","","","relaxing"
"","","","","","animation","273","2008765","0.0-273.0","1920x1080","","3091.5","17.86","img/117/4/1/bw/001.png","","","relaxing"
"","","","","","animation","274","2011337","0.0-274.0","1920x1080","","2569.399999976158","5.82","img/117/3.5/0.66667/bw/001.png","","","relaxing"
"","","","","","animation","275","2013365","0.0-275.0","1920x1080","","2027.2999999523163","7.01","img/238/3.5/0.5/bw/001.png","","","relaxing"
"","","","","","animation","276","2017089","0.0-276.0","1920x1080","","3722.400000035763","36","img/117/3.5/2/bw/001.png","","","relaxing"
"","","","","","animation","277","2020956","0.0-277.0","1920x1080","","3865.5","31.48","img/238/3.5/2/bw/001.png","","","relaxing"
"","","","","","animation","278","2029400","0.0-278.0","1920x1080","","8393.800000011921","90.21","img/314/5.5/2/bw/001.png","","","relaxing"
"","","","","","animation","279","2036133","0.0-279.0","1920x1080","","6730.5","19.44","img/238/3.5/1.5/bw/001.png","","","relaxing"
"","","","","","animation","280","2046105","0.0-280.0","1920x1080","","9970.100000023842","26.59","img/314/4.5/0.5/bw/001.png","","","relaxing"
"","","","","","animation","281","2048984","0.0-281.0","1920x1080","","2878.199999988079","2.25","img/238/2.5/1/bw/001.png","","","relaxing"
"","","","","","animation","282","2051316","0.0-282.0","1920x1080","","2329.900000035763","89.42","img/238/5.5/0.66667/bw/001.png","","","relaxing"
"","","","","","animation","283","2053682","0.0-283.0","1920x1080","","2365.300000011921","15.48","img/238/4.5/0.5/bw/001.png","","","relaxing"
"","","","","","animation","284","2057952","0.0-284.0","1920x1080","","4265.600000023842","12.96","img/314/4.5/0.66667/bw/001.png","","","relaxing"
"","","","","","animation","285","2060435","0.0-285.0","1920x1080","","2481.7000000476837","31.88","img/238/4.5/2/bw/001.png","","","relaxing"
"","","","","","animation","286","2063203","0.0-286.0","1920x1080","","2766.600000023842","35.98","img/238/4/1/bw/001.png","","","relaxing"
"","","","","","animation","287","2073852","0.0-287.0","1920x1080","","10647.599999964237","17","img/238/4.5/1/bw/001.png","","","relaxing"
"","","","","","animation","288","2078987","0.0-288.0","1920x1080","","5134.5","15.08","img/314/4/1.5/bw/001.png","","","relaxing"
"","","","","","animation","289","2083508","0.0-289.0","1920x1080","","4519","3.84","img/238/2.5/0.66667/bw/001.png","","","relaxing"
"","","","","","animation","290","2088356","0.0-290.0","1920x1080","","4846.300000011921","2.51","img/238/2.5/1.5/bw/001.png","","","relaxing"
"","","","","","animation","291","2091878","0.0-291.0","1920x1080","","3521.199999988079","7.67","img/314/3.5/1.5/bw/001.png","","","relaxing"
"","","","","","animation","292","2105619","0.0-292.0","1920x1080","","13737.100000023842","8.33","img/117/4.5/0.66667/bw/001.png","","","relaxing"
"","","","","","animation","293","2108435","0.0-293.0","1920x1080","","2766.100000023842","9.79","img/314/4.5/1.5/bw/001.png","","","relaxing"
"","","","","","animation","294","2111292","0.0-294.0","1920x1080","","2855.100000023842","6.88","img/117/4/0.66667/bw/001.png","","","relaxing"
"","","","","","animation","295","2113724","0.0-295.0","1920x1080","","2430.5","82.14","img/117/5.5/1.5/bw/001.png","","","relaxing"
"","","","","","animation","296","2116292","0.0-296.0","1920x1080","","2566.800000011921","23.41","img/238/4.5/0.66667/bw/001.png","","","relaxing"
"","","","","","animation","297","2121324","0.0-297.0","1920x1080","","5030.5","12.57","img/314/4/0.5/bw/001.png","","","relaxing"
"","","","","","animation","298","2123535","0.0-298.0","1920x1080","","2209.699999988079","10.32","img/117/4/1.5/bw/001.png","","","relaxing"
"","","","","","animation","299","2125752","0.0-299.0","1920x1080","","2215.5","2.91","img/314/2.5/0.66667/bw/001.png","","","relaxing"
"","","","","","animation","300","2128858","0.0-300.0","1920x1080","","3105.100000023842","11","img/117/4/0.5/bw/001.png","","","relaxing"
"","","","","","animation","301","2131011","0.0-301.0","1920x1080","","2151.5","12","img/117/3.5/0.5/bw/001.png","","","relaxing"
"","","","","","animation","302","2133435","0.0-302.0","1920x1080","","2423","13.89","img/314/3.5/0.66667/bw/001.png","","","relaxing"
"","","","","","animation","303","2136465","0.0-303.0","1920x1080","","3028.600000023842","2","img/117/2.5/0.66667/bw/001.png","","","relaxing"
"","","","","","animation","304","2139252","0.0-304.0","1920x1080","","2785.300000011921","78","img/238/5.5/1/bw/001.png","","","relaxing"
"","","","","","animation","305","2141402","0.0-305.0","1920x1080","","2148.300000011921","60.58","img/238/4.5/1.5/bw/001.png","","","relaxing"
"","","","","","animation","306","2143835","0.0-306.0","1920x1080","","2432.5","30","img/117/4.5/1/bw/001.png","","","relaxing"
"","","","","","animation","307","2148268","0.0-307.0","1920x1080","","4431.800000011921","75.53","img/238/5.5/0.5/bw/001.png","","","relaxing"
"","","","","","animation","308","2152835","0.0-308.0","1920x1080","","4565.899999976158","20.77","img/117/4.5/0.5/bw/001.png","","","relaxing"
"","","","","","animation","309","2156187","0.0-309.0","1920x1080","","3350.900000035763","23","img/238/4/0.5/bw/001.png","","","relaxing"
"","","","","","animation","310","2158583","0.0-310.0","1920x1080","","2394.399999976158","72.88","img/238/5.5/1.5/bw/001.png","","","relaxing"
"","","","","","animation","311","2160571","0.0-311.0","1920x1080","","1986.300000011921","19.31","img/117/4.5/1.5/bw/001.png","","","relaxing"
"","","","","","animation","312","2162619","0.0-312.0","1920x1080","","2046.800000011921","22","img/314/3.5/2/bw/001.png","","","relaxing"
"","","","","","html-button-response","313","2203136","0.0-313.0","1920x1080","","40502.69999998808","","<div class=""intro"">You are about to view a new series of animations.<br><br></div><div class=""intro"">You will evaluate them based on a different descriptor.<br><br></div><div class=""intro"">Move the slider to indicate how <strong style=""text-transform:capitalize"">APPEALING</strong> you find each animation.<br><br></div><div class=""intro"">0 = Least Appealing<br></div><div class=""intro"">1 = Most Appealing<br><br></div><div class=""intro"">Remember to use the <strong><em>entire range</em></strong> of the slider to make your ratings.<br></div><div class=""intro"">Please <strong><em>take your time</em></strong> and carefully consider each rating you make.<br><br></div>","0","",""
"","","","","","call-function","314","2203139","0.0-314.0","1920x1080","","","","","","",""
"","","","","","animation","315","2214584","0.0-315.0","1920x1080","","11443","96","img/238/2.5/1.5/bw/001.png","","","appealing"
"","","","","","animation","316","2218745","0.0-316.0","1920x1080","","4159.400000035763","94","img/314/3.5/1/bw/001.png","","","appealing"
"","","","","","animation","317","2222041","0.0-317.0","1920x1080","","3293.300000011921","18","img/117/5.5/1/bw/001.png","","","appealing"
"","","","","","animation","318","2226447","0.0-318.0","1920x1080","","4405.199999988079","86.11","img/117/3.5/0.66667/bw/001.png","","","appealing"
"","","","","","animation","319","2229080","0.0-319.0","1920x1080","","2631.699999988079","83.60","img/117/3.5/1/bw/001.png","","","appealing"
"","","","","","animation","320","2235308","0.0-320.0","1920x1080","","6225.300000011921","15","img/238/4/2/bw/001.png","","","appealing"
"","","","","","animation","321","2245797","0.0-321.0","1920x1080","","10487.800000011921","10","img/314/4/1.5/bw/001.png","","","appealing"
"","","","","","animation","322","2248697","0.0-322.0","1920x1080","","2898.300000011921","60.58","img/314/3.5/1.5/bw/001.png","","","appealing"
"","","","","","animation","323","2252200","0.0-323.0","1920x1080","","3501.199999988079","96","img/117/2.5/0.66667/bw/001.png","","","appealing"
"","","","","","animation","324","2254447","0.0-324.0","1920x1080","","2246.400000035763","17","img/314/5.5/1/bw/001.png","","","appealing"
"","","","","","animation","325","2256697","0.0-325.0","1920x1080","","2248.199999988079","24.74","img/117/4.5/1.5/bw/001.png","","","appealing"
"","","","","","animation","326","2260281","0.0-326.0","1920x1080","","3582.399999976158","51","img/314/3.5/2/bw/001.png","","","appealing"
"","","","","","animation","327","2262262","0.0-327.0","1920x1080","","1979.699999988079","92.86","img/117/2.5/2/bw/001.png","","","appealing"
"","","","","","animation","328","2267168","0.0-328.0","1920x1080","","4902.400000035763","70.24","img/238/4/1/bw/001.png","","","appealing"
"","","","","","animation","329","2270140","0.0-329.0","1920x1080","","2970.100000023842","77.65","img/238/3.5/1/bw/001.png","","","appealing"
"","","","","","animation","330","2274334","0.0-330.0","1920x1080","","4192.699999988079","32","img/238/4.5/1/bw/001.png","","","appealing"
"","","","","","animation","331","2276230","0.0-331.0","1920x1080","","1895","51.59","img/238/4/0.5/bw/001.png","","","appealing"
"","","","","","animation","332","2281344","0.0-332.0","1920x1080","","5112.400000035763","58","img/117/3.5/1.5/bw/001.png","","","appealing"
"","","","","","animation","333","2284264","0.0-333.0","1920x1080","","2918.5","90","img/238/3.5/0.5/bw/001.png","","","appealing"
"","","","","","animation","334","2286397","0.0-334.0","1920x1080","","2131.699999988079","91.40","img/238/2.5/2/bw/001.png","","","appealing"
"","","","","","animation","335","2289400","0.0-335.0","1920x1080","","3001.699999988079","57.14","img/314/4/1/bw/001.png","","","appealing"
"","","","","","animation","336","2291936","0.0-336.0","1920x1080","","2535","34.13","img/314/5.5/2/bw/001.png","","","appealing"
"","","","","","animation","337","2294581","0.0-337.0","1920x1080","","2652.199999988079","55.56","img/117/5.5/0.5/bw/001.png","","","appealing"
"","","","","","animation","338","2298597","0.0-338.0","1920x1080","","4015.099999964237","89","img/314/2.5/0.5/bw/001.png","","","appealing"
"","","","","","animation","339","2301455","0.0-339.0","1920x1080","","2854.600000023842","37.57","img/314/4.5/0.66667/bw/001.png","","","appealing"
"","","","","","animation","340","2304439","0.0-340.0","1920x1080","","2982.5","29.23","img/238/4.5/2/bw/001.png","","","appealing"
"","","","","","animation","341","2306904","0.0-341.0","1920x1080","","2464","14.42","img/238/5.5/0.66667/bw/001.png","","","appealing"
"","","","","","animation","342","2312089","0.0-342.0","1920x1080","","5183.600000023842","57","img/238/3.5/1.5/bw/001.png","","","appealing"
"","","","","","animation","343","2314775","0.0-343.0","1920x1080","","2684.800000011921","85","img/238/2.5/0.5/bw/001.png","","","appealing"
"","","","","","animation","344","2317191","0.0-344.0","1920x1080","","2414.699999988079","38","img/314/4.5/1.5/bw/001.png","","","appealing"
"","","","","","animation","345","2319428","0.0-345.0","1920x1080","","2236.600000023842","85.98","img/314/2.5/2/bw/001.png","","","appealing"
"","","","","","animation","346","2321915","0.0-346.0","1920x1080","","2485.199999988079","17.72","img/117/4.5/1/bw/001.png","","","appealing"
"","","","","","animation","347","2323731","0.0-347.0","1920x1080","","1814.5","39.42","img/238/4/1.5/bw/001.png","","","appealing"
"","","","","","animation","348","2325855","0.0-348.0","1920x1080","","2122.5","26.59","img/117/5.5/2/bw/001.png","","","appealing"
"","","","","","animation","349","2328705","0.0-349.0","1920x1080","","2848.199999988079","72.22","img/117/4/0.5/bw/001.png","","","appealing"
"","","","","","animation","350","2331039","0.0-350.0","1920x1080","","2332.899999976158","78.57","img/238/2.5/0.66667/bw/001.png","","","appealing"
"","","","","","animation","351","2333455","0.0-351.0","1920x1080","","2414.900000035763","57.01","img/314/4/0.66667/bw/001.png","","","appealing"
"","","","","","animation","352","2336614","0.0-352.0","1920x1080","","3157.900000035763","15","img/238/5.5/2/bw/001.png","","","appealing"
"","","","","","animation","353","2338839","0.0-353.0","1920x1080","","2223.099999964237","33","img/117/3.5/2/bw/001.png","","","appealing"
"","","","","","animation","354","2341554","0.0-354.0","1920x1080","","2714.5","26","img/238/4.5/0.66667/bw/001.png","","","appealing"
"","","","","","animation","355","2343739","0.0-355.0","1920x1080","","2183.800000011921","23","img/117/5.5/1.5/bw/001.png","","","appealing"
"","","","","","animation","356","2346307","0.0-356.0","1920x1080","","2566.699999988079","15","img/314/5.5/0.66667/bw/001.png","","","appealing"
"","","","","","animation","357","2348671","0.0-357.0","1920x1080","","2359.5","39","img/117/4.5/0.5/bw/001.png","","","appealing"
"","","","","","animation","358","2360081","0.0-358.0","1920x1080","","11398.699999988079","32.80","img/314/4.5/2/bw/001.png","","","appealing"
"","","","","","animation","359","2362131","0.0-359.0","1920x1080","","2049.099999964237","42.06","img/238/3.5/0.66667/bw/001.png","","","appealing"
"","","","","","animation","360","2364114","0.0-360.0","1920x1080","","1981.800000011921","30","img/314/4.5/0.5/bw/001.png","","","appealing"
"","","","","","animation","361","2367248","0.0-361.0","1920x1080","","3132.199999988079","72.88","img/314/4/0.5/bw/001.png","","","appealing"
"","","","","","animation","362","2369064","0.0-362.0","1920x1080","","1815.300000011921","88.89","img/117/2.5/0.5/bw/001.png","","","appealing"
"","","","","","animation","363","2371136","0.0-363.0","1920x1080","","2070.2000000476837","54.50","img/117/4.5/2/bw/001.png","","","appealing"
"","","","","","animation","364","2373425","0.0-364.0","1920x1080","","2287.599999964237","79.50","img/117/2.5/1.5/bw/001.png","","","appealing"
"","","","","","animation","365","2375464","0.0-365.0","1920x1080","","2037.7999999523163","20.24","img/314/5.5/1.5/bw/001.png","","","appealing"
"","","","","","animation","366","2377146","0.0-366.0","1920x1080","","1681.300000011921","16.93","img/117/4/1.5/bw/001.png","","","appealing"
"","","","","","animation","367","2381447","0.0-367.0","1920x1080","","4299.200000047684","85.45","img/314/2.5/0.66667/bw/001.png","","","appealing"
"","","","","","animation","368","2384318","0.0-368.0","1920x1080","","2868.899999976158","23.54","img/314/4/2/bw/001.png","","","appealing"
"","","","","","animation","369","2389616","0.0-369.0","1920x1080","","5296.399999976158","21.56","img/314/3.5/0.66667/bw/001.png","","","appealing"
"","","","","","animation","370","2394914","0.0-370.0","1920x1080","","5296.300000011921","21.16","img/238/4.5/1.5/bw/001.png","","","appealing"
"","","","","","animation","371","2416589","0.0-371.0","1920x1080","","21684.700000047684","23.28","img/314/5.5/0.5/bw/001.png","","","appealing"
"","","","","","animation","372","2419229","0.0-372.0","1920x1080","","2638.100000023842","39.81","img/117/4/1/bw/001.png","","","appealing"
"","","","","","animation","373","2421470","0.0-373.0","1920x1080","","2240.300000011921","48","img/314/4.5/1/bw/001.png","","","appealing"
"","","","","","animation","374","2423973","0.0-374.0","1920x1080","","2501.900000035763","70.63","img/238/5.5/0.5/bw/001.png","","","appealing"
"","","","","","animation","375","2427911","0.0-375.0","1920x1080","","3936.5","32.94","img/117/5.5/0.66667/bw/001.png","","","appealing"
"","","","","","animation","376","2475090","0.0-376.0","1920x1080","","47173.10000002384","14.95","img/238/4/0.66667/bw/001.png","","","appealing"
"","","","","","animation","377","2477473","0.0-377.0","1920x1080","","2381.399999976158","90","img/314/2.5/1.5/bw/001.png","","","appealing"
"","","","","","animation","378","2479373","0.0-378.0","1920x1080","","1898.3999999761581","90.08","img/314/2.5/1/bw/001.png","","","appealing"
"","","","","","animation","379","2482072","0.0-379.0","1920x1080","","2698.099999964237","8.33","img/238/3.5/2/bw/001.png","","","appealing"
"","","","","","animation","380","2488473","0.0-380.0","1920x1080","","6398.199999988079","11.64","img/117/4/0.66667/bw/001.png","","","appealing"
"","","","","","animation","381","2490740","0.0-381.0","1920x1080","","2265.5","23","img/117/3.5/0.5/bw/001.png","","","appealing"
"","","","","","animation","382","2492855","0.0-382.0","1920x1080","","2113.699999988079","13.23","img/117/4/2/bw/001.png","","","appealing"
"","","","","","animation","383","2495290","0.0-383.0","1920x1080","","2433.100000023842","96","img/238/2.5/1/bw/001.png","","","appealing"
"","","","","","animation","384","2501017","0.0-384.0","1920x1080","","5726.300000011921","9.79","img/238/5.5/1.5/bw/001.png","","","appealing"
"","","","","","animation","385","2503760","0.0-385.0","1920x1080","","2739.800000011921","92","img/117/2.5/1/bw/001.png","","","appealing"
"","","","","","animation","386","2506834","0.0-386.0","1920x1080","","3071","24.21","img/238/4.5/0.5/bw/001.png","","","appealing"
"","","","","","animation","387","2509350","0.0-387.0","1920x1080","","2513.599999964237","18","img/117/4.5/0.66667/bw/001.png","","","appealing"
"","","","","","animation","388","2515565","0.0-388.0","1920x1080","","6213.199999988079","14.42","img/238/5.5/1/bw/001.png","","","appealing"
"","","","","","animation","389","2517723","0.0-389.0","1920x1080","","2156.399999976158","83.99","img/314/3.5/0.5/bw/001.png","","","appealing"
"","","","","","html-button-response","390","2576849","0.0-390.0","1920x1080","","59116.59999996424","","<strong>Study Debriefing</strong><br><p class=""debrief""><strong>Background:</strong> The patterns you rated are called <em>fractals</em>. The term fractal describes a class of irregular curves or shapes for which any suitably chosen part is similar in shape to a given larger or smaller part when magnified or reduced to the same size. Fractal properties are found throughout the natural and manmade world. The series of animations you saw today displayed animated fractal patterns of a varying complexity.</p><p class=""debrief""><strong>Purpose of this study:</strong> We hope to better understand how the perception of static fractals differs from the perception of animated fractals, and how the speed of the animated patterns influences people&apos;s perception of them. Fractals allow us to study the perception of aesthetic properties (e.g. the perceived level of beauty in an image) without using recognizable content, which makes them an excellent tool for studying abstract aesthetic judgement.</p><p class=""debrief""><strong>Your part:</strong> Your participation has helped us to further understand how humans perceive these patterns across different levels of speed and complexity. This research with allow us to better understand how the visual system and brain process our ever-changing visual environments.<p class=""debrief""><strong>Feedback and Further information:</strong> If you have additional questions about this study, please feel free to ask the researcher, Nathan Gonzales-Hess at nhess @ uoregon.edu. If you have any questions concerning your rights as a research participant, please contact Research Compliance Services, 5237 University of Oregon, Eugene, OR 97403, 541-346-2510, or email researchCompliance @ uoregon.edu. You can also email the Human Subjects Coordinator for psychology and linguistics research at hscoord @ uoregon.edu. ","0","",""
"","","","","","html-button-response","391","2582619","0.0-391.0","1920x1080","","5765.100000023842","","Thank you for participating in this study. <br>Please click below to finish the experiment and submit your responses.<br><br>","0","",""
"true","","","","","fullscreen","392","2583636","0.0-392.0","1920x1080","9:53 17/10/2022","","","","","",""
