"success","timeout","failed_images","failed_audio","failed_video","trial_type","trial_index","time_elapsed","internal_node_id","resolution","timeStamp","rt","response","stimulus","button_pressed","value","descriptor"
"true","false","[]","[]","[]","preload","0","43868","0.0-0.0","1920x1080","","","","","","",""
"true","false","[]","[]","[]","preload","1","83153","0.0-1.0","1920x1080","","","","","","",""
"true","false","[]","[]","[]","preload","2","126768","0.0-2.0","1920x1080","","","","","","",""
"true","","","","","fullscreen","3","264116","0.0-3.0","1920x1080","9:43 21/10/2022","","","","","",""
"","","","","","survey-html-form","4","272386","0.0-4.0","1920x1080","","8268.5","{""age"":""18"",""gender"":""Female""}","","","",""
"","","","","","html-button-response","5","336304","0.0-5.0","1920x1080","","63934.29999999999","","<div class=""complex"">You are going to see a series of animations.<br><br></div><div class=""complex"">Move the slider to indicate how <strong style=""text-transform:capitalize"">COMPLEX</strong> you find each animation.<br><br></div><div class=""complex"">0 = Least Complex<br></div><div class=""complex"">1 = Most Complex<br><br></div><div class=""complex"">Remember to use the <strong><em>entire range</em></strong> of the slider to make your ratings.<br></div><div class=""complex"">Please <strong><em>take your time</em></strong> and carefully consider each rating you make.<br><br></div><div class=""complex"">The study has five sections and will take about 45 minutes to complete.<br><br></div>","0","",""
"","","","","","call-function","6","336305","0.0-6.0","1920x1080","","","","","","",""
"","","","","","animation","7","345448","0.0-7.0","1920x1080","","9141.5","79.63","img/117/4/1/bw/001.png","","","complex"
"","","","","","animation","8","350976","0.0-8.0","1920x1080","","5526.900000000023","69.31","img/117/4/2/bw/001.png","","","complex"
"","","","","","animation","9","355248","0.0-9.0","1920x1080","","4271.100000000035","24","img/238/5.5/1.5/bw/001.png","","","complex"
"","","","","","animation","10","361488","0.0-10.0","1920x1080","","6239","78.70","img/314/4/1.5/bw/001.png","","","complex"
"","","","","","animation","11","366937","0.0-11.0","1920x1080","","5447.599999999977","99","img/238/2.5/0.66667/bw/001.png","","","complex"
"","","","","","animation","12","371072","0.0-12.0","1920x1080","","4134.5","2.65","img/117/5.5/0.66667/bw/001.png","","","complex"
"","","","","","animation","13","383200","0.0-13.0","1920x1080","","12127.799999999988","4.23","img/238/5.5/2/bw/001.png","","","complex"
"","","","","","animation","14","389504","0.0-14.0","1920x1080","","6302.900000000023","27.38","img/238/4.5/1/bw/001.png","","","complex"
"","","","","","animation","15","392848","0.0-15.0","1920x1080","","3342.9000000000233","95","img/314/2.5/1/bw/001.png","","","complex"
"","","","","","animation","16","397073","0.0-16.0","1920x1080","","4255","5.95","img/238/4.5/1.5/bw/001.png","","","complex"
"","","","","","animation","17","400041","0.0-17.0","1920x1080","","2967.5","38.10","img/314/4/1/bw/001.png","","","complex"
"","","","","","animation","18","404017","0.0-18.0","1920x1080","","3975.8000000000466","50.26","img/117/4.5/0.66667/bw/001.png","","","complex"
"","","","","","animation","19","406561","0.0-19.0","1920x1080","","2543.2000000000116","9.66","img/238/5.5/1/bw/001.png","","","complex"
"","","","","","animation","20","411137","0.0-20.0","1920x1080","","4575.400000000023","15.87","img/117/5.5/1.5/bw/001.png","","","complex"
"","","","","","animation","21","415401","0.0-21.0","1920x1080","","4262.900000000023","26.46","img/314/4.5/0.5/bw/001.png","","","complex"
"","","","","","animation","22","433977","0.0-22.0","1920x1080","","18574.899999999965","93.25","img/314/2.5/2/bw/001.png","","","complex"
"","","","","","animation","23","444441","0.0-23.0","1920x1080","","10462.900000000023","94","img/238/2.5/1.5/bw/001.png","","","complex"
"","","","","","animation","24","456658","0.0-24.0","1920x1080","","12247.700000000012","8.47","img/238/3.5/0.66667/bw/001.png","","","complex"
"","","","","","animation","25","465490","0.0-25.0","1920x1080","","8831","93","img/117/2.5/0.5/bw/001.png","","","complex"
"","","","","","animation","26","470274","0.0-26.0","1920x1080","","4783.399999999965","3.97","img/117/5.5/2/bw/001.png","","","complex"
"","","","","","animation","27","493361","0.0-27.0","1920x1080","","23085.899999999965","22.35","img/238/3.5/1.5/bw/001.png","","","complex"
"","","","","","animation","28","499841","0.0-28.0","1920x1080","","6479.79999999993","7","img/117/4.5/0.5/bw/001.png","","","complex"
"","","","","","animation","29","503505","0.0-29.0","1920x1080","","3662.9000000000233","50.26","img/238/4/0.5/bw/001.png","","","complex"
"","","","","","animation","30","505801","0.0-30.0","1920x1080","","2295.3000000000466","50","img/117/4/0.5/bw/001.png","","","complex"
"","","","","","animation","31","508561","0.0-31.0","1920x1080","","2758.5999999999767","26.98","img/238/4.5/2/bw/001.png","","","complex"
"","","","","","animation","32","512681","0.0-32.0","1920x1080","","4119.199999999953","59.26","img/314/4/0.5/bw/001.png","","","complex"
"","","","","","animation","33","515770","0.0-33.0","1920x1080","","3119.4000000000233","10.45","img/117/5.5/1/bw/001.png","","","complex"
"","","","","","animation","34","519170","0.0-34.0","1920x1080","","3399.4000000000233","91.14","img/238/2.5/2/bw/001.png","","","complex"
"","","","","","animation","35","522969","0.0-35.0","1920x1080","","3799","16.67","img/314/5.5/0.5/bw/001.png","","","complex"
"","","","","","animation","36","525434","0.0-36.0","1920x1080","","2463.0999999999767","33.47","img/117/4.5/1.5/bw/001.png","","","complex"
"","","","","","animation","37","530842","0.0-37.0","1920x1080","","5407.400000000023","79","img/314/3.5/0.66667/bw/001.png","","","complex"
"","","","","","animation","38","537762","0.0-38.0","1920x1080","","6918.800000000047","63.49","img/238/3.5/0.5/bw/001.png","","","complex"
"","","","","","animation","39","541321","0.0-39.0","1920x1080","","3559","72.22","img/238/3.5/1/bw/001.png","","","complex"
"","","","","","animation","40","543737","0.0-40.0","1920x1080","","2415.0999999999767","15.21","img/314/5.5/1/bw/001.png","","","complex"
"","","","","","animation","41","546417","0.0-41.0","1920x1080","","2679.29999999993","39.68","img/238/4/0.66667/bw/001.png","","","complex"
"","","","","","animation","42","548761","0.0-42.0","1920x1080","","2343.0999999999767","95","img/117/2.5/1.5/bw/001.png","","","complex"
"","","","","","animation","43","551122","0.0-43.0","1920x1080","","2359.9000000000233","10.58","img/314/5.5/0.66667/bw/001.png","","","complex"
"","","","","","animation","44","554281","0.0-44.0","1920x1080","","3158.5999999999767","94.18","img/314/2.5/0.5/bw/001.png","","","complex"
"","","","","","animation","45","556529","0.0-45.0","1920x1080","","2247.0999999999767","28.44","img/238/4/2/bw/001.png","","","complex"
"","","","","","animation","46","559402","0.0-46.0","1920x1080","","2869.4000000000233","75.79","img/314/3.5/2/bw/001.png","","","complex"
"","","","","","animation","47","563226","0.0-47.0","1920x1080","","3823.79999999993","52.78","img/117/4.5/2/bw/001.png","","","complex"
"","","","","","animation","48","565537","0.0-48.0","1920x1080","","2310.4000000000233","32.80","img/117/4.5/1/bw/001.png","","","complex"
"","","","","","animation","49","569265","0.0-49.0","1920x1080","","3726.9000000000233","46.16","img/238/4/1.5/bw/001.png","","","complex"
"","","","","","animation","50","571561","0.0-50.0","1920x1080","","2295","88","img/238/2.5/0.5/bw/001.png","","","complex"
"","","","","","animation","51","576231","0.0-51.0","1920x1080","","4703.400000000023","68.25","img/117/5.5/0.5/bw/001.png","","","complex"
"","","","","","animation","52","579327","0.0-52.0","1920x1080","","3095.0999999999767","63.62","img/314/3.5/1/bw/001.png","","","complex"
"","","","","","animation","53","583592","0.0-53.0","1920x1080","","4264.099999999977","18.25","img/314/5.5/2/bw/001.png","","","complex"
"","","","","","animation","54","585575","0.0-54.0","1920x1080","","1981.8000000000466","89.55","img/314/2.5/0.66667/bw/001.png","","","complex"
"","","","","","animation","55","588879","0.0-55.0","1920x1080","","3303.4000000000233","49.21","img/238/4/1/bw/001.png","","","complex"
"","","","","","animation","56","592425","0.0-56.0","1920x1080","","3545.1999999999534","61.11","img/314/4/2/bw/001.png","","","complex"
"","","","","","animation","57","595258","0.0-57.0","1920x1080","","2831.20000000007","20.77","img/314/5.5/1.5/bw/001.png","","","complex"
"","","","","","animation","58","597943","0.0-58.0","1920x1080","","2684.8000000000466","47.09","img/117/4/0.66667/bw/001.png","","","complex"
"","","","","","animation","59","600784","0.0-59.0","1920x1080","","2839.8000000000466","87.70","img/117/2.5/1/bw/001.png","","","complex"
"","","","","","animation","60","603031","0.0-60.0","1920x1080","","2246.899999999907","22.35","img/238/4.5/0.66667/bw/001.png","","","complex"
"","","","","","animation","61","604936","0.0-61.0","1920x1080","","1903.4000000000233","81.48","img/117/3.5/0.5/bw/001.png","","","complex"
"","","","","","animation","62","608943","0.0-62.0","1920x1080","","4006.5","78.44","img/117/3.5/1.5/bw/001.png","","","complex"
"","","","","","animation","63","614184","0.0-63.0","1920x1080","","5239.70000000007","73.94","img/314/3.5/0.5/bw/001.png","","","complex"
"","","","","","animation","64","616544","0.0-64.0","1920x1080","","2359","32.14","img/238/4.5/0.5/bw/001.png","","","complex"
"","","","","","animation","65","619319","0.0-65.0","1920x1080","","2774.6999999999534","94.58","img/117/2.5/2/bw/001.png","","","complex"
"","","","","","animation","66","622743","0.0-66.0","1920x1080","","3423","53.04","img/117/3.5/1/bw/001.png","","","complex"
"","","","","","animation","67","625304","0.0-67.0","1920x1080","","2559.5999999999767","4.23","img/238/5.5/0.66667/bw/001.png","","","complex"
"","","","","","animation","68","628199","0.0-68.0","1920x1080","","2894.79999999993","68.65","img/238/3.5/2/bw/001.png","","","complex"
"","","","","","animation","69","631159","0.0-69.0","1920x1080","","2958.9000000000233","99","img/117/2.5/0.66667/bw/001.png","","","complex"
"","","","","","animation","70","633311","0.0-70.0","1920x1080","","2150.8000000000466","100","img/314/2.5/1.5/bw/001.png","","","complex"
"","","","","","animation","71","637785","0.0-71.0","1920x1080","","4487.399999999907","96","img/117/3.5/0.66667/bw/001.png","","","complex"
"","","","","","animation","72","640944","0.0-72.0","1920x1080","","3158.5999999999767","46.03","img/117/4/1.5/bw/001.png","","","complex"
"","","","","","animation","73","643778","0.0-73.0","1920x1080","","2832.5","63.10","img/314/4/0.66667/bw/001.png","","","complex"
"","","","","","animation","74","646673","0.0-74.0","1920x1080","","2894","5.16","img/238/5.5/0.5/bw/001.png","","","complex"
"","","","","","animation","75","649000","0.0-75.0","1920x1080","","2325.9000000000233","93.78","img/238/2.5/1/bw/001.png","","","complex"
"","","","","","animation","76","651194","0.0-76.0","1920x1080","","2192.8000000000466","36.90","img/314/4.5/2/bw/001.png","","","complex"
"","","","","","animation","77","656553","0.0-77.0","1920x1080","","5357.600000000093","37.57","img/314/4.5/0.66667/bw/001.png","","","complex"
"","","","","","animation","78","660585","0.0-78.0","1920x1080","","4030.899999999907","57.28","img/117/3.5/2/bw/001.png","","","complex"
"","","","","","animation","79","663144","0.0-79.0","1920x1080","","2559","61.51","img/314/4.5/1/bw/001.png","","","complex"
"","","","","","animation","80","665617","0.0-80.0","1920x1080","","2471.399999999907","61.11","img/314/4.5/1.5/bw/001.png","","","complex"
"","","","","","animation","81","668417","0.0-81.0","1920x1080","","2798.29999999993","76.06","img/314/3.5/1.5/bw/001.png","","","complex"
"","","","","","html-button-response","82","688305","0.0-82.0","1920x1080","","19887.29999999993","","<div class=""intro"">You are about to view a new series of animations.<br><br></div><div class=""intro"">You will evaluate them based on a different descriptor.<br><br></div><div class=""intro"">Move the slider to indicate how <strong style=""text-transform:capitalize"">INTERESTING</strong> you find each animation.<br><br></div><div class=""intro"">0 = Least Interesting<br></div><div class=""intro"">1 = Most Interesting<br><br></div><div class=""intro"">Remember to use the <strong><em>entire range</em></strong> of the slider to make your ratings.<br></div><div class=""intro"">Please <strong><em>take your time</em></strong> and carefully consider each rating you make.<br><br></div>","0","",""
"","","","","","call-function","83","688306","0.0-83.0","1920x1080","","","","","","",""
"","","","","","animation","84","693064","0.0-84.0","1920x1080","","4757.099999999977","0.40","img/238/2.5/0.5/bw/001.png","","","interesting"
"","","","","","animation","85","695823","0.0-85.0","1920x1080","","2750.8000000000466","88.76","img/314/4.5/0.5/bw/001.png","","","interesting"
"","","","","","animation","86","698736","0.0-86.0","1920x1080","","2911.1999999999534","5.03","img/117/2.5/1/bw/001.png","","","interesting"
"","","","","","animation","87","702880","0.0-87.0","1920x1080","","4143.300000000047","79.63","img/238/3.5/1.5/bw/001.png","","","interesting"
"","","","","","animation","88","706040","0.0-88.0","1920x1080","","3158.6999999999534","92.86","img/117/4.5/1.5/bw/001.png","","","interesting"
"","","","","","animation","89","709503","0.0-89.0","1920x1080","","3462.8000000000466","89.02","img/117/3.5/0.66667/bw/001.png","","","interesting"
"","","","","","animation","90","712808","0.0-90.0","1920x1080","","3303.29999999993","99","img/238/5.5/1/bw/001.png","","","interesting"
"","","","","","animation","91","716152","0.0-91.0","1920x1080","","3343.0999999999767","12.83","img/238/4/0.66667/bw/001.png","","","interesting"
"","","","","","animation","92","718480","0.0-92.0","1920x1080","","2327.0999999999767","1.19","img/238/2.5/1/bw/001.png","","","interesting"
"","","","","","animation","93","722560","0.0-93.0","1920x1080","","4078.79999999993","18.12","img/314/4.5/1.5/bw/001.png","","","interesting"
"","","","","","animation","94","725496","0.0-94.0","1920x1080","","2935.100000000093","16.14","img/238/4/1.5/bw/001.png","","","interesting"
"","","","","","animation","95","728067","0.0-95.0","1920x1080","","2570.5999999999767","20.50","img/314/4/1/bw/001.png","","","interesting"
"","","","","","animation","96","731455","0.0-96.0","1920x1080","","3386.79999999993","99","img/238/5.5/0.5/bw/001.png","","","interesting"
"","","","","","animation","97","734435","0.0-97.0","1920x1080","","2978.70000000007","97","img/238/4.5/0.66667/bw/001.png","","","interesting"
"","","","","","animation","98","737401","0.0-98.0","1920x1080","","2965.6999999999534","2.12","img/238/4.5/1.5/bw/001.png","","","interesting"
"","","","","","animation","99","741680","0.0-99.0","1920x1080","","4277.300000000047","48.41","img/117/4.5/0.5/bw/001.png","","","interesting"
"","","","","","animation","100","744872","0.0-100.0","1920x1080","","3191","46.16","img/314/4/1.5/bw/001.png","","","interesting"
"","","","","","animation","101","748592","0.0-101.0","1920x1080","","3719.0999999999767","94.18","img/117/3.5/2/bw/001.png","","","interesting"
"","","","","","animation","102","751746","0.0-102.0","1920x1080","","3153.600000000093","16.93","img/314/3.5/0.66667/bw/001.png","","","interesting"
"","","","","","animation","103","754282","0.0-103.0","1920x1080","","2539","19.18","img/238/3.5/1/bw/001.png","","","interesting"
"","","","","","animation","104","757762","0.0-104.0","1920x1080","","3478.6999999999534","4.23","img/117/2.5/0.66667/bw/001.png","","","interesting"
"","","","","","animation","105","761002","0.0-105.0","1920x1080","","3239.79999999993","3.57","img/314/3.5/1/bw/001.png","","","interesting"
"","","","","","animation","106","763746","0.0-106.0","1920x1080","","2742.5","96","img/238/4.5/1/bw/001.png","","","interesting"
"","","","","","animation","107","767050","0.0-107.0","1920x1080","","3303.4000000000233","46.30","img/314/4/2/bw/001.png","","","interesting"
"","","","","","animation","108","769931","0.0-108.0","1920x1080","","2880","7.01","img/314/4/0.66667/bw/001.png","","","interesting"
"","","","","","animation","109","773386","0.0-109.0","1920x1080","","3454.29999999993","89.42","img/117/4.5/1/bw/001.png","","","interesting"
"","","","","","animation","110","775878","0.0-110.0","1920x1080","","2490.8000000000466","98","img/117/5.5/0.66667/bw/001.png","","","interesting"
"","","","","","animation","111","779266","0.0-111.0","1920x1080","","3387.1999999999534","96","img/314/4/0.5/bw/001.png","","","interesting"
"","","","","","animation","112","783645","0.0-112.0","1920x1080","","4377.800000000047","93.78","img/314/5.5/1.5/bw/001.png","","","interesting"
"","","","","","animation","113","786229","0.0-113.0","1920x1080","","2583.600000000093","98","img/238/5.5/1.5/bw/001.png","","","interesting"
"","","","","","animation","114","789738","0.0-114.0","1920x1080","","3507.6999999999534","3.57","img/117/3.5/1.5/bw/001.png","","","interesting"
"","","","","","animation","115","792098","0.0-115.0","1920x1080","","2358.4000000000233","4.63","img/117/4/1.5/bw/001.png","","","interesting"
"","","","","","animation","116","794682","0.0-116.0","1920x1080","","2583.0999999999767","8.07","img/314/2.5/0.66667/bw/001.png","","","interesting"
"","","","","","animation","117","796754","0.0-117.0","1920x1080","","2071.0999999999767","9.79","img/117/2.5/2/bw/001.png","","","interesting"
"","","","","","animation","118","799002","0.0-118.0","1920x1080","","2246.79999999993","12.43","img/238/2.5/0.66667/bw/001.png","","","interesting"
"","","","","","animation","119","802862","0.0-119.0","1920x1080","","3857.4000000000233","99","img/117/3.5/0.5/bw/001.png","","","interesting"
"","","","","","animation","120","807845","0.0-120.0","1920x1080","","4981.900000000023","98","img/238/4.5/2/bw/001.png","","","interesting"
"","","","","","animation","121","811034","0.0-121.0","1920x1080","","3188.5999999999767","7.67","img/238/4/0.5/bw/001.png","","","interesting"
"","","","","","animation","122","814568","0.0-122.0","1920x1080","","3535.0999999999767","13.23","img/117/4/1/bw/001.png","","","interesting"
"","","","","","animation","123","817632","0.0-123.0","1920x1080","","3062.9000000000233","95","img/117/5.5/0.5/bw/001.png","","","interesting"
"","","","","","animation","124","820336","0.0-124.0","1920x1080","","2702.79999999993","97","img/314/5.5/2/bw/001.png","","","interesting"
"","","","","","animation","125","824600","0.0-125.0","1920x1080","","4262.400000000023","98","img/238/5.5/2/bw/001.png","","","interesting"
"","","","","","animation","126","827275","0.0-126.0","1920x1080","","2674.6999999999534","8.07","img/314/2.5/2/bw/001.png","","","interesting"
"","","","","","animation","127","829568","0.0-127.0","1920x1080","","2291.6999999999534","97","img/314/5.5/0.5/bw/001.png","","","interesting"
"","","","","","animation","128","833631","0.0-128.0","1920x1080","","4062.5999999999767","50.66","img/238/4/2/bw/001.png","","","interesting"
"","","","","","animation","129","836336","0.0-129.0","1920x1080","","2703.4000000000233","47.62","img/314/4.5/1/bw/001.png","","","interesting"
"","","","","","animation","130","838776","0.0-130.0","1920x1080","","2439.4000000000233","0","img/238/2.5/1.5/bw/001.png","","","interesting"
"","","","","","animation","131","842088","0.0-131.0","1920x1080","","3311.399999999907","36.51","img/117/3.5/1/bw/001.png","","","interesting"
"","","","","","animation","132","844448","0.0-132.0","1920x1080","","2357.79999999993","47.22","img/117/4/2/bw/001.png","","","interesting"
"","","","","","animation","133","846442","0.0-133.0","1920x1080","","1993.9000000000233","5.03","img/314/2.5/1/bw/001.png","","","interesting"
"","","","","","animation","134","849495","0.0-134.0","1920x1080","","3051.9000000000233","96","img/238/5.5/0.66667/bw/001.png","","","interesting"
"","","","","","animation","135","852104","0.0-135.0","1920x1080","","2607.4000000000233","99","img/117/5.5/1.5/bw/001.png","","","interesting"
"","","","","","animation","136","854492","0.0-136.0","1920x1080","","2387.4000000000233","6.08","img/238/3.5/0.5/bw/001.png","","","interesting"
"","","","","","animation","137","857259","0.0-137.0","1920x1080","","2766.0999999999767","96","img/117/5.5/2/bw/001.png","","","interesting"
"","","","","","animation","138","859895","0.0-138.0","1920x1080","","2635","3","img/117/2.5/1.5/bw/001.png","","","interesting"
"","","","","","animation","139","863095","0.0-139.0","1920x1080","","3199.20000000007","3.44","img/238/2.5/2/bw/001.png","","","interesting"
"","","","","","animation","140","865992","0.0-140.0","1920x1080","","2895.20000000007","8.99","img/314/2.5/0.5/bw/001.png","","","interesting"
"","","","","","animation","141","868792","0.0-141.0","1920x1080","","2798.79999999993","45","img/238/3.5/0.66667/bw/001.png","","","interesting"
"","","","","","animation","142","873183","0.0-142.0","1920x1080","","4390.099999999977","99","img/117/5.5/1/bw/001.png","","","interesting"
"","","","","","animation","143","876230","0.0-143.0","1920x1080","","3041.5999999999767","51.98","img/314/3.5/2/bw/001.png","","","interesting"
"","","","","","animation","144","878147","0.0-144.0","1920x1080","","1915.9000000000233","51.06","img/117/4.5/2/bw/001.png","","","interesting"
"","","","","","animation","145","879862","0.0-145.0","1920x1080","","1715.0999999999767","50.26","img/238/3.5/2/bw/001.png","","","interesting"
"","","","","","animation","146","881619","0.0-146.0","1920x1080","","1755.6999999999534","48.94","img/117/4.5/0.66667/bw/001.png","","","interesting"
"","","","","","animation","147","883899","0.0-147.0","1920x1080","","2278.5","83.99","img/314/4.5/2/bw/001.png","","","interesting"
"","","","","","animation","148","887347","0.0-148.0","1920x1080","","3446.29999999993","78.70","img/314/4.5/0.66667/bw/001.png","","","interesting"
"","","","","","animation","149","890515","0.0-149.0","1920x1080","","3167.1999999999534","48.81","img/314/3.5/0.5/bw/001.png","","","interesting"
"","","","","","animation","150","893099","0.0-150.0","1920x1080","","2582.9000000000233","49.87","img/238/4/1/bw/001.png","","","interesting"
"","","","","","animation","151","896212","0.0-151.0","1920x1080","","3112.8000000000466","2.51","img/314/2.5/1.5/bw/001.png","","","interesting"
"","","","","","animation","152","902412","0.0-152.0","1920x1080","","6198.800000000047","76.32","img/117/4/0.5/bw/001.png","","","interesting"
"","","","","","animation","153","904435","0.0-153.0","1920x1080","","2021.5","75.93","img/117/4/0.66667/bw/001.png","","","interesting"
"","","","","","animation","154","907307","0.0-154.0","1920x1080","","2871.1999999999534","5.03","img/117/2.5/0.5/bw/001.png","","","interesting"
"","","","","","animation","155","909771","0.0-155.0","1920x1080","","2462.9000000000233","88","img/314/5.5/0.66667/bw/001.png","","","interesting"
"","","","","","animation","156","912481","0.0-156.0","1920x1080","","2708.6999999999534","53.31","img/238/4.5/0.5/bw/001.png","","","interesting"
"","","","","","animation","157","915251","0.0-157.0","1920x1080","","2769","48.54","img/314/3.5/1.5/bw/001.png","","","interesting"
"","","","","","animation","158","917571","0.0-158.0","1920x1080","","2319","97","img/314/5.5/1/bw/001.png","","","interesting"
"","","","","","html-button-response","159","964817","0.0-159.0","1920x1080","","47240.09999999998","","<div class=""intro"">You are about to view a new series of animations.<br><br></div><div class=""intro"">You will evaluate them based on a different descriptor.<br><br></div><div class=""intro"">Move the slider to indicate how <strong style=""text-transform:capitalize"">APPEALING</strong> you find each animation.<br><br></div><div class=""intro"">0 = Least Appealing<br></div><div class=""intro"">1 = Most Appealing<br><br></div><div class=""intro"">Remember to use the <strong><em>entire range</em></strong> of the slider to make your ratings.<br></div><div class=""intro"">Please <strong><em>take your time</em></strong> and carefully consider each rating you make.<br><br></div>","0","",""
"","","","","","call-function","160","964820","0.0-160.0","1920x1080","","","","","","",""
"","","","","","animation","161","967916","0.0-161.0","1920x1080","","3094.600000000093","52","img/117/4/0.5/bw/001.png","","","appealing"
"","","","","","animation","162","973316","0.0-162.0","1920x1080","","5399","5.03","img/314/2.5/0.66667/bw/001.png","","","appealing"
"","","","","","animation","163","975375","0.0-163.0","1920x1080","","2058","6.08","img/314/2.5/1/bw/001.png","","","appealing"
"","","","","","animation","164","977343","0.0-164.0","1920x1080","","1966.9000000000233","49.21","img/314/3.5/2/bw/001.png","","","appealing"
"","","","","","animation","165","979871","0.0-165.0","1920x1080","","2525.4000000000233","94.18","img/117/5.5/1.5/bw/001.png","","","appealing"
"","","","","","animation","166","982087","0.0-166.0","1920x1080","","2215","99","img/117/5.5/0.66667/bw/001.png","","","appealing"
"","","","","","animation","167","985534","0.0-167.0","1920x1080","","3446.6999999999534","97","img/314/5.5/0.66667/bw/001.png","","","appealing"
"","","","","","animation","168","987975","0.0-168.0","1920x1080","","2439.4000000000233","47.22","img/314/3.5/1.5/bw/001.png","","","appealing"
"","","","","","animation","169","990399","0.0-169.0","1920x1080","","2423.4000000000233","50.13","img/117/3.5/1.5/bw/001.png","","","appealing"
"","","","","","animation","170","996412","0.0-170.0","1920x1080","","6015.599999999977","96","img/238/4.5/2/bw/001.png","","","appealing"
"","","","","","animation","171","999571","0.0-171.0","1920x1080","","3158.0999999999767","50.13","img/238/4.5/0.5/bw/001.png","","","appealing"
"","","","","","animation","172","1002245","0.0-172.0","1920x1080","","2673.4000000000233","93.78","img/117/5.5/2/bw/001.png","","","appealing"
"","","","","","animation","173","1005051","0.0-173.0","1920x1080","","2804.5","17.46","img/314/4/0.5/bw/001.png","","","appealing"
"","","","","","animation","174","1007723","0.0-174.0","1920x1080","","2671.0999999999767","99","img/238/5.5/1/bw/001.png","","","appealing"
"","","","","","animation","175","1009923","0.0-175.0","1920x1080","","2198.8000000000466","98","img/314/5.5/1.5/bw/001.png","","","appealing"
"","","","","","animation","176","1012723","0.0-176.0","1920x1080","","2799","48.41","img/117/4/0.66667/bw/001.png","","","appealing"
"","","","","","animation","177","1016028","0.0-177.0","1920x1080","","3304.5","2.78","img/238/2.5/2/bw/001.png","","","appealing"
"","","","","","animation","178","1018450","0.0-178.0","1920x1080","","2421.0999999998603","3","img/314/3.5/1/bw/001.png","","","appealing"
"","","","","","animation","179","1020497","0.0-179.0","1920x1080","","2045.0999999998603","87.57","img/117/4.5/1/bw/001.png","","","appealing"
"","","","","","animation","180","1023418","0.0-180.0","1920x1080","","2921.0999999998603","48.02","img/238/4.5/1.5/bw/001.png","","","appealing"
"","","","","","animation","181","1025939","0.0-181.0","1920x1080","","2519.1999999999534","97","img/314/5.5/1/bw/001.png","","","appealing"
"","","","","","animation","182","1027562","0.0-182.0","1920x1080","","1622.5","46.83","img/117/4.5/0.66667/bw/001.png","","","appealing"
"","","","","","animation","183","1030155","0.0-183.0","1920x1080","","2591.5","12.43","img/238/3.5/1.5/bw/001.png","","","appealing"
"","","","","","animation","184","1032250","0.0-184.0","1920x1080","","2094.9000000001397","14.95","img/238/3.5/2/bw/001.png","","","appealing"
"","","","","","animation","185","1034387","0.0-185.0","1920x1080","","2135.1999999999534","17.99","img/314/3.5/0.66667/bw/001.png","","","appealing"
"","","","","","animation","186","1037371","0.0-186.0","1920x1080","","2983","97","img/238/5.5/2/bw/001.png","","","appealing"
"","","","","","animation","187","1040018","0.0-187.0","1920x1080","","2647","48.68","img/314/4/0.66667/bw/001.png","","","appealing"
"","","","","","animation","188","1042830","0.0-188.0","1920x1080","","2810.7999999998137","50.00","img/238/4/2/bw/001.png","","","appealing"
"","","","","","animation","189","1045098","0.0-189.0","1920x1080","","2266.7000000001863","100","img/117/5.5/1/bw/001.png","","","appealing"
"","","","","","animation","190","1049279","0.0-190.0","1920x1080","","4179.400000000256","91.53","img/117/4.5/0.5/bw/001.png","","","appealing"
"","","","","","animation","191","1051786","0.0-191.0","1920x1080","","2506.5","50.93","img/238/4/0.5/bw/001.png","","","appealing"
"","","","","","animation","192","1055124","0.0-192.0","1920x1080","","3340.5999999998603","13.23","img/117/4/1.5/bw/001.png","","","appealing"
"","","","","","animation","193","1057126","0.0-193.0","1920x1080","","2001.1999999999534","1.98","img/314/2.5/0.5/bw/001.png","","","appealing"
"","","","","","animation","194","1059751","0.0-194.0","1920x1080","","2623.399999999907","98","img/238/5.5/1.5/bw/001.png","","","appealing"
"","","","","","animation","195","1062231","0.0-195.0","1920x1080","","2478.2999999998137","47.09","img/117/4/2/bw/001.png","","","appealing"
"","","","","","animation","196","1065024","0.0-196.0","1920x1080","","2792.7000000001863","5.56","img/238/2.5/0.5/bw/001.png","","","appealing"
"","","","","","animation","197","1067814","0.0-197.0","1920x1080","","2789.100000000093","50.13","img/117/3.5/0.66667/bw/001.png","","","appealing"
"","","","","","animation","198","1072983","0.0-198.0","1920x1080","","5167.300000000047","89.42","img/117/4.5/1.5/bw/001.png","","","appealing"
"","","","","","animation","199","1076462","0.0-199.0","1920x1080","","3478.7000000001863","37.70","img/117/3.5/1/bw/001.png","","","appealing"
"","","","","","animation","200","1078783","0.0-200.0","1920x1080","","2318.9000000001397","67.46","img/238/4.5/0.66667/bw/001.png","","","appealing"
"","","","","","animation","201","1082142","0.0-201.0","1920x1080","","3358.5999999998603","48.41","img/314/3.5/0.5/bw/001.png","","","appealing"
"","","","","","animation","202","1085308","0.0-202.0","1920x1080","","3164.8000000000466","92.20","img/238/5.5/0.66667/bw/001.png","","","appealing"
"","","","","","animation","203","1087991","0.0-203.0","1920x1080","","2681.8000000000466","3.70","img/238/4/1.5/bw/001.png","","","appealing"
"","","","","","animation","204","1090230","0.0-204.0","1920x1080","","2238.1999999999534","3","img/238/3.5/0.66667/bw/001.png","","","appealing"
"","","","","","animation","205","1093751","0.0-205.0","1920x1080","","3519","81.35","img/314/4.5/0.66667/bw/001.png","","","appealing"
"","","","","","animation","206","1095708","0.0-206.0","1920x1080","","1956.3000000000466","49.47","img/238/4/1/bw/001.png","","","appealing"
"","","","","","animation","207","1098951","0.0-207.0","1920x1080","","3241.399999999907","7.94","img/238/3.5/1/bw/001.png","","","appealing"
"","","","","","animation","208","1101326","0.0-208.0","1920x1080","","2374.1999999999534","97","img/314/5.5/2/bw/001.png","","","appealing"
"","","","","","animation","209","1104214","0.0-209.0","1920x1080","","2887.4000000001397","95","img/314/5.5/0.5/bw/001.png","","","appealing"
"","","","","","animation","210","1107075","0.0-210.0","1920x1080","","2857.9000000001397","6.08","img/117/2.5/2/bw/001.png","","","appealing"
"","","","","","animation","211","1109446","0.0-211.0","1920x1080","","2370","20.24","img/117/4/1/bw/001.png","","","appealing"
"","","","","","animation","212","1111225","0.0-212.0","1920x1080","","1777","20.77","img/117/4.5/2/bw/001.png","","","appealing"
"","","","","","animation","213","1113751","0.0-213.0","1920x1080","","2525.100000000093","3.57","img/117/3.5/0.5/bw/001.png","","","appealing"
"","","","","","animation","214","1116381","0.0-214.0","1920x1080","","2632.0999999998603","85.98","img/238/4.5/1/bw/001.png","","","appealing"
"","","","","","animation","215","1122922","0.0-215.0","1920x1080","","6538.699999999953","2","img/238/2.5/1/bw/001.png","","","appealing"
"","","","","","animation","216","1124788","0.0-216.0","1920x1080","","1865.6000000000931","19","img/314/4/1.5/bw/001.png","","","appealing"
"","","","","","animation","217","1127123","0.0-217.0","1920x1080","","2334","2.51","img/117/2.5/1/bw/001.png","","","appealing"
"","","","","","animation","218","1129322","0.0-218.0","1920x1080","","2197.1999999999534","61","img/314/4.5/0.5/bw/001.png","","","appealing"
"","","","","","animation","219","1131548","0.0-219.0","1920x1080","","2225","2.12","img/314/2.5/1.5/bw/001.png","","","appealing"
"","","","","","animation","220","1133455","0.0-220.0","1920x1080","","1905.6999999999534","84.52","img/314/4.5/1.5/bw/001.png","","","appealing"
"","","","","","animation","221","1136564","0.0-221.0","1920x1080","","3107.9000000001397","4","img/314/2.5/2/bw/001.png","","","appealing"
"","","","","","animation","222","1139396","0.0-222.0","1920x1080","","2830.8000000000466","48.15","img/314/4/1/bw/001.png","","","appealing"
"","","","","","animation","223","1141939","0.0-223.0","1920x1080","","2542.2999999998137","7.28","img/117/2.5/1.5/bw/001.png","","","appealing"
"","","","","","animation","224","1144506","0.0-224.0","1920x1080","","2565.399999999907","2","img/238/2.5/0.66667/bw/001.png","","","appealing"
"","","","","","animation","225","1148189","0.0-225.0","1920x1080","","3681.899999999907","3.17","img/117/2.5/0.5/bw/001.png","","","appealing"
"","","","","","animation","226","1150780","0.0-226.0","1920x1080","","2589.6999999999534","59","img/314/4.5/1/bw/001.png","","","appealing"
"","","","","","animation","227","1154989","0.0-227.0","1920x1080","","4207.800000000047","98","img/117/5.5/0.5/bw/001.png","","","appealing"
"","","","","","animation","228","1157828","0.0-228.0","1920x1080","","2837.1999999999534","60.32","img/238/3.5/0.5/bw/001.png","","","appealing"
"","","","","","animation","229","1162338","0.0-229.0","1920x1080","","4509.100000000093","73.02","img/314/4.5/2/bw/001.png","","","appealing"
"","","","","","animation","230","1165922","0.0-230.0","1920x1080","","3582.3000000000466","17.06","img/117/3.5/2/bw/001.png","","","appealing"
"","","","","","animation","231","1169605","0.0-231.0","1920x1080","","3681.8000000000466","70.77","img/314/4/2/bw/001.png","","","appealing"
"","","","","","animation","232","1172455","0.0-232.0","1920x1080","","2848.5999999998603","94.58","img/238/5.5/0.5/bw/001.png","","","appealing"
"","","","","","animation","233","1174759","0.0-233.0","1920x1080","","2307.4000000001397","12.43","img/238/4/0.66667/bw/001.png","","","appealing"
"","","","","","animation","234","1176851","0.0-234.0","1920x1080","","2090.6999999999534","3.44","img/117/2.5/0.66667/bw/001.png","","","appealing"
"","","","","","animation","235","1178733","0.0-235.0","1920x1080","","1881.3000000000466","4.76","img/238/2.5/1.5/bw/001.png","","","appealing"
"","","","","","html-button-response","236","1198451","0.0-236.0","1920x1080","","19715.59999999986","","<div class=""intro"">You are about to view a new series of animations.<br><br></div><div class=""intro"">You will evaluate them based on a different descriptor.<br><br></div><div class=""intro"">Move the slider to indicate how <strong style=""text-transform:capitalize"">NATURAL</strong> you find each animation.<br><br></div><div class=""intro"">0 = Least Natural<br></div><div class=""intro"">1 = Most Natural<br><br></div><div class=""intro"">Remember to use the <strong><em>entire range</em></strong> of the slider to make your ratings.<br></div><div class=""intro"">Please <strong><em>take your time</em></strong> and carefully consider each rating you make.<br><br></div>","0","",""
"","","","","","call-function","237","1198452","0.0-237.0","1920x1080","","","","","","",""
"","","","","","animation","238","1204517","0.0-238.0","1920x1080","","6065","96","img/314/5.5/1.5/bw/001.png","","","natural"
"","","","","","animation","239","1214286","0.0-239.0","1920x1080","","9768.300000000047","2.51","img/314/2.5/1/bw/001.png","","","natural"
"","","","","","animation","240","1216575","0.0-240.0","1920x1080","","2286.6999999999534","50","img/117/4.5/2/bw/001.png","","","natural"
"","","","","","animation","241","1218575","0.0-241.0","1920x1080","","1999.3000000000466","26","img/314/3.5/0.66667/bw/001.png","","","natural"
"","","","","","animation","242","1221533","0.0-242.0","1920x1080","","2957.1999999999534","3.44","img/238/2.5/1.5/bw/001.png","","","natural"
"","","","","","animation","243","1223750","0.0-243.0","1920x1080","","2215.6999999999534","2.25","img/314/2.5/1.5/bw/001.png","","","natural"
"","","","","","animation","244","1225623","0.0-244.0","1920x1080","","1871.4000000001397","26","img/314/4/2/bw/001.png","","","natural"
"","","","","","animation","245","1227500","0.0-245.0","1920x1080","","1876.1000000000931","49.74","img/238/4.5/0.5/bw/001.png","","","natural"
"","","","","","animation","246","1229718","0.0-246.0","1920x1080","","2217.1999999999534","65.48","img/238/4.5/2/bw/001.png","","","natural"
"","","","","","animation","247","1232071","0.0-247.0","1920x1080","","2350.899999999907","4.89","img/314/2.5/0.66667/bw/001.png","","","natural"
"","","","","","animation","248","1233805","0.0-248.0","1920x1080","","1734.8999999999069","19.05","img/314/3.5/1/bw/001.png","","","natural"
"","","","","","animation","249","1235699","0.0-249.0","1920x1080","","1893.1000000000931","21.30","img/238/4/2/bw/001.png","","","natural"
"","","","","","animation","250","1238717","0.0-250.0","1920x1080","","3016.6999999999534","8.86","img/117/3.5/0.5/bw/001.png","","","natural"
"","","","","","animation","251","1241973","0.0-251.0","1920x1080","","3255.0999999998603","62.17","img/314/4.5/0.66667/bw/001.png","","","natural"
"","","","","","animation","252","1245733","0.0-252.0","1920x1080","","3758.3000000000466","87.70","img/314/5.5/0.66667/bw/001.png","","","natural"
"","","","","","animation","253","1247749","0.0-253.0","1920x1080","","2014.5999999998603","33","img/314/3.5/1.5/bw/001.png","","","natural"
"","","","","","animation","254","1252005","0.0-254.0","1920x1080","","4255.300000000047","20.11","img/314/3.5/2/bw/001.png","","","natural"
"","","","","","animation","255","1253917","0.0-255.0","1920x1080","","1910.4000000001397","22.22","img/117/4/2/bw/001.png","","","natural"
"","","","","","animation","256","1256532","0.0-256.0","1920x1080","","2613.899999999907","10.71","img/238/4/0.5/bw/001.png","","","natural"
"","","","","","animation","257","1259269","0.0-257.0","1920x1080","","2736","13.62","img/238/3.5/1.5/bw/001.png","","","natural"
"","","","","","animation","258","1261453","0.0-258.0","1920x1080","","2182.8000000000466","18.92","img/314/3.5/0.5/bw/001.png","","","natural"
"","","","","","animation","259","1264915","0.0-259.0","1920x1080","","3461.2000000001863","2","img/238/2.5/1/bw/001.png","","","natural"
"","","","","","animation","260","1267231","0.0-260.0","1920x1080","","2314.8000000000466","54.63","img/238/4/1.5/bw/001.png","","","natural"
"","","","","","animation","261","1269853","0.0-261.0","1920x1080","","2620.3000000000466","8.47","img/117/2.5/1/bw/001.png","","","natural"
"","","","","","animation","262","1272448","0.0-262.0","1920x1080","","2594.2000000001863","91.01","img/314/5.5/2/bw/001.png","","","natural"
"","","","","","animation","263","1275465","0.0-263.0","1920x1080","","3015.6999999999534","7.28","img/117/2.5/0.5/bw/001.png","","","natural"
"","","","","","animation","264","1279398","0.0-264.0","1920x1080","","3932","93.25","img/117/5.5/1/bw/001.png","","","natural"
"","","","","","animation","265","1283782","0.0-265.0","1920x1080","","4382.199999999953","79.37","img/314/5.5/1/bw/001.png","","","natural"
"","","","","","animation","266","1285799","0.0-266.0","1920x1080","","2015.3999999999069","6.48","img/117/3.5/2/bw/001.png","","","natural"
"","","","","","animation","267","1288249","0.0-267.0","1920x1080","","2448.899999999907","93","img/314/5.5/0.5/bw/001.png","","","natural"
"","","","","","animation","268","1290133","0.0-268.0","1920x1080","","1882.9000000001397","13.76","img/117/3.5/0.66667/bw/001.png","","","natural"
"","","","","","animation","269","1292632","0.0-269.0","1920x1080","","2498.2000000001863","14","img/238/4/0.66667/bw/001.png","","","natural"
"","","","","","animation","270","1294594","0.0-270.0","1920x1080","","1964.8999999999069","26.59","img/314/4.5/1.5/bw/001.png","","","natural"
"","","","","","animation","271","1297328","0.0-271.0","1920x1080","","2732.8000000000466","36","img/117/4.5/1.5/bw/001.png","","","natural"
"","","","","","animation","272","1299892","0.0-272.0","1920x1080","","2563","35.58","img/314/4.5/1/bw/001.png","","","natural"
"","","","","","animation","273","1302017","0.0-273.0","1920x1080","","2122.9000000001397","89.55","img/238/5.5/0.66667/bw/001.png","","","natural"
"","","","","","animation","274","1304329","0.0-274.0","1920x1080","","2308.5","81.35","img/117/5.5/2/bw/001.png","","","natural"
"","","","","","animation","275","1307345","0.0-275.0","1920x1080","","3014.8000000000466","92.06","img/238/5.5/0.5/bw/001.png","","","natural"
"","","","","","animation","276","1310145","0.0-276.0","1920x1080","","2798.8000000000466","25.13","img/117/4.5/0.66667/bw/001.png","","","natural"
"","","","","","animation","277","1313417","0.0-277.0","1920x1080","","3271.2000000001863","23.68","img/117/4.5/0.5/bw/001.png","","","natural"
"","","","","","animation","278","1315678","0.0-278.0","1920x1080","","2259.7000000001863","25.53","img/314/4.5/2/bw/001.png","","","natural"
"","","","","","animation","279","1318769","0.0-279.0","1920x1080","","3089.899999999907","25.66","img/238/4.5/1.5/bw/001.png","","","natural"
"","","","","","animation","280","1320662","0.0-280.0","1920x1080","","1890.3000000000466","21.83","img/314/4/0.5/bw/001.png","","","natural"
"","","","","","animation","281","1322929","0.0-281.0","1920x1080","","2266","13.10","img/117/4/1/bw/001.png","","","natural"
"","","","","","animation","282","1325078","0.0-282.0","1920x1080","","2148.2000000001863","40.34","img/238/4.5/0.66667/bw/001.png","","","natural"
"","","","","","animation","283","1326928","0.0-283.0","1920x1080","","1848.8000000000466","2.12","img/117/2.5/1.5/bw/001.png","","","natural"
"","","","","","animation","284","1330795","0.0-284.0","1920x1080","","3865.1999999999534","52","img/117/4.5/1/bw/001.png","","","natural"
"","","","","","animation","285","1333378","0.0-285.0","1920x1080","","2582.600000000093","99","img/238/5.5/1.5/bw/001.png","","","natural"
"","","","","","animation","286","1336595","0.0-286.0","1920x1080","","3215.399999999907","18.39","img/238/3.5/2/bw/001.png","","","natural"
"","","","","","animation","287","1340033","0.0-287.0","1920x1080","","3437.100000000093","12.17","img/314/4.5/0.5/bw/001.png","","","natural"
"","","","","","animation","288","1342249","0.0-288.0","1920x1080","","2214.1999999999534","0","img/117/3.5/1.5/bw/001.png","","","natural"
"","","","","","animation","289","1344928","0.0-289.0","1920x1080","","2677.100000000093","2.25","img/314/2.5/2/bw/001.png","","","natural"
"","","","","","animation","290","1347865","0.0-290.0","1920x1080","","2936.0999999998603","93.25","img/117/5.5/1.5/bw/001.png","","","natural"
"","","","","","animation","291","1350649","0.0-291.0","1920x1080","","2782.600000000093","5.42","img/238/3.5/0.5/bw/001.png","","","natural"
"","","","","","animation","292","1353829","0.0-292.0","1920x1080","","3182.8000000000466","28.70","img/117/4/0.5/bw/001.png","","","natural"
"","","","","","animation","293","1356807","0.0-293.0","1920x1080","","2976.600000000093","47.88","img/314/4/0.66667/bw/001.png","","","natural"
"","","","","","animation","294","1358974","0.0-294.0","1920x1080","","2165.5","6.08","img/238/2.5/0.66667/bw/001.png","","","natural"
"","","","","","animation","295","1361045","0.0-295.0","1920x1080","","2069.600000000093","56.61","img/117/4/1.5/bw/001.png","","","natural"
"","","","","","animation","296","1363224","0.0-296.0","1920x1080","","2177.899999999907","97","img/117/5.5/0.66667/bw/001.png","","","natural"
"","","","","","animation","297","1365381","0.0-297.0","1920x1080","","2155.7000000001863","12.17","img/238/4.5/1/bw/001.png","","","natural"
"","","","","","animation","298","1367509","0.0-298.0","1920x1080","","2126.3000000000466","6.88","img/238/2.5/0.5/bw/001.png","","","natural"
"","","","","","animation","299","1369341","0.0-299.0","1920x1080","","1830.8000000000466","91.53","img/117/5.5/0.5/bw/001.png","","","natural"
"","","","","","animation","300","1372461","0.0-300.0","1920x1080","","3118.8000000000466","6.75","img/314/2.5/0.5/bw/001.png","","","natural"
"","","","","","animation","301","1374507","0.0-301.0","1920x1080","","2045.0999999998603","45.24","img/238/4/1/bw/001.png","","","natural"
"","","","","","animation","302","1377757","0.0-302.0","1920x1080","","3249","96","img/238/5.5/2/bw/001.png","","","natural"
"","","","","","animation","303","1380262","0.0-303.0","1920x1080","","2503.3000000000466","15.61","img/117/3.5/1/bw/001.png","","","natural"
"","","","","","animation","304","1383324","0.0-304.0","1920x1080","","3060.6999999999534","1.72","img/117/2.5/2/bw/001.png","","","natural"
"","","","","","animation","305","1386925","0.0-305.0","1920x1080","","3599.2000000001863","17.06","img/117/4/0.66667/bw/001.png","","","natural"
"","","","","","animation","306","1389461","0.0-306.0","1920x1080","","2535.3000000000466","18.25","img/314/4/1/bw/001.png","","","natural"
"","","","","","animation","307","1392829","0.0-307.0","1920x1080","","3366.6999999999534","2.12","img/117/2.5/0.66667/bw/001.png","","","natural"
"","","","","","animation","308","1396224","0.0-308.0","1920x1080","","3393.899999999907","16.93","img/314/4/1.5/bw/001.png","","","natural"
"","","","","","animation","309","1400013","0.0-309.0","1920x1080","","3787.7000000001863","96","img/238/5.5/1/bw/001.png","","","natural"
"","","","","","animation","310","1402213","0.0-310.0","1920x1080","","2198.7000000001863","20.77","img/238/3.5/1/bw/001.png","","","natural"
"","","","","","animation","311","1405107","0.0-311.0","1920x1080","","2892.600000000093","22.49","img/238/3.5/0.66667/bw/001.png","","","natural"
"","","","","","animation","312","1407509","0.0-312.0","1920x1080","","2400.2000000001863","4.10","img/238/2.5/2/bw/001.png","","","natural"
"","","","","","html-button-response","313","1433900","0.0-313.0","1920x1080","","26380.300000000047","","<div class=""intro"">You are about to view a new series of animations.<br><br></div><div class=""intro"">You will evaluate them based on a different descriptor.<br><br></div><div class=""intro"">Move the slider to indicate how <strong style=""text-transform:capitalize"">RELAXING</strong> you find each animation.<br><br></div><div class=""intro"">0 = Least Relaxing<br></div><div class=""intro"">1 = Most Relaxing<br><br></div><div class=""intro"">Remember to use the <strong><em>entire range</em></strong> of the slider to make your ratings.<br></div><div class=""intro"">Please <strong><em>take your time</em></strong> and carefully consider each rating you make.<br><br></div>","0","",""
"","","","","","call-function","314","1433903","0.0-314.0","1920x1080","","","","","","",""
"","","","","","animation","315","1436102","0.0-315.0","1920x1080","","2197.4000000001397","19.97","img/117/4.5/2/bw/001.png","","","relaxing"
"","","","","","animation","316","1438750","0.0-316.0","1920x1080","","2646.6999999999534","4.10","img/314/3.5/1.5/bw/001.png","","","relaxing"
"","","","","","animation","317","1441806","0.0-317.0","1920x1080","","3055","92.86","img/238/5.5/2/bw/001.png","","","relaxing"
"","","","","","animation","318","1443633","0.0-318.0","1920x1080","","1825.3000000000466","53.04","img/238/4/1.5/bw/001.png","","","relaxing"
"","","","","","animation","319","1446854","0.0-319.0","1920x1080","","3219.8000000000466","2.91","img/117/2.5/0.5/bw/001.png","","","relaxing"
"","","","","","animation","320","1448924","0.0-320.0","1920x1080","","2069.1999999999534","5.03","img/314/2.5/2/bw/001.png","","","relaxing"
"","","","","","animation","321","1451054","0.0-321.0","1920x1080","","2128.399999999907","22.62","img/314/4/0.66667/bw/001.png","","","relaxing"
"","","","","","animation","322","1453750","0.0-322.0","1920x1080","","2694.5","6.48","img/117/2.5/0.66667/bw/001.png","","","relaxing"
"","","","","","animation","323","1457183","0.0-323.0","1920x1080","","3432","27","img/238/4.5/0.66667/bw/001.png","","","relaxing"
"","","","","","animation","324","1459536","0.0-324.0","1920x1080","","2352.1999999999534","6.22","img/314/4/2/bw/001.png","","","relaxing"
"","","","","","animation","325","1461894","0.0-325.0","1920x1080","","2356","0.93","img/238/2.5/0.5/bw/001.png","","","relaxing"
"","","","","","animation","326","1464734","0.0-326.0","1920x1080","","2837.9000000001397","93.39","img/314/5.5/0.5/bw/001.png","","","relaxing"
"","","","","","animation","327","1467082","0.0-327.0","1920x1080","","2347.600000000093","7.80","img/314/4/0.5/bw/001.png","","","relaxing"
"","","","","","animation","328","1468993","0.0-328.0","1920x1080","","1909","13.49","img/117/3.5/1/bw/001.png","","","relaxing"
"","","","","","animation","329","1471134","0.0-329.0","1920x1080","","2138.9000000001397","14.95","img/238/3.5/1.5/bw/001.png","","","relaxing"
"","","","","","animation","330","1473304","0.0-330.0","1920x1080","","2169.5999999998603","15.48","img/117/3.5/1.5/bw/001.png","","","relaxing"
"","","","","","animation","331","1476139","0.0-331.0","1920x1080","","2844","2.51","img/238/3.5/1/bw/001.png","","","relaxing"
"","","","","","animation","332","1478990","0.0-332.0","1920x1080","","2849.600000000093","2.12","img/314/2.5/1/bw/001.png","","","relaxing"
"","","","","","animation","333","1481198","0.0-333.0","1920x1080","","2207.5","97","img/238/5.5/0.66667/bw/001.png","","","relaxing"
"","","","","","animation","334","1484722","0.0-334.0","1920x1080","","3522.3000000000466","2.25","img/238/2.5/1.5/bw/001.png","","","relaxing"
"","","","","","animation","335","1486909","0.0-335.0","1920x1080","","2185.399999999907","59.13","img/314/4.5/0.5/bw/001.png","","","relaxing"
"","","","","","animation","336","1488587","0.0-336.0","1920x1080","","1674.8000000000466","6.22","img/117/2.5/1/bw/001.png","","","relaxing"
"","","","","","animation","337","1490195","0.0-337.0","1920x1080","","1606.1000000000931","88.62","img/314/5.5/1/bw/001.png","","","relaxing"
"","","","","","animation","338","1492889","0.0-338.0","1920x1080","","2692.8000000000466","28.04","img/314/4.5/1.5/bw/001.png","","","relaxing"
"","","","","","animation","339","1495258","0.0-339.0","1920x1080","","2368.100000000093","2","img/314/3.5/0.66667/bw/001.png","","","relaxing"
"","","","","","animation","340","1497626","0.0-340.0","1920x1080","","2366.899999999907","0","img/117/4/0.66667/bw/001.png","","","relaxing"
"","","","","","animation","341","1499872","0.0-341.0","1920x1080","","2244","4.23","img/314/3.5/1/bw/001.png","","","relaxing"
"","","","","","animation","342","1501574","0.0-342.0","1920x1080","","1700.5999999998603","8.99","img/117/4/0.5/bw/001.png","","","relaxing"
"","","","","","animation","343","1504322","0.0-343.0","1920x1080","","2746.7999999998137","8.47","img/238/3.5/0.66667/bw/001.png","","","relaxing"
"","","","","","animation","344","1507244","0.0-344.0","1920x1080","","2921","46.69","img/117/4/2/bw/001.png","","","relaxing"
"","","","","","animation","345","1509382","0.0-345.0","1920x1080","","2136.1999999999534","24.21","img/238/3.5/2/bw/001.png","","","relaxing"
"","","","","","animation","346","1514155","0.0-346.0","1920x1080","","4771.600000000093","100","img/117/5.5/1/bw/001.png","","","relaxing"
"","","","","","animation","347","1517638","0.0-347.0","1920x1080","","3481.5","73.28","img/314/4.5/0.66667/bw/001.png","","","relaxing"
"","","","","","animation","348","1519472","0.0-348.0","1920x1080","","1832.5","46.56","img/238/4/2/bw/001.png","","","relaxing"
"","","","","","animation","349","1522096","0.0-349.0","1920x1080","","2622.5999999998603","15.74","img/117/4.5/0.66667/bw/001.png","","","relaxing"
"","","","","","animation","350","1524106","0.0-350.0","1920x1080","","2009","0","img/314/2.5/0.5/bw/001.png","","","relaxing"
"","","","","","animation","351","1526474","0.0-351.0","1920x1080","","2366.899999999907","14.55","img/117/3.5/0.5/bw/001.png","","","relaxing"
"","","","","","animation","352","1531162","0.0-352.0","1920x1080","","4686.800000000047","39.02","img/117/4.5/1.5/bw/001.png","","","relaxing"
"","","","","","animation","353","1533674","0.0-353.0","1920x1080","","2510.5","0.93","img/314/2.5/1.5/bw/001.png","","","relaxing"
"","","","","","animation","354","1538229","0.0-354.0","1920x1080","","4551","0.00","img/238/2.5/1/bw/001.png","","","relaxing"
"","","","","","animation","355","1540512","0.0-355.0","1920x1080","","2281.600000000093","76.06","img/238/4.5/2/bw/001.png","","","relaxing"
"","","","","","animation","356","1543323","0.0-356.0","1920x1080","","2809.3000000000466","75.66","img/314/4.5/1/bw/001.png","","","relaxing"
"","","","","","animation","357","1546558","0.0-357.0","1920x1080","","3233.100000000093","76","img/238/4.5/1.5/bw/001.png","","","relaxing"
"","","","","","animation","358","1548661","0.0-358.0","1920x1080","","2101.9000000001397","50.40","img/117/4/1/bw/001.png","","","relaxing"
"","","","","","animation","359","1553277","0.0-359.0","1920x1080","","4612","99","img/314/5.5/0.66667/bw/001.png","","","relaxing"
"","","","","","animation","360","1556597","0.0-360.0","1920x1080","","3318.3000000000466","37.04","img/117/3.5/2/bw/001.png","","","relaxing"
"","","","","","animation","361","1561191","0.0-361.0","1920x1080","","4591.90000000014","99","img/117/5.5/2/bw/001.png","","","relaxing"
"","","","","","animation","362","1568080","0.0-362.0","1920x1080","","6887.699999999953","2.51","img/117/2.5/2/bw/001.png","","","relaxing"
"","","","","","animation","363","1572093","0.0-363.0","1920x1080","","4010.8000000000466","1.59","img/238/2.5/2/bw/001.png","","","relaxing"
"","","","","","animation","364","1574579","0.0-364.0","1920x1080","","2483.899999999907","29.37","img/314/3.5/0.5/bw/001.png","","","relaxing"
"","","","","","animation","365","1577109","0.0-365.0","1920x1080","","2528.2999999998137","94.58","img/117/5.5/1.5/bw/001.png","","","relaxing"
"","","","","","animation","366","1579525","0.0-366.0","1920x1080","","2415.1999999999534","55.56","img/117/4.5/0.5/bw/001.png","","","relaxing"
"","","","","","animation","367","1581808","0.0-367.0","1920x1080","","2281.899999999907","98","img/314/5.5/1.5/bw/001.png","","","relaxing"
"","","","","","animation","368","1584398","0.0-368.0","1920x1080","","2588.3000000000466","100","img/117/5.5/0.66667/bw/001.png","","","relaxing"
"","","","","","animation","369","1587641","0.0-369.0","1920x1080","","3240.8000000000466","60.19","img/117/4/1.5/bw/001.png","","","relaxing"
"","","","","","animation","370","1590629","0.0-370.0","1920x1080","","2986.9000000001397","1.98","img/314/2.5/0.66667/bw/001.png","","","relaxing"
"","","","","","animation","371","1592493","0.0-371.0","1920x1080","","1861.4000000001397","73.02","img/238/4.5/1/bw/001.png","","","relaxing"
"","","","","","animation","372","1595350","0.0-372.0","1920x1080","","2846.6999999999534","53","img/238/4/0.66667/bw/001.png","","","relaxing"
"","","","","","animation","373","1598118","0.0-373.0","1920x1080","","2766.600000000093","46.30","img/314/3.5/2/bw/001.png","","","relaxing"
"","","","","","animation","374","1600767","0.0-374.0","1920x1080","","2648","23.94","img/238/4/1/bw/001.png","","","relaxing"
"","","","","","animation","375","1603122","0.0-375.0","1920x1080","","2353.1999999999534","22.75","img/117/3.5/0.66667/bw/001.png","","","relaxing"
"","","","","","animation","376","1605834","0.0-376.0","1920x1080","","2709.6999999999534","1.32","img/238/2.5/0.66667/bw/001.png","","","relaxing"
"","","","","","animation","377","1608422","0.0-377.0","1920x1080","","2586.899999999907","99","img/238/5.5/1/bw/001.png","","","relaxing"
"","","","","","animation","378","1611334","0.0-378.0","1920x1080","","2909.899999999907","99","img/314/5.5/2/bw/001.png","","","relaxing"
"","","","","","animation","379","1614967","0.0-379.0","1920x1080","","3631.4000000001397","41.27","img/238/3.5/0.5/bw/001.png","","","relaxing"
"","","","","","animation","380","1617817","0.0-380.0","1920x1080","","2847.5","8.73","img/117/2.5/1.5/bw/001.png","","","relaxing"
"","","","","","animation","381","1620751","0.0-381.0","1920x1080","","2932.3000000000466","97","img/117/5.5/0.5/bw/001.png","","","relaxing"
"","","","","","animation","382","1624117","0.0-382.0","1920x1080","","3364.399999999907","99","img/238/5.5/1.5/bw/001.png","","","relaxing"
"","","","","","animation","383","1626518","0.0-383.0","1920x1080","","2398.5","41.27","img/314/4.5/2/bw/001.png","","","relaxing"
"","","","","","animation","384","1628517","0.0-384.0","1920x1080","","1997.6999999999534","25.53","img/314/4/1.5/bw/001.png","","","relaxing"
"","","","","","animation","385","1631151","0.0-385.0","1920x1080","","2631.899999999907","31.08","img/117/4.5/1/bw/001.png","","","relaxing"
"","","","","","animation","386","1634584","0.0-386.0","1920x1080","","3431.600000000093","8.20","img/238/4/0.5/bw/001.png","","","relaxing"
"","","","","","animation","387","1636801","0.0-387.0","1920x1080","","2215.0999999998603","74.34","img/238/4.5/0.5/bw/001.png","","","relaxing"
"","","","","","animation","388","1639608","0.0-388.0","1920x1080","","2805.6999999999534","10.32","img/314/4/1/bw/001.png","","","relaxing"
"","","","","","animation","389","1642469","0.0-389.0","1920x1080","","2858","100","img/238/5.5/0.5/bw/001.png","","","relaxing"
"","","","","","html-button-response","390","1848369","0.0-390.0","1920x1080","","205899","","<strong>Study Debriefing</strong><br><p class=""debrief""><strong>Background:</strong> The patterns you rated are called <em>fractals</em>. The term fractal describes a class of irregular curves or shapes for which any suitably chosen part is similar in shape to a given larger or smaller part when magnified or reduced to the same size. Fractal properties are found throughout the natural and manmade world. The series of animations you saw today displayed animated fractal patterns of a varying complexity.</p><p class=""debrief""><strong>Purpose of this study:</strong> We hope to better understand how the perception of static fractals differs from the perception of animated fractals, and how the speed of the animated patterns influences people&apos;s perception of them. Fractals allow us to study the perception of aesthetic properties (e.g. the perceived level of beauty in an image) without using recognizable content, which makes them an excellent tool for studying abstract aesthetic judgement.</p><p class=""debrief""><strong>Your part:</strong> Your participation has helped us to further understand how humans perceive these patterns across different levels of speed and complexity. This research with allow us to better understand how the visual system and brain process our ever-changing visual environments.<p class=""debrief""><strong>Feedback and Further information:</strong> If you have additional questions about this study, please feel free to ask the researcher, Nathan Gonzales-Hess at nhess @ uoregon.edu. If you have any questions concerning your rights as a research participant, please contact Research Compliance Services, 5237 University of Oregon, Eugene, OR 97403, 541-346-2510, or email researchCompliance @ uoregon.edu. You can also email the Human Subjects Coordinator for psychology and linguistics research at hscoord @ uoregon.edu. ","0","",""
"","","","","","html-button-response","391","1849855","0.0-391.0","1920x1080","","1482.1999999999534","","Thank you for participating in this study. <br>Please click below to finish the experiment and submit your responses.<br><br>","0","",""
"true","","","","","fullscreen","392","1850866","0.0-392.0","1920x1080","10:11 21/10/2022","","","","","",""
