"success","timeout","failed_images","failed_audio","failed_video","trial_type","trial_index","time_elapsed","internal_node_id","resolution","timeStamp","rt","response","stimulus","button_pressed","value","descriptor"
"true","false","[]","[]","[]","preload","0","43891","0.0-0.0","1920x1080","","","","","","",""
"true","false","[]","[]","[]","preload","1","94122","0.0-1.0","1920x1080","","","","","","",""
"true","false","[]","[]","[]","preload","2","136227","0.0-2.0","1920x1080","","","","","","",""
"true","","","","","fullscreen","3","1705539","0.0-3.0","1920x1080","11:33 31/10/2022","","","","","",""
"","","","","","survey-html-form","4","1718719","0.0-4.0","1920x1080","","13177","{""age"":""18"",""gender"":""Female""}","","","",""
"","","","","","html-button-response","5","1773239","0.0-5.0","1920x1080","","54518.5","","<div class=""complex"">You are going to see a series of animations.<br><br></div><div class=""complex"">Move the slider to indicate how <strong style=""text-transform:capitalize"">COMPLEX</strong> you find each animation.<br><br></div><div class=""complex"">0 = Least Complex<br></div><div class=""complex"">1 = Most Complex<br><br></div><div class=""complex"">Remember to use the <strong><em>entire range</em></strong> of the slider to make your ratings.<br></div><div class=""complex"">Please <strong><em>take your time</em></strong> and carefully consider each rating you make.<br><br></div><div class=""complex"">The study has five sections and will take about 45 minutes to complete.<br><br></div>","0","",""
"","","","","","call-function","6","1773240","0.0-6.0","1920x1080","","","","","","",""
"","","","","","animation","7","1820288","0.0-7.0","1920x1080","","47044.80000000028","72.62","img/117/2.5/2/bw/001.png","","","complex"
"","","","","","animation","8","1827191","0.0-8.0","1920x1080","","6902.600000000093","59","img/314/3.5/1.5/bw/001.png","","","complex"
"","","","","","animation","9","1831879","0.0-9.0","1920x1080","","4686.899999999907","48.02","img/314/4.5/1.5/bw/001.png","","","complex"
"","","","","","animation","10","1838583","0.0-10.0","1920x1080","","6703.100000000093","86.38","img/117/2.5/1/bw/001.png","","","complex"
"","","","","","animation","11","1859871","0.0-11.0","1920x1080","","21287","89","img/238/2.5/1/bw/001.png","","","complex"
"","","","","","animation","12","1865783","0.0-12.0","1920x1080","","5910.9000000003725","83.99","img/238/2.5/1.5/bw/001.png","","","complex"
"","","","","","animation","13","1873583","0.0-13.0","1920x1080","","7799.200000000186","74","img/314/3.5/2/bw/001.png","","","complex"
"","","","","","animation","14","1891214","0.0-14.0","1920x1080","","17631.100000000093","91.80","img/238/2.5/0.66667/bw/001.png","","","complex"
"","","","","","animation","15","1907190","0.0-15.0","1920x1080","","15975.600000000093","50","img/314/4/0.5/bw/001.png","","","complex"
"","","","","","animation","16","1964528","0.0-16.0","1920x1080","","57336","51.46","img/238/4/1/bw/001.png","","","complex"
"","","","","","animation","17","1972224","0.0-17.0","1920x1080","","7694.200000000186","58.07","img/238/3.5/0.5/bw/001.png","","","complex"
"","","","","","animation","18","1983375","0.0-18.0","1920x1080","","11150.899999999907","91.01","img/238/2.5/2/bw/001.png","","","complex"
"","","","","","animation","19","1988575","0.0-19.0","1920x1080","","5199","24.47","img/117/5.5/1/bw/001.png","","","complex"
"","","","","","animation","20","1994615","0.0-20.0","1920x1080","","6039","59","img/117/4/1/bw/001.png","","","complex"
"","","","","","animation","21","1998815","0.0-21.0","1920x1080","","4199.100000000093","68.25","img/117/3.5/2/bw/001.png","","","complex"
"","","","","","animation","22","2010387","0.0-22.0","1920x1080","","11575.899999999907","11","img/117/5.5/1.5/bw/001.png","","","complex"
"","","","","","animation","23","2014963","0.0-23.0","1920x1080","","4574.899999999907","42.72","img/314/4/1.5/bw/001.png","","","complex"
"","","","","","animation","24","2019539","0.0-24.0","1920x1080","","4575.5","57","img/238/4/0.66667/bw/001.png","","","complex"
"","","","","","animation","25","2027124","0.0-25.0","1920x1080","","7584.399999999907","12","img/117/5.5/2/bw/001.png","","","complex"
"","","","","","animation","26","2035826","0.0-26.0","1920x1080","","8701.200000000186","47.75","img/238/4/0.5/bw/001.png","","","complex"
"","","","","","animation","27","2040210","0.0-27.0","1920x1080","","4383.100000000093","3.57","img/238/5.5/2/bw/001.png","","","complex"
"","","","","","animation","28","2046226","0.0-28.0","1920x1080","","6015.200000000186","36.64","img/314/4.5/1/bw/001.png","","","complex"
"","","","","","animation","29","2053724","0.0-29.0","1920x1080","","7496.899999999907","25","img/314/4.5/2/bw/001.png","","","complex"
"","","","","","animation","30","2064219","0.0-30.0","1920x1080","","10493.799999999814","91.80","img/314/2.5/1.5/bw/001.png","","","complex"
"","","","","","animation","31","2073368","0.0-31.0","1920x1080","","9144.899999999907","100","img/238/2.5/0.5/bw/001.png","","","complex"
"","","","","","animation","32","2080127","0.0-32.0","1920x1080","","6756.899999999907","0","img/314/5.5/2/bw/001.png","","","complex"
"","","","","","animation","33","2084838","0.0-33.0","1920x1080","","4709.9000000003725","36.90","img/117/4.5/0.66667/bw/001.png","","","complex"
"","","","","","animation","34","2088958","0.0-34.0","1920x1080","","4119.399999999907","29.76","img/238/4/2/bw/001.png","","","complex"
"","","","","","animation","35","2096511","0.0-35.0","1920x1080","","7552.09999999986","23","img/238/4.5/1.5/bw/001.png","","","complex"
"","","","","","animation","36","2105758","0.0-36.0","1920x1080","","9245.899999999441","41","img/238/4.5/0.5/bw/001.png","","","complex"
"","","","","","animation","37","2109150","0.0-37.0","1920x1080","","3391.100000000559","38","img/314/4.5/0.5/bw/001.png","","","complex"
"","","","","","animation","38","2114046","0.0-38.0","1920x1080","","4894.9000000003725","56.61","img/117/3.5/1/bw/001.png","","","complex"
"","","","","","animation","39","2116950","0.0-39.0","1920x1080","","2903.100000000559","60.45","img/117/3.5/1.5/bw/001.png","","","complex"
"","","","","","animation","40","2125198","0.0-40.0","1920x1080","","8247.100000000559","98","img/314/2.5/1/bw/001.png","","","complex"
"","","","","","animation","41","2161957","0.0-41.0","1920x1080","","36758.299999999814","53.84","img/314/3.5/1/bw/001.png","","","complex"
"","","","","","animation","42","2166943","0.0-42.0","1920x1080","","4984.5999999996275","8.20","img/117/5.5/0.66667/bw/001.png","","","complex"
"","","","","","animation","43","2172997","0.0-43.0","1920x1080","","6053","51.59","img/314/4/0.66667/bw/001.png","","","complex"
"","","","","","animation","44","2179469","0.0-44.0","1920x1080","","6471.299999999814","0.53","img/314/5.5/1.5/bw/001.png","","","complex"
"","","","","","animation","45","2186405","0.0-45.0","1920x1080","","6935.200000000186","2","img/314/5.5/0.5/bw/001.png","","","complex"
"","","","","","animation","46","2199305","0.0-46.0","1920x1080","","12903.5","35","img/314/4/2/bw/001.png","","","complex"
"","","","","","animation","47","2205138","0.0-47.0","1920x1080","","5832.9000000003725","86","img/117/2.5/1.5/bw/001.png","","","complex"
"","","","","","animation","48","2210784","0.0-48.0","1920x1080","","5645","50.00","img/117/4.5/2/bw/001.png","","","complex"
"","","","","","animation","49","2218544","0.0-49.0","1920x1080","","7759","100","img/117/2.5/0.5/bw/001.png","","","complex"
"","","","","","animation","50","2225592","0.0-50.0","1920x1080","","7046.5","64.55","img/238/3.5/1/bw/001.png","","","complex"
"","","","","","animation","51","2229296","0.0-51.0","1920x1080","","3703.100000000559","51.72","img/117/4.5/1/bw/001.png","","","complex"
"","","","","","animation","52","2234368","0.0-52.0","1920x1080","","5071.5","17.06","img/238/5.5/0.66667/bw/001.png","","","complex"
"","","","","","animation","53","2246800","0.0-53.0","1920x1080","","12430.199999999255","67","img/238/3.5/0.66667/bw/001.png","","","complex"
"","","","","","animation","54","2253145","0.0-54.0","1920x1080","","6337.4000000003725","7","img/238/5.5/1/bw/001.png","","","complex"
"","","","","","animation","55","2273903","0.0-55.0","1920x1080","","20756.60000000056","63.49","img/117/3.5/0.5/bw/001.png","","","complex"
"","","","","","animation","56","2284631","0.0-56.0","1920x1080","","10726.099999999627","22","img/238/4.5/1/bw/001.png","","","complex"
"","","","","","animation","57","2290562","0.0-57.0","1920x1080","","5930","18.12","img/314/4.5/0.66667/bw/001.png","","","complex"
"","","","","","animation","58","2296280","0.0-58.0","1920x1080","","5717","27.51","img/238/4/1.5/bw/001.png","","","complex"
"","","","","","animation","59","2305975","0.0-59.0","1920x1080","","9694.299999999814","48.02","img/238/3.5/2/bw/001.png","","","complex"
"","","","","","animation","60","2317814","0.0-60.0","1920x1080","","11838.100000000559","69.71","img/117/4/0.5/bw/001.png","","","complex"
"","","","","","animation","61","2323207","0.0-61.0","1920x1080","","5391.4000000003725","78.17","img/117/3.5/0.66667/bw/001.png","","","complex"
"","","","","","animation","62","2332423","0.0-62.0","1920x1080","","9214.799999999814","29","img/117/5.5/0.5/bw/001.png","","","complex"
"","","","","","animation","63","2343718","0.0-63.0","1920x1080","","11294.700000000186","90.87","img/314/2.5/0.5/bw/001.png","","","complex"
"","","","","","animation","64","2350855","0.0-64.0","1920x1080","","7133.899999999441","3","img/314/5.5/1/bw/001.png","","","complex"
"","","","","","animation","65","2356998","0.0-65.0","1920x1080","","6142.399999999441","50","img/314/3.5/0.66667/bw/001.png","","","complex"
"","","","","","animation","66","2363039","0.0-66.0","1920x1080","","6039.299999999814","49","img/117/4/0.66667/bw/001.png","","","complex"
"","","","","","animation","67","2367702","0.0-67.0","1920x1080","","4663","53.84","img/238/3.5/1.5/bw/001.png","","","complex"
"","","","","","animation","68","2373901","0.0-68.0","1920x1080","","6199.0999999996275","40.74","img/238/4.5/0.66667/bw/001.png","","","complex"
"","","","","","animation","69","2383533","0.0-69.0","1920x1080","","9631.099999999627","41.53","img/117/4.5/0.5/bw/001.png","","","complex"
"","","","","","animation","70","2390885","0.0-70.0","1920x1080","","7351","89.95","img/314/2.5/0.66667/bw/001.png","","","complex"
"","","","","","animation","71","2397469","0.0-71.0","1920x1080","","6582.399999999441","85","img/314/2.5/2/bw/001.png","","","complex"
"","","","","","animation","72","2404760","0.0-72.0","1920x1080","","7290","59.92","img/117/4/1.5/bw/001.png","","","complex"
"","","","","","animation","73","2415717","0.0-73.0","1920x1080","","10956","89.02","img/314/3.5/0.5/bw/001.png","","","complex"
"","","","","","animation","74","2424453","0.0-74.0","1920x1080","","8734.599999999627","61","img/314/4/1/bw/001.png","","","complex"
"","","","","","animation","75","2431804","0.0-75.0","1920x1080","","7351.199999999255","57.67","img/117/4/2/bw/001.png","","","complex"
"","","","","","animation","76","2450004","0.0-76.0","1920x1080","","18198.800000000745","4","img/238/5.5/0.5/bw/001.png","","","complex"
"","","","","","animation","77","2458094","0.0-77.0","1920x1080","","8087.5","2","img/238/5.5/1.5/bw/001.png","","","complex"
"","","","","","animation","78","2463220","0.0-78.0","1920x1080","","5125.4000000003725","3.17","img/314/5.5/0.66667/bw/001.png","","","complex"
"","","","","","animation","79","2474780","0.0-79.0","1920x1080","","11558.700000000186","86","img/117/2.5/0.66667/bw/001.png","","","complex"
"","","","","","animation","80","2481176","0.0-80.0","1920x1080","","6394.700000000186","45.11","img/238/4.5/2/bw/001.png","","","complex"
"","","","","","animation","81","2489746","0.0-81.0","1920x1080","","8565.699999999255","42.86","img/117/4.5/1.5/bw/001.png","","","complex"
"","","","","","html-button-response","82","2513024","0.0-82.0","1920x1080","","23276.400000000373","","<div class=""intro"">You are about to view a new series of animations.<br><br></div><div class=""intro"">You will evaluate them based on a different descriptor.<br><br></div><div class=""intro"">Move the slider to indicate how <strong style=""text-transform:capitalize"">INTERESTING</strong> you find each animation.<br><br></div><div class=""intro"">0 = Least Interesting<br></div><div class=""intro"">1 = Most Interesting<br><br></div><div class=""intro"">Remember to use the <strong><em>entire range</em></strong> of the slider to make your ratings.<br></div><div class=""intro"">Please <strong><em>take your time</em></strong> and carefully consider each rating you make.<br><br></div>","0","",""
"","","","","","call-function","83","2513026","0.0-83.0","1920x1080","","","","","","",""
"","","","","","animation","84","2545519","0.0-84.0","1920x1080","","32492.099999999627","42.33","img/117/4.5/2/bw/001.png","","","interesting"
"","","","","","animation","85","2593503","0.0-85.0","1920x1080","","47983.09999999963","36.11","img/238/4/2/bw/001.png","","","interesting"
"","","","","","animation","86","2600983","0.0-86.0","1920x1080","","7478.700000000186","26.85","img/238/4.5/2/bw/001.png","","","interesting"
"","","","","","animation","87","2609750","0.0-87.0","1920x1080","","8765","50.53","img/314/4/1/bw/001.png","","","interesting"
"","","","","","animation","88","2623878","0.0-88.0","1920x1080","","14126.5","76","img/314/2.5/1/bw/001.png","","","interesting"
"","","","","","animation","89","2632727","0.0-89.0","1920x1080","","8848.200000000186","97","img/117/3.5/0.66667/bw/001.png","","","interesting"
"","","","","","animation","90","2639760","0.0-90.0","1920x1080","","7031.899999999441","97","img/117/4/0.5/bw/001.png","","","interesting"
"","","","","","animation","91","2654629","0.0-91.0","1920x1080","","14867.799999999814","16.53","img/314/4.5/2/bw/001.png","","","interesting"
"","","","","","animation","92","2665213","0.0-92.0","1920x1080","","10583.200000000186","88","img/117/2.5/0.5/bw/001.png","","","interesting"
"","","","","","animation","93","2677315","0.0-93.0","1920x1080","","12103.300000000745","87.30","img/117/5.5/1.5/bw/001.png","","","interesting"
"","","","","","animation","94","2683019","0.0-94.0","1920x1080","","5701.100000000559","45.11","img/238/4.5/1/bw/001.png","","","interesting"
"","","","","","animation","95","2687358","0.0-95.0","1920x1080","","4336.700000000186","98","img/238/3.5/1.5/bw/001.png","","","interesting"
"","","","","","animation","96","2694774","0.0-96.0","1920x1080","","7415","95","img/314/4/0.5/bw/001.png","","","interesting"
"","","","","","animation","97","2700107","0.0-97.0","1920x1080","","5331.9000000003725","92.06","img/314/4/0.66667/bw/001.png","","","interesting"
"","","","","","animation","98","2716211","0.0-98.0","1920x1080","","16102.399999999441","90","img/117/4/1.5/bw/001.png","","","interesting"
"","","","","","animation","99","2723499","0.0-99.0","1920x1080","","7286.5","75","img/117/4/2/bw/001.png","","","interesting"
"","","","","","animation","100","2731583","0.0-100.0","1920x1080","","8079","29","img/314/4.5/0.66667/bw/001.png","","","interesting"
"","","","","","animation","101","2736951","0.0-101.0","1920x1080","","5367","90.87","img/117/2.5/0.66667/bw/001.png","","","interesting"
"","","","","","animation","102","2746611","0.0-102.0","1920x1080","","9658.600000000559","76.85","img/117/5.5/1/bw/001.png","","","interesting"
"","","","","","animation","103","2750735","0.0-103.0","1920x1080","","4122.299999999814","86","img/238/3.5/2/bw/001.png","","","interesting"
"","","","","","animation","104","2754551","0.0-104.0","1920x1080","","3815.2000000001863","90.61","img/117/2.5/1.5/bw/001.png","","","interesting"
"","","","","","animation","105","2759103","0.0-105.0","1920x1080","","4551.0999999996275","99","img/314/4.5/1/bw/001.png","","","interesting"
"","","","","","animation","106","2765639","0.0-106.0","1920x1080","","6534.4000000003725","12.96","img/314/5.5/0.5/bw/001.png","","","interesting"
"","","","","","animation","107","2771199","0.0-107.0","1920x1080","","5558.899999999441","9.66","img/314/4.5/1.5/bw/001.png","","","interesting"
"","","","","","animation","108","2784479","0.0-108.0","1920x1080","","13278.599999999627","29.10","img/117/4.5/0.66667/bw/001.png","","","interesting"
"","","","","","animation","109","2790581","0.0-109.0","1920x1080","","6103.5","16.53","img/314/4/1.5/bw/001.png","","","interesting"
"","","","","","animation","110","2802276","0.0-110.0","1920x1080","","11694.700000000186","22","img/117/4.5/1.5/bw/001.png","","","interesting"
"","","","","","animation","111","2812342","0.0-111.0","1920x1080","","10064.400000000373","86.38","img/238/2.5/0.5/bw/001.png","","","interesting"
"","","","","","animation","112","2817392","0.0-112.0","1920x1080","","5048.700000000186","94","img/314/4/2/bw/001.png","","","interesting"
"","","","","","animation","113","2821101","0.0-113.0","1920x1080","","3707.4000000003725","95","img/117/3.5/1.5/bw/001.png","","","interesting"
"","","","","","animation","114","2825560","0.0-114.0","1920x1080","","4458.299999999814","74.34","img/117/3.5/2/bw/001.png","","","interesting"
"","","","","","animation","115","2837749","0.0-115.0","1920x1080","","12187.5","89","img/238/3.5/0.66667/bw/001.png","","","interesting"
"","","","","","animation","116","2847392","0.0-116.0","1920x1080","","9642","82.01","img/314/3.5/2/bw/001.png","","","interesting"
"","","","","","animation","117","2853872","0.0-117.0","1920x1080","","6483.299999999814","4.50","img/314/5.5/1/bw/001.png","","","interesting"
"","","","","","animation","118","2865825","0.0-118.0","1920x1080","","11951","76","img/238/3.5/0.5/bw/001.png","","","interesting"
"","","","","","animation","119","2874049","0.0-119.0","1920x1080","","8222.799999999814","97","img/314/2.5/1.5/bw/001.png","","","interesting"
"","","","","","animation","120","2881033","0.0-120.0","1920x1080","","6981.299999999814","97","img/117/4.5/1/bw/001.png","","","interesting"
"","","","","","animation","121","2891113","0.0-121.0","1920x1080","","10078.599999999627","92","img/314/3.5/0.5/bw/001.png","","","interesting"
"","","","","","animation","122","2899048","0.0-122.0","1920x1080","","7934.700000000186","74.87","img/314/3.5/0.66667/bw/001.png","","","interesting"
"","","","","","animation","123","2902129","0.0-123.0","1920x1080","","3079.0999999996275","77.78","img/314/2.5/2/bw/001.png","","","interesting"
"","","","","","animation","124","2907249","0.0-124.0","1920x1080","","5118.5999999996275","80.69","img/238/3.5/1/bw/001.png","","","interesting"
"","","","","","animation","125","2910854","0.0-125.0","1920x1080","","3599","74.21","img/117/3.5/1/bw/001.png","","","interesting"
"","","","","","animation","126","2914342","0.0-126.0","1920x1080","","3487.7000000001863","82.01","img/314/2.5/0.5/bw/001.png","","","interesting"
"","","","","","animation","127","2922982","0.0-127.0","1920x1080","","8638.599999999627","20.77","img/238/5.5/0.5/bw/001.png","","","interesting"
"","","","","","animation","128","2934054","0.0-128.0","1920x1080","","11069.700000000186","100","img/238/4.5/1.5/bw/001.png","","","interesting"
"","","","","","animation","129","2937592","0.0-129.0","1920x1080","","3537.5","90","img/314/2.5/0.66667/bw/001.png","","","interesting"
"","","","","","animation","130","2942966","0.0-130.0","1920x1080","","5372.299999999814","18","img/238/5.5/0.66667/bw/001.png","","","interesting"
"","","","","","animation","131","2946086","0.0-131.0","1920x1080","","3118.2000000001863","91","img/238/2.5/1/bw/001.png","","","interesting"
"","","","","","animation","132","2952360","0.0-132.0","1920x1080","","6273.299999999814","21.43","img/117/5.5/0.66667/bw/001.png","","","interesting"
"","","","","","animation","133","2957493","0.0-133.0","1920x1080","","5132.199999999255","82.14","img/314/3.5/1/bw/001.png","","","interesting"
"","","","","","animation","134","2962194","0.0-134.0","1920x1080","","4699.899999999441","80.03","img/314/3.5/1.5/bw/001.png","","","interesting"
"","","","","","animation","135","2969501","0.0-135.0","1920x1080","","7306.299999999814","0","img/238/5.5/1.5/bw/001.png","","","interesting"
"","","","","","animation","136","2972159","0.0-136.0","1920x1080","","2656.7000000001863","48.81","img/238/4/1/bw/001.png","","","interesting"
"","","","","","animation","137","2978493","0.0-137.0","1920x1080","","6333.0999999996275","55.69","img/238/2.5/0.66667/bw/001.png","","","interesting"
"","","","","","animation","138","2984245","0.0-138.0","1920x1080","","5751.0999999996275","76.19","img/117/2.5/2/bw/001.png","","","interesting"
"","","","","","animation","139","2990425","0.0-139.0","1920x1080","","6179","100","img/238/4/0.5/bw/001.png","","","interesting"
"","","","","","animation","140","2997425","0.0-140.0","1920x1080","","6998.800000000745","19.44","img/238/5.5/1/bw/001.png","","","interesting"
"","","","","","animation","141","3004453","0.0-141.0","1920x1080","","7027","100","img/238/4.5/0.66667/bw/001.png","","","interesting"
"","","","","","animation","142","3008181","0.0-142.0","1920x1080","","3725.9000000003725","99","img/238/4.5/0.5/bw/001.png","","","interesting"
"","","","","","animation","143","3016181","0.0-143.0","1920x1080","","7998.5999999996275","50.79","img/117/5.5/2/bw/001.png","","","interesting"
"","","","","","animation","144","3019176","0.0-144.0","1920x1080","","2993.5999999996275","36.24","img/117/5.5/0.5/bw/001.png","","","interesting"
"","","","","","animation","145","3024142","0.0-145.0","1920x1080","","4965.5999999996275","71","img/238/2.5/1.5/bw/001.png","","","interesting"
"","","","","","animation","146","3032167","0.0-146.0","1920x1080","","8022","10.19","img/314/5.5/1.5/bw/001.png","","","interesting"
"","","","","","animation","147","3035887","0.0-147.0","1920x1080","","3718.4000000003725","5.95","img/314/5.5/2/bw/001.png","","","interesting"
"","","","","","animation","148","3041628","0.0-148.0","1920x1080","","5740.0999999996275","74","img/117/4/1/bw/001.png","","","interesting"
"","","","","","animation","149","3045127","0.0-149.0","1920x1080","","3498.2000000001863","86.24","img/117/3.5/0.5/bw/001.png","","","interesting"
"","","","","","animation","150","3051287","0.0-150.0","1920x1080","","6158.700000000186","2.12","img/238/5.5/2/bw/001.png","","","interesting"
"","","","","","animation","151","3060815","0.0-151.0","1920x1080","","9525.699999999255","70","img/117/4/0.66667/bw/001.png","","","interesting"
"","","","","","animation","152","3065071","0.0-152.0","1920x1080","","4255.300000000745","18.92","img/314/5.5/0.66667/bw/001.png","","","interesting"
"","","","","","animation","153","3070379","0.0-153.0","1920x1080","","5306.300000000745","69.31","img/117/4.5/0.5/bw/001.png","","","interesting"
"","","","","","animation","154","3073611","0.0-154.0","1920x1080","","3230.600000000559","67.86","img/117/2.5/1/bw/001.png","","","interesting"
"","","","","","animation","155","3076671","0.0-155.0","1920x1080","","3059.100000000559","77.12","img/314/4.5/0.5/bw/001.png","","","interesting"
"","","","","","animation","156","3080799","0.0-156.0","1920x1080","","4126.799999999814","76.32","img/238/2.5/2/bw/001.png","","","interesting"
"","","","","","animation","157","3083887","0.0-157.0","1920x1080","","3086.7999999998137","80.29","img/238/4/0.66667/bw/001.png","","","interesting"
"","","","","","animation","158","3089076","0.0-158.0","1920x1080","","5190.4000000003725","43.78","img/238/4/1.5/bw/001.png","","","interesting"
"","","","","","html-button-response","159","3121101","0.0-159.0","1920x1080","","32023.299999999814","","<div class=""intro"">You are about to view a new series of animations.<br><br></div><div class=""intro"">You will evaluate them based on a different descriptor.<br><br></div><div class=""intro"">Move the slider to indicate how <strong style=""text-transform:capitalize"">NATURAL</strong> you find each animation.<br><br></div><div class=""intro"">0 = Least Natural<br></div><div class=""intro"">1 = Most Natural<br><br></div><div class=""intro"">Remember to use the <strong><em>entire range</em></strong> of the slider to make your ratings.<br></div><div class=""intro"">Please <strong><em>take your time</em></strong> and carefully consider each rating you make.<br><br></div>","0","",""
"","","","","","call-function","160","3121105","0.0-160.0","1920x1080","","","","","","",""
"","","","","","animation","161","3151092","0.0-161.0","1920x1080","","29986.5","19.58","img/117/3.5/0.5/bw/001.png","","","natural"
"","","","","","animation","162","3157825","0.0-162.0","1920x1080","","6732","20","img/314/4/1/bw/001.png","","","natural"
"","","","","","animation","163","3161476","0.0-163.0","1920x1080","","3649.600000000559","18","img/314/3.5/0.66667/bw/001.png","","","natural"
"","","","","","animation","164","3168596","0.0-164.0","1920x1080","","7119.100000000559","32.41","img/238/4.5/0.66667/bw/001.png","","","natural"
"","","","","","animation","165","3173326","0.0-165.0","1920x1080","","4729.200000000186","0.79","img/117/2.5/1/bw/001.png","","","natural"
"","","","","","animation","166","3178564","0.0-166.0","1920x1080","","5236","9.13","img/117/3.5/2/bw/001.png","","","natural"
"","","","","","animation","167","3182100","0.0-167.0","1920x1080","","3534.7000000001863","49.47","img/117/4.5/0.5/bw/001.png","","","natural"
"","","","","","animation","168","3191943","0.0-168.0","1920x1080","","9841.099999999627","86.77","img/314/5.5/1.5/bw/001.png","","","natural"
"","","","","","animation","169","3194941","0.0-169.0","1920x1080","","2997.100000000559","28.57","img/117/4/1/bw/001.png","","","natural"
"","","","","","animation","170","3209548","0.0-170.0","1920x1080","","14598.700000000186","89","img/314/5.5/0.5/bw/001.png","","","natural"
"","","","","","animation","171","3213064","0.0-171.0","1920x1080","","3515.300000000745","96","img/117/5.5/2/bw/001.png","","","natural"
"","","","","","animation","172","3219448","0.0-172.0","1920x1080","","6382.800000000745","45.11","img/314/4/2/bw/001.png","","","natural"
"","","","","","animation","173","3223831","0.0-173.0","1920x1080","","4381.799999999814","18.52","img/117/4/0.5/bw/001.png","","","natural"
"","","","","","animation","174","3227539","0.0-174.0","1920x1080","","3706.7999999998137","11.11","img/238/3.5/1.5/bw/001.png","","","natural"
"","","","","","animation","175","3231665","0.0-175.0","1920x1080","","4124.800000000745","14.15","img/117/4/2/bw/001.png","","","natural"
"","","","","","animation","176","3235091","0.0-176.0","1920x1080","","3424.5","19.84","img/314/4.5/0.66667/bw/001.png","","","natural"
"","","","","","animation","177","3238075","0.0-177.0","1920x1080","","2982.600000000559","10.71","img/238/3.5/1/bw/001.png","","","natural"
"","","","","","animation","178","3247648","0.0-178.0","1920x1080","","9571.899999999441","99","img/238/5.5/2/bw/001.png","","","natural"
"","","","","","animation","179","3254031","0.0-179.0","1920x1080","","6382","2.25","img/238/2.5/2/bw/001.png","","","natural"
"","","","","","animation","180","3257051","0.0-180.0","1920x1080","","3017.2999999998137","84.92","img/314/5.5/0.66667/bw/001.png","","","natural"
"","","","","","animation","181","3262467","0.0-181.0","1920x1080","","5415.299999999814","85.58","img/314/5.5/1/bw/001.png","","","natural"
"","","","","","animation","182","3265632","0.0-182.0","1920x1080","","3163.5","85.71","img/238/5.5/0.66667/bw/001.png","","","natural"
"","","","","","animation","183","3269854","0.0-183.0","1920x1080","","4216.899999999441","31.22","img/314/3.5/1/bw/001.png","","","natural"
"","","","","","animation","184","3273385","0.0-184.0","1920x1080","","3530.2999999998137","51.98","img/117/5.5/0.66667/bw/001.png","","","natural"
"","","","","","animation","185","3279086","0.0-185.0","1920x1080","","5699.799999999814","26","img/238/4/1.5/bw/001.png","","","natural"
"","","","","","animation","186","3283910","0.0-186.0","1920x1080","","4823","18.52","img/314/4.5/1.5/bw/001.png","","","natural"
"","","","","","animation","187","3297142","0.0-187.0","1920x1080","","13230.700000000186","34.52","img/117/4.5/1.5/bw/001.png","","","natural"
"","","","","","animation","188","3300838","0.0-188.0","1920x1080","","3694.7000000001863","18","img/314/4.5/0.5/bw/001.png","","","natural"
"","","","","","animation","189","3305584","0.0-189.0","1920x1080","","4745.299999999814","15.61","img/238/4/2/bw/001.png","","","natural"
"","","","","","animation","190","3310294","0.0-190.0","1920x1080","","4708.5","53.17","img/238/4.5/0.5/bw/001.png","","","natural"
"","","","","","animation","191","3313606","0.0-191.0","1920x1080","","3309.899999999441","3.57","img/314/2.5/1.5/bw/001.png","","","natural"
"","","","","","animation","192","3316635","0.0-192.0","1920x1080","","3027.699999999255","2.65","img/117/2.5/2/bw/001.png","","","natural"
"","","","","","animation","193","3320006","0.0-193.0","1920x1080","","3369.699999999255","84","img/117/5.5/1/bw/001.png","","","natural"
"","","","","","animation","194","3325402","0.0-194.0","1920x1080","","5394.600000000559","48.15","img/117/3.5/1/bw/001.png","","","natural"
"","","","","","animation","195","3339574","0.0-195.0","1920x1080","","14164","60","img/238/4.5/1.5/bw/001.png","","","natural"
"","","","","","animation","196","3345380","0.0-196.0","1920x1080","","5805.200000000186","46.03","img/117/4/0.66667/bw/001.png","","","natural"
"","","","","","animation","197","3347860","0.0-197.0","1920x1080","","2478.600000000559","49.47","img/314/4.5/2/bw/001.png","","","natural"
"","","","","","animation","198","3354316","0.0-198.0","1920x1080","","6455.5","25","img/238/3.5/0.5/bw/001.png","","","natural"
"","","","","","animation","199","3358076","0.0-199.0","1920x1080","","3758.399999999441","27","img/314/4/0.5/bw/001.png","","","natural"
"","","","","","animation","200","3361857","0.0-200.0","1920x1080","","3780","27.38","img/117/3.5/0.66667/bw/001.png","","","natural"
"","","","","","animation","201","3366757","0.0-201.0","1920x1080","","4898.700000000186","26.59","img/238/4/1/bw/001.png","","","natural"
"","","","","","animation","202","3369180","0.0-202.0","1920x1080","","2422.2000000001863","32.14","img/117/4.5/0.66667/bw/001.png","","","natural"
"","","","","","animation","203","3373674","0.0-203.0","1920x1080","","4492.4000000003725","0","img/238/2.5/0.5/bw/001.png","","","natural"
"","","","","","animation","204","3377208","0.0-204.0","1920x1080","","3533.0999999996275","2.12","img/117/2.5/1.5/bw/001.png","","","natural"
"","","","","","animation","205","3382964","0.0-205.0","1920x1080","","5754.9000000003725","89.95","img/238/5.5/1.5/bw/001.png","","","natural"
"","","","","","animation","206","3387240","0.0-206.0","1920x1080","","4275","2.12","img/238/2.5/0.66667/bw/001.png","","","natural"
"","","","","","animation","207","3391794","0.0-207.0","1920x1080","","4548.5999999996275","5.03","img/314/3.5/1.5/bw/001.png","","","natural"
"","","","","","animation","208","3401904","0.0-208.0","1920x1080","","10108.700000000186","68","img/238/5.5/0.5/bw/001.png","","","natural"
"","","","","","animation","209","3407464","0.0-209.0","1920x1080","","5558.200000000186","0","img/314/2.5/0.66667/bw/001.png","","","natural"
"","","","","","animation","210","3413818","0.0-210.0","1920x1080","","6352.800000000745","46.96","img/117/4.5/1/bw/001.png","","","natural"
"","","","","","animation","211","3416728","0.0-211.0","1920x1080","","2907.7999999998137","50.66","img/117/5.5/1.5/bw/001.png","","","natural"
"","","","","","animation","212","3424752","0.0-212.0","1920x1080","","8023.199999999255","37.30","img/238/4.5/1/bw/001.png","","","natural"
"","","","","","animation","213","3429378","0.0-213.0","1920x1080","","4625","47.09","img/117/4.5/2/bw/001.png","","","natural"
"","","","","","animation","214","3434000","0.0-214.0","1920x1080","","4620.700000000186","34.66","img/238/3.5/0.66667/bw/001.png","","","natural"
"","","","","","animation","215","3440504","0.0-215.0","1920x1080","","6502.899999999441","1","img/314/2.5/1/bw/001.png","","","natural"
"","","","","","animation","216","3444861","0.0-216.0","1920x1080","","4355.600000000559","0.13","img/117/2.5/0.66667/bw/001.png","","","natural"
"","","","","","animation","217","3450081","0.0-217.0","1920x1080","","5217.199999999255","39.95","img/314/4.5/1/bw/001.png","","","natural"
"","","","","","animation","218","3455180","0.0-218.0","1920x1080","","5097.5","87.43","img/238/5.5/1/bw/001.png","","","natural"
"","","","","","animation","219","3459105","0.0-219.0","1920x1080","","3923.699999999255","63.76","img/238/4.5/2/bw/001.png","","","natural"
"","","","","","animation","220","3463249","0.0-220.0","1920x1080","","4141.799999999814","43.92","img/314/4/0.66667/bw/001.png","","","natural"
"","","","","","animation","221","3465679","0.0-221.0","1920x1080","","2429.0999999996275","41.80","img/238/4/0.66667/bw/001.png","","","natural"
"","","","","","animation","222","3469747","0.0-222.0","1920x1080","","4066.2000000001863","0.79","img/238/2.5/1.5/bw/001.png","","","natural"
"","","","","","animation","223","3475047","0.0-223.0","1920x1080","","5298.5","0","img/117/2.5/0.5/bw/001.png","","","natural"
"","","","","","animation","224","3477713","0.0-224.0","1920x1080","","2664.2999999998137","8.99","img/117/3.5/1.5/bw/001.png","","","natural"
"","","","","","animation","225","3482153","0.0-225.0","1920x1080","","4439.200000000186","1.59","img/238/2.5/1/bw/001.png","","","natural"
"","","","","","animation","226","3485953","0.0-226.0","1920x1080","","3798.2999999998137","12.43","img/238/4/0.5/bw/001.png","","","natural"
"","","","","","animation","227","3490953","0.0-227.0","1920x1080","","4998.799999999814","53.57","img/117/5.5/0.5/bw/001.png","","","natural"
"","","","","","animation","228","3494681","0.0-228.0","1920x1080","","3726.2999999998137","2.78","img/314/2.5/0.5/bw/001.png","","","natural"
"","","","","","animation","229","3499185","0.0-229.0","1920x1080","","4502.700000000186","75.40","img/314/5.5/2/bw/001.png","","","natural"
"","","","","","animation","230","3510880","0.0-230.0","1920x1080","","11692.099999999627","28","img/314/4/1.5/bw/001.png","","","natural"
"","","","","","animation","231","3514181","0.0-231.0","1920x1080","","3299.7000000001863","20.24","img/314/3.5/0.5/bw/001.png","","","natural"
"","","","","","animation","232","3517835","0.0-232.0","1920x1080","","3652.2000000001863","28.31","img/117/4/1.5/bw/001.png","","","natural"
"","","","","","animation","233","3522050","0.0-233.0","1920x1080","","4214.399999999441","5.56","img/314/2.5/2/bw/001.png","","","natural"
"","","","","","animation","234","3525014","0.0-234.0","1920x1080","","2962.399999999441","11.24","img/314/3.5/2/bw/001.png","","","natural"
"","","","","","animation","235","3529964","0.0-235.0","1920x1080","","4948.700000000186","13.23","img/238/3.5/2/bw/001.png","","","natural"
"","","","","","html-button-response","236","3624708","0.0-236.0","1920x1080","","94733.39999999944","","<div class=""intro"">You are about to view a new series of animations.<br><br></div><div class=""intro"">You will evaluate them based on a different descriptor.<br><br></div><div class=""intro"">Move the slider to indicate how <strong style=""text-transform:capitalize"">RELAXING</strong> you find each animation.<br><br></div><div class=""intro"">0 = Least Relaxing<br></div><div class=""intro"">1 = Most Relaxing<br><br></div><div class=""intro"">Remember to use the <strong><em>entire range</em></strong> of the slider to make your ratings.<br></div><div class=""intro"">Please <strong><em>take your time</em></strong> and carefully consider each rating you make.<br><br></div>","0","",""
"","","","","","call-function","237","3624712","0.0-237.0","1920x1080","","","","","","",""
"","","","","","animation","238","3634658","0.0-238.0","1920x1080","","9942.900000000373","94","img/117/4.5/1/bw/001.png","","","relaxing"
"","","","","","animation","239","3659661","0.0-239.0","1920x1080","","25002","63.76","img/314/2.5/2/bw/001.png","","","relaxing"
"","","","","","animation","240","3665774","0.0-240.0","1920x1080","","6111.799999999814","8.60","img/238/4/0.5/bw/001.png","","","relaxing"
"","","","","","animation","241","3670725","0.0-241.0","1920x1080","","4949.600000000559","71.03","img/117/5.5/2/bw/001.png","","","relaxing"
"","","","","","animation","242","3679198","0.0-242.0","1920x1080","","8471.300000000745","58.33","img/314/4/1.5/bw/001.png","","","relaxing"
"","","","","","animation","243","3684891","0.0-243.0","1920x1080","","5692.0999999996275","37.43","img/117/4/0.66667/bw/001.png","","","relaxing"
"","","","","","animation","244","3692071","0.0-244.0","1920x1080","","7183.5999999996275","74.07","img/238/4.5/1/bw/001.png","","","relaxing"
"","","","","","animation","245","3696287","0.0-245.0","1920x1080","","4214.300000000745","87.04","img/238/5.5/0.5/bw/001.png","","","relaxing"
"","","","","","animation","246","3699855","0.0-246.0","1920x1080","","3566.5","91","img/314/5.5/1.5/bw/001.png","","","relaxing"
"","","","","","animation","247","3709407","0.0-247.0","1920x1080","","9550.599999999627","72.49","img/117/2.5/0.5/bw/001.png","","","relaxing"
"","","","","","animation","248","3714207","0.0-248.0","1920x1080","","4798.299999999814","55.95","img/238/4.5/1.5/bw/001.png","","","relaxing"
"","","","","","animation","249","3719635","0.0-249.0","1920x1080","","5425.5","46.16","img/314/4.5/2/bw/001.png","","","relaxing"
"","","","","","animation","250","3723101","0.0-250.0","1920x1080","","3465.5999999996275","36.77","img/314/4.5/0.66667/bw/001.png","","","relaxing"
"","","","","","animation","251","3727635","0.0-251.0","1920x1080","","4532.200000000186","92.46","img/238/5.5/1.5/bw/001.png","","","relaxing"
"","","","","","animation","252","3731791","0.0-252.0","1920x1080","","4154.5","62","img/238/2.5/0.66667/bw/001.png","","","relaxing"
"","","","","","animation","253","3741119","0.0-253.0","1920x1080","","9326.300000000745","100","img/117/5.5/0.5/bw/001.png","","","relaxing"
"","","","","","animation","254","3744223","0.0-254.0","1920x1080","","3102.5","46.03","img/238/2.5/2/bw/001.png","","","relaxing"
"","","","","","animation","255","3751088","0.0-255.0","1920x1080","","6860.299999999814","51.19","img/314/3.5/2/bw/001.png","","","relaxing"
"","","","","","animation","256","3755839","0.0-256.0","1920x1080","","4747.299999999814","91","img/314/5.5/0.66667/bw/001.png","","","relaxing"
"","","","","","animation","257","3762427","0.0-257.0","1920x1080","","6586.5999999996275","42.46","img/238/3.5/1.5/bw/001.png","","","relaxing"
"","","","","","animation","258","3765521","0.0-258.0","1920x1080","","3093.7000000001863","26","img/238/3.5/0.5/bw/001.png","","","relaxing"
"","","","","","animation","259","3769155","0.0-259.0","1920x1080","","3632","33.47","img/238/4/1.5/bw/001.png","","","relaxing"
"","","","","","animation","260","3774890","0.0-260.0","1920x1080","","5734.200000000186","85.85","img/117/5.5/1/bw/001.png","","","relaxing"
"","","","","","animation","261","3779090","0.0-261.0","1920x1080","","4198.9000000003725","69.44","img/314/4.5/1/bw/001.png","","","relaxing"
"","","","","","animation","262","3789571","0.0-262.0","1920x1080","","10479.700000000186","38","img/314/3.5/1/bw/001.png","","","relaxing"
"","","","","","animation","263","3792474","0.0-263.0","1920x1080","","2901.7000000001863","19.05","img/117/2.5/1.5/bw/001.png","","","relaxing"
"","","","","","animation","264","3796188","0.0-264.0","1920x1080","","3712.5","22.35","img/117/3.5/2/bw/001.png","","","relaxing"
"","","","","","animation","265","3804042","0.0-265.0","1920x1080","","7853.100000000559","8","img/238/2.5/1/bw/001.png","","","relaxing"
"","","","","","animation","266","3807722","0.0-266.0","1920x1080","","3678.399999999441","31.75","img/117/4/2/bw/001.png","","","relaxing"
"","","","","","animation","267","3810753","0.0-267.0","1920x1080","","3031.4000000003725","43.78","img/314/4/2/bw/001.png","","","relaxing"
"","","","","","animation","268","3813641","0.0-268.0","1920x1080","","2886.5999999996275","26.32","img/238/4/0.66667/bw/001.png","","","relaxing"
"","","","","","animation","269","3820820","0.0-269.0","1920x1080","","7177.299999999814","97","img/238/5.5/1/bw/001.png","","","relaxing"
"","","","","","animation","270","3824169","0.0-270.0","1920x1080","","3347.9000000003725","30.56","img/117/4/0.5/bw/001.png","","","relaxing"
"","","","","","animation","271","3827186","0.0-271.0","1920x1080","","3015.2999999998137","33.47","img/117/4.5/0.66667/bw/001.png","","","relaxing"
"","","","","","animation","272","3829809","0.0-272.0","1920x1080","","2621.2999999998137","23.02","img/314/3.5/0.5/bw/001.png","","","relaxing"
"","","","","","animation","273","3832609","0.0-273.0","1920x1080","","2798.7999999998137","21.56","img/117/3.5/0.66667/bw/001.png","","","relaxing"
"","","","","","animation","274","3837403","0.0-274.0","1920x1080","","4792.800000000745","93.39","img/238/5.5/2/bw/001.png","","","relaxing"
"","","","","","animation","275","3840120","0.0-275.0","1920x1080","","2715.5","59.39","img/314/4/0.66667/bw/001.png","","","relaxing"
"","","","","","animation","276","3848153","0.0-276.0","1920x1080","","8031.700000000186","86.90","img/314/5.5/1/bw/001.png","","","relaxing"
"","","","","","animation","277","3851009","0.0-277.0","1920x1080","","2853.5","71","img/117/4.5/0.5/bw/001.png","","","relaxing"
"","","","","","animation","278","3858736","0.0-278.0","1920x1080","","7726.299999999814","48.02","img/314/4/0.5/bw/001.png","","","relaxing"
"","","","","","animation","279","3863688","0.0-279.0","1920x1080","","4950.9000000003725","51.19","img/117/4.5/1.5/bw/001.png","","","relaxing"
"","","","","","animation","280","3868625","0.0-280.0","1920x1080","","4935.100000000559","15.87","img/117/2.5/2/bw/001.png","","","relaxing"
"","","","","","animation","281","3872020","0.0-281.0","1920x1080","","3393.7999999998137","83.60","img/238/5.5/0.66667/bw/001.png","","","relaxing"
"","","","","","animation","282","3875036","0.0-282.0","1920x1080","","3015.5","81.88","img/314/5.5/2/bw/001.png","","","relaxing"
"","","","","","animation","283","3878386","0.0-283.0","1920x1080","","3348.9000000003725","23.81","img/238/3.5/1/bw/001.png","","","relaxing"
"","","","","","animation","284","3880872","0.0-284.0","1920x1080","","2484.2000000001863","25","img/238/3.5/2/bw/001.png","","","relaxing"
"","","","","","animation","285","3883553","0.0-285.0","1920x1080","","2679.2000000001863","16.53","img/314/3.5/0.66667/bw/001.png","","","relaxing"
"","","","","","animation","286","3887953","0.0-286.0","1920x1080","","4399.0999999996275","84.79","img/117/5.5/1.5/bw/001.png","","","relaxing"
"","","","","","animation","287","3892620","0.0-287.0","1920x1080","","4665.399999999441","13.10","img/238/2.5/0.5/bw/001.png","","","relaxing"
"","","","","","animation","288","3898193","0.0-288.0","1920x1080","","5571.700000000186","50.93","img/238/4/2/bw/001.png","","","relaxing"
"","","","","","animation","289","3926353","0.0-289.0","1920x1080","","28158.799999999814","25","img/117/3.5/0.5/bw/001.png","","","relaxing"
"","","","","","animation","290","3932537","0.0-290.0","1920x1080","","6182.399999999441","2.91","img/117/2.5/0.66667/bw/001.png","","","relaxing"
"","","","","","animation","291","3936636","0.0-291.0","1920x1080","","4096.899999999441","8.73","img/238/3.5/0.66667/bw/001.png","","","relaxing"
"","","","","","animation","292","3945220","0.0-292.0","1920x1080","","8582.200000000186","100","img/117/5.5/0.66667/bw/001.png","","","relaxing"
"","","","","","animation","293","3948161","0.0-293.0","1920x1080","","2939.4000000003725","11.51","img/314/2.5/0.5/bw/001.png","","","relaxing"
"","","","","","animation","294","3951137","0.0-294.0","1920x1080","","2974.100000000559","17.59","img/238/4/1/bw/001.png","","","relaxing"
"","","","","","animation","295","3955870","0.0-295.0","1920x1080","","4732","16.40","img/117/3.5/1/bw/001.png","","","relaxing"
"","","","","","animation","296","3960521","0.0-296.0","1920x1080","","4648.5999999996275","7.54","img/238/2.5/1.5/bw/001.png","","","relaxing"
"","","","","","animation","297","3965603","0.0-297.0","1920x1080","","5081","3.44","img/117/2.5/1/bw/001.png","","","relaxing"
"","","","","","animation","298","3973673","0.0-298.0","1920x1080","","8067.5","75.66","img/314/4.5/1.5/bw/001.png","","","relaxing"
"","","","","","animation","299","3975687","0.0-299.0","1920x1080","","2012.5999999996275","75.26","img/117/4.5/2/bw/001.png","","","relaxing"
"","","","","","animation","300","3978353","0.0-300.0","1920x1080","","2665.5","83.86","img/314/5.5/0.5/bw/001.png","","","relaxing"
"","","","","","animation","301","3983753","0.0-301.0","1920x1080","","5398.799999999814","65","img/314/4.5/0.5/bw/001.png","","","relaxing"
"","","","","","animation","302","3986753","0.0-302.0","1920x1080","","2998.7000000001863","16.14","img/314/2.5/1/bw/001.png","","","relaxing"
"","","","","","animation","303","3990091","0.0-303.0","1920x1080","","3335.2999999998137","9.52","img/314/2.5/1.5/bw/001.png","","","relaxing"
"","","","","","animation","304","3993562","0.0-304.0","1920x1080","","3468.9000000003725","27.65","img/314/4/1/bw/001.png","","","relaxing"
"","","","","","animation","305","3998210","0.0-305.0","1920x1080","","4646.5","2.65","img/314/2.5/0.66667/bw/001.png","","","relaxing"
"","","","","","animation","306","4000988","0.0-306.0","1920x1080","","2776.300000000745","17.46","img/238/4.5/0.5/bw/001.png","","","relaxing"
"","","","","","animation","307","4003642","0.0-307.0","1920x1080","","2652.7999999998137","21.16","img/117/4/1.5/bw/001.png","","","relaxing"
"","","","","","animation","308","4006921","0.0-308.0","1920x1080","","3277.9000000003725","17.46","img/117/4/1/bw/001.png","","","relaxing"
"","","","","","animation","309","4014055","0.0-309.0","1920x1080","","7132.0999999996275","22","img/238/4.5/2/bw/001.png","","","relaxing"
"","","","","","animation","310","4020138","0.0-310.0","1920x1080","","6081.0999999996275","16.01","img/314/3.5/1.5/bw/001.png","","","relaxing"
"","","","","","animation","311","4024388","0.0-311.0","1920x1080","","4246.300000000745","35.85","img/238/4.5/0.66667/bw/001.png","","","relaxing"
"","","","","","animation","312","4027210","0.0-312.0","1920x1080","","2820.4000000003725","20.77","img/117/3.5/1.5/bw/001.png","","","relaxing"
"","","","","","html-button-response","313","4123837","0.0-313.0","1920x1080","","96614.5","","<div class=""intro"">You are about to view a new series of animations.<br><br></div><div class=""intro"">You will evaluate them based on a different descriptor.<br><br></div><div class=""intro"">Move the slider to indicate how <strong style=""text-transform:capitalize"">APPEALING</strong> you find each animation.<br><br></div><div class=""intro"">0 = Least Appealing<br></div><div class=""intro"">1 = Most Appealing<br><br></div><div class=""intro"">Remember to use the <strong><em>entire range</em></strong> of the slider to make your ratings.<br></div><div class=""intro"">Please <strong><em>take your time</em></strong> and carefully consider each rating you make.<br><br></div>","0","",""
"","","","","","call-function","314","4123841","0.0-314.0","1920x1080","","","","","","",""
"","","","","","animation","315","4137204","0.0-315.0","1920x1080","","13363.099999999627","49.60","img/117/4/2/bw/001.png","","","appealing"
"","","","","","animation","316","4139852","0.0-316.0","1920x1080","","2646.5","93","img/314/2.5/0.5/bw/001.png","","","appealing"
"","","","","","animation","317","4143915","0.0-317.0","1920x1080","","4061","100","img/238/4.5/0.66667/bw/001.png","","","appealing"
"","","","","","animation","318","4148165","0.0-318.0","1920x1080","","4248.700000000186","72.49","img/238/3.5/1.5/bw/001.png","","","appealing"
"","","","","","animation","319","4150797","0.0-319.0","1920x1080","","2631.300000000745","81.75","img/238/4/2/bw/001.png","","","appealing"
"","","","","","animation","320","4154837","0.0-320.0","1920x1080","","4037.899999999441","21.56","img/238/5.5/2/bw/001.png","","","appealing"
"","","","","","animation","321","4158300","0.0-321.0","1920x1080","","3460.4000000003725","82.54","img/117/2.5/1/bw/001.png","","","appealing"
"","","","","","animation","322","4161609","0.0-322.0","1920x1080","","3307.399999999441","67.72","img/117/4/1/bw/001.png","","","appealing"
"","","","","","animation","323","4164268","0.0-323.0","1920x1080","","2658","49.07","img/314/4.5/2/bw/001.png","","","appealing"
"","","","","","animation","324","4167815","0.0-324.0","1920x1080","","3544.7999999998137","73.94","img/314/2.5/0.66667/bw/001.png","","","appealing"
"","","","","","animation","325","4170107","0.0-325.0","1920x1080","","2300.0999999996275","78.31","img/314/2.5/1/bw/001.png","","","appealing"
"","","","","","animation","326","4172772","0.0-326.0","1920x1080","","2663.9000000003725","96","img/117/4.5/0.5/bw/001.png","","","appealing"
"","","","","","animation","327","4175475","0.0-327.0","1920x1080","","2701.7999999998137","81","img/238/2.5/0.5/bw/001.png","","","appealing"
"","","","","","animation","328","4179779","0.0-328.0","1920x1080","","4302.899999999441","83.33","img/117/3.5/2/bw/001.png","","","appealing"
"","","","","","animation","329","4185531","0.0-329.0","1920x1080","","5750.299999999814","90","img/117/5.5/0.5/bw/001.png","","","appealing"
"","","","","","animation","330","4189811","0.0-330.0","1920x1080","","4278.199999999255","80.56","img/238/4.5/1/bw/001.png","","","appealing"
"","","","","","animation","331","4193877","0.0-331.0","1920x1080","","4064.5","61","img/238/4/1/bw/001.png","","","appealing"
"","","","","","animation","332","4196432","0.0-332.0","1920x1080","","2553.7999999998137","61.90","img/314/4/0.5/bw/001.png","","","appealing"
"","","","","","animation","333","4200555","0.0-333.0","1920x1080","","4121.600000000559","55.82","img/314/3.5/1/bw/001.png","","","appealing"
"","","","","","animation","334","4204155","0.0-334.0","1920x1080","","3598.2999999998137","65.08","img/314/4/2/bw/001.png","","","appealing"
"","","","","","animation","335","4210456","0.0-335.0","1920x1080","","6300.100000000559","46.96","img/238/3.5/1/bw/001.png","","","appealing"
"","","","","","animation","336","4215572","0.0-336.0","1920x1080","","5113","30.29","img/314/4.5/0.66667/bw/001.png","","","appealing"
"","","","","","animation","337","4220323","0.0-337.0","1920x1080","","4749.5","18.25","img/238/5.5/1/bw/001.png","","","appealing"
"","","","","","animation","338","4222772","0.0-338.0","1920x1080","","2447.5","17.33","img/117/5.5/0.66667/bw/001.png","","","appealing"
"","","","","","animation","339","4228371","0.0-339.0","1920x1080","","5591.5999999996275","9.66","img/117/3.5/0.5/bw/001.png","","","appealing"
"","","","","","animation","340","4231068","0.0-340.0","1920x1080","","2674.600000000559","17.99","img/117/3.5/0.66667/bw/001.png","","","appealing"
"","","","","","animation","341","4236002","0.0-341.0","1920x1080","","4932.799999999814","75","img/117/2.5/0.66667/bw/001.png","","","appealing"
"","","","","","animation","342","4239429","0.0-342.0","1920x1080","","3425.4000000003725","82.67","img/314/2.5/2/bw/001.png","","","appealing"
"","","","","","animation","343","4243612","0.0-343.0","1920x1080","","4182.299999999814","68.65","img/314/4.5/1/bw/001.png","","","appealing"
"","","","","","animation","344","4247055","0.0-344.0","1920x1080","","3441.5","73.94","img/117/2.5/0.5/bw/001.png","","","appealing"
"","","","","","animation","345","4249450","0.0-345.0","1920x1080","","2393.2999999998137","88.62","img/117/4.5/1.5/bw/001.png","","","appealing"
"","","","","","animation","346","4255020","0.0-346.0","1920x1080","","5569.5","25.93","img/238/5.5/1.5/bw/001.png","","","appealing"
"","","","","","animation","347","4257912","0.0-347.0","1920x1080","","2889.5","87.17","img/238/2.5/2/bw/001.png","","","appealing"
"","","","","","animation","348","4262828","0.0-348.0","1920x1080","","4915","78.44","img/238/5.5/0.66667/bw/001.png","","","appealing"
"","","","","","animation","349","4265162","0.0-349.0","1920x1080","","2332.5999999996275","88.36","img/117/4.5/0.66667/bw/001.png","","","appealing"
"","","","","","animation","350","4268798","0.0-350.0","1920x1080","","3634.5999999996275","68.65","img/238/4/1.5/bw/001.png","","","appealing"
"","","","","","animation","351","4271362","0.0-351.0","1920x1080","","2562.7999999998137","49.34","img/117/4/0.66667/bw/001.png","","","appealing"
"","","","","","animation","352","4276897","0.0-352.0","1920x1080","","5534","66.93","img/238/2.5/0.66667/bw/001.png","","","appealing"
"","","","","","animation","353","4280562","0.0-353.0","1920x1080","","3663.4000000003725","68.39","img/238/2.5/1.5/bw/001.png","","","appealing"
"","","","","","animation","354","4285645","0.0-354.0","1920x1080","","5081","68.78","img/314/5.5/1.5/bw/001.png","","","appealing"
"","","","","","animation","355","4290252","0.0-355.0","1920x1080","","4606.9000000003725","35.32","img/117/4/0.5/bw/001.png","","","appealing"
"","","","","","animation","356","4295227","0.0-356.0","1920x1080","","4973.799999999814","24.74","img/314/5.5/0.5/bw/001.png","","","appealing"
"","","","","","animation","357","4306679","0.0-357.0","1920x1080","","11449.899999999441","57.67","img/314/4/1.5/bw/001.png","","","appealing"
"","","","","","animation","358","4309464","0.0-358.0","1920x1080","","2779.5","67.33","img/238/2.5/1/bw/001.png","","","appealing"
"","","","","","animation","359","4313538","0.0-359.0","1920x1080","","4072.5999999996275","66.80","img/314/4.5/1.5/bw/001.png","","","appealing"
"","","","","","animation","360","4317033","0.0-360.0","1920x1080","","3492.7999999998137","50.79","img/314/3.5/1.5/bw/001.png","","","appealing"
"","","","","","animation","361","4320633","0.0-361.0","1920x1080","","3598.7000000001863","72.62","img/117/2.5/1.5/bw/001.png","","","appealing"
"","","","","","animation","362","4323257","0.0-362.0","1920x1080","","2622.5999999996275","53.70","img/117/4/1.5/bw/001.png","","","appealing"
"","","","","","animation","363","4327440","0.0-363.0","1920x1080","","4182.100000000559","31.88","img/314/3.5/2/bw/001.png","","","appealing"
"","","","","","animation","364","4332605","0.0-364.0","1920x1080","","5163.200000000186","86.51","img/117/5.5/1/bw/001.png","","","appealing"
"","","","","","animation","365","4335780","0.0-365.0","1920x1080","","3172.7999999998137","21.16","img/238/3.5/2/bw/001.png","","","appealing"
"","","","","","animation","366","4339778","0.0-366.0","1920x1080","","3996.9000000003725","19.31","img/117/3.5/1/bw/001.png","","","appealing"
"","","","","","animation","367","4342906","0.0-367.0","1920x1080","","3126.2999999998137","67.33","img/117/2.5/2/bw/001.png","","","appealing"
"","","","","","animation","368","4349319","0.0-368.0","1920x1080","","6424","24.07","img/238/3.5/0.5/bw/001.png","","","appealing"
"","","","","","animation","369","4352817","0.0-369.0","1920x1080","","3496.699999999255","33","img/314/4.5/0.5/bw/001.png","","","appealing"
"","","","","","animation","370","4355909","0.0-370.0","1920x1080","","3090.600000000559","20.63","img/117/3.5/1.5/bw/001.png","","","appealing"
"","","","","","animation","371","4358641","0.0-371.0","1920x1080","","2729.800000000745","20","img/314/4/0.66667/bw/001.png","","","appealing"
"","","","","","animation","372","4361789","0.0-372.0","1920x1080","","3146.600000000559","36.38","img/117/5.5/1.5/bw/001.png","","","appealing"
"","","","","","animation","373","4365951","0.0-373.0","1920x1080","","4161.0999999996275","23.81","img/238/5.5/0.5/bw/001.png","","","appealing"
"","","","","","animation","374","4369683","0.0-374.0","1920x1080","","3729.7000000001863","23.68","img/238/4/0.66667/bw/001.png","","","appealing"
"","","","","","animation","375","4373653","0.0-375.0","1920x1080","","3968.5","20.50","img/314/3.5/0.66667/bw/001.png","","","appealing"
"","","","","","animation","376","4379025","0.0-376.0","1920x1080","","5370.5999999996275","14.68","img/238/4.5/2/bw/001.png","","","appealing"
"","","","","","animation","377","4385117","0.0-377.0","1920x1080","","6089.800000000745","24","img/117/5.5/2/bw/001.png","","","appealing"
"","","","","","animation","378","4391119","0.0-378.0","1920x1080","","5998.5999999996275","64.29","img/238/4.5/0.5/bw/001.png","","","appealing"
"","","","","","animation","379","4393621","0.0-379.0","1920x1080","","2500.4000000003725","54.10","img/117/4.5/1/bw/001.png","","","appealing"
"","","","","","animation","380","4399089","0.0-380.0","1920x1080","","5466.5","26.46","img/314/5.5/0.66667/bw/001.png","","","appealing"
"","","","","","animation","381","4404133","0.0-381.0","1920x1080","","5042.4000000003725","23.41","img/238/4/0.5/bw/001.png","","","appealing"
"","","","","","animation","382","4407382","0.0-382.0","1920x1080","","3247.5999999996275","16","img/314/3.5/0.5/bw/001.png","","","appealing"
"","","","","","animation","383","4409286","0.0-383.0","1920x1080","","1904.800000000745","17.46","img/238/3.5/0.66667/bw/001.png","","","appealing"
"","","","","","animation","384","4416013","0.0-384.0","1920x1080","","6725.700000000186","45.50","img/314/5.5/1/bw/001.png","","","appealing"
"","","","","","animation","385","4419866","0.0-385.0","1920x1080","","3851","27.51","img/238/4.5/1.5/bw/001.png","","","appealing"
"","","","","","animation","386","4422819","0.0-386.0","1920x1080","","2951.100000000559","27.12","img/117/4.5/2/bw/001.png","","","appealing"
"","","","","","animation","387","4425548","0.0-387.0","1920x1080","","2727.4000000003725","27.65","img/314/5.5/2/bw/001.png","","","appealing"
"","","","","","animation","388","4429300","0.0-388.0","1920x1080","","3750","64.02","img/314/2.5/1.5/bw/001.png","","","appealing"
"","","","","","animation","389","4433440","0.0-389.0","1920x1080","","4138.0999999996275","28","img/314/4/1/bw/001.png","","","appealing"
"","","","","","html-button-response","390","4446014","0.0-390.0","1920x1080","","12572.099999999627","","<strong>Study Debriefing</strong><br><p class=""debrief""><strong>Background:</strong> The patterns you rated are called <em>fractals</em>. The term fractal describes a class of irregular curves or shapes for which any suitably chosen part is similar in shape to a given larger or smaller part when magnified or reduced to the same size. Fractal properties are found throughout the natural and manmade world. The series of animations you saw today displayed animated fractal patterns of a varying complexity.</p><p class=""debrief""><strong>Purpose of this study:</strong> We hope to better understand how the perception of static fractals differs from the perception of animated fractals, and how the speed of the animated patterns influences people&apos;s perception of them. Fractals allow us to study the perception of aesthetic properties (e.g. the perceived level of beauty in an image) without using recognizable content, which makes them an excellent tool for studying abstract aesthetic judgement.</p><p class=""debrief""><strong>Your part:</strong> Your participation has helped us to further understand how humans perceive these patterns across different levels of speed and complexity. This research with allow us to better understand how the visual system and brain process our ever-changing visual environments.<p class=""debrief""><strong>Feedback and Further information:</strong> If you have additional questions about this study, please feel free to ask the researcher, Nathan Gonzales-Hess at nhess @ uoregon.edu. If you have any questions concerning your rights as a research participant, please contact Research Compliance Services, 5237 University of Oregon, Eugene, OR 97403, 541-346-2510, or email researchCompliance @ uoregon.edu. You can also email the Human Subjects Coordinator for psychology and linguistics research at hscoord @ uoregon.edu. ","0","",""
"","","","","","html-button-response","391","4450013","0.0-391.0","1920x1080","","3996.100000000559","","Thank you for participating in this study. <br>Please click below to finish the experiment and submit your responses.<br><br>","0","",""
"true","","","","","fullscreen","392","4451021","0.0-392.0","1920x1080","12:45 31/10/2022","","","","","",""
