"success","timeout","failed_images","failed_audio","failed_video","trial_type","trial_index","time_elapsed","internal_node_id","resolution","timeStamp","rt","response","stimulus","button_pressed","value","descriptor"
"true","false","[]","[]","[]","preload","0","5967","0.0-0.0","1920x1080","","","","","","",""
"true","false","[]","[]","[]","preload","1","12234","0.0-1.0","1920x1080","","","","","","",""
"true","false","[]","[]","[]","preload","2","18135","0.0-2.0","1920x1080","","","","","","",""
"true","","","","","fullscreen","3","729278","0.0-3.0","1920x1080","13:19 3/11/2022","","","","","",""
"","","","","","survey-html-form","4","740710","0.0-4.0","1920x1080","","11423.79999999702","{""age"":""18"",""gender"":""female""}","","","",""
"","","","","","html-button-response","5","839694","0.0-5.0","1920x1080","","98982.90000000596","","<div class=""complex"">You are going to see a series of animations.<br><br></div><div class=""complex"">Move the slider to indicate how <strong style=""text-transform:capitalize"">COMPLEX</strong> you find each animation.<br><br></div><div class=""complex"">0 = Least Complex<br></div><div class=""complex"">1 = Most Complex<br><br></div><div class=""complex"">Remember to use the <strong><em>entire range</em></strong> of the slider to make your ratings.<br></div><div class=""complex"">Please <strong><em>take your time</em></strong> and carefully consider each rating you make.<br><br></div><div class=""complex"">The study has five sections and will take about 45 minutes to complete.<br><br></div>","0","",""
"","","","","","call-function","6","839695","0.0-6.0","1920x1080","","","","","","",""
"","","","","","animation","7","888198","0.0-7.0","1920x1080","","48502.09999999404","15.34","img/314/4.5/1.5/bw/001.png","","","complex"
"","","","","","animation","8","897446","0.0-8.0","1920x1080","","9246.5","85.85","img/314/3.5/2/bw/001.png","","","complex"
"","","","","","animation","9","905983","0.0-9.0","1920x1080","","8535.699999988079","45.11","img/238/4/1.5/bw/001.png","","","complex"
"","","","","","animation","10","934886","0.0-10.0","1920x1080","","28902.20000000298","5.95","img/117/5.5/1.5/bw/001.png","","","complex"
"","","","","","animation","11","944870","0.0-11.0","1920x1080","","9983","94.97","img/314/3.5/1.5/bw/001.png","","","complex"
"","","","","","animation","12","955646","0.0-12.0","1920x1080","","10775.699999988079","100","img/117/2.5/2/bw/001.png","","","complex"
"","","","","","animation","13","962190","0.0-13.0","1920x1080","","6543","100","img/314/2.5/1/bw/001.png","","","complex"
"","","","","","animation","14","987677","0.0-14.0","1920x1080","","25486.79999999702","31.61","img/117/4/2/bw/001.png","","","complex"
"","","","","","animation","15","992622","0.0-15.0","1920x1080","","4943.20000000298","100","img/238/2.5/2/bw/001.png","","","complex"
"","","","","","animation","16","998366","0.0-16.0","1920x1080","","5743.29999999702","0","img/238/5.5/2/bw/001.png","","","complex"
"","","","","","animation","17","1009542","0.0-17.0","1920x1080","","11174.89999999106","42.72","img/314/5.5/0.5/bw/001.png","","","complex"
"","","","","","animation","18","1028254","0.0-18.0","1920x1080","","18711.09999999404","56.75","img/238/4.5/1/bw/001.png","","","complex"
"","","","","","animation","19","1056718","0.0-19.0","1920x1080","","28463.09999999404","24.21","img/238/4.5/2/bw/001.png","","","complex"
"","","","","","animation","20","1061510","0.0-20.0","1920x1080","","4791.5","100","img/314/2.5/2/bw/001.png","","","complex"
"","","","","","animation","21","1066342","0.0-21.0","1920x1080","","4830.79999999702","100","img/238/2.5/0.5/bw/001.png","","","complex"
"","","","","","animation","22","1072446","0.0-22.0","1920x1080","","6103.5999999940395","90.61","img/314/3.5/0.5/bw/001.png","","","complex"
"","","","","","animation","23","1085157","0.0-23.0","1920x1080","","12711","0","img/117/5.5/2/bw/001.png","","","complex"
"","","","","","animation","24","1092382","0.0-24.0","1920x1080","","7223.100000008941","36.38","img/314/4/2/bw/001.png","","","complex"
"","","","","","animation","25","1095749","0.0-25.0","1920x1080","","3366.2999999970198","93.25","img/117/2.5/1.5/bw/001.png","","","complex"
"","","","","","animation","26","1124205","0.0-26.0","1920x1080","","28455.59999999404","58.99","img/314/4/1/bw/001.png","","","complex"
"","","","","","animation","27","1128254","0.0-27.0","1920x1080","","4047.7999999970198","100","img/238/2.5/0.66667/bw/001.png","","","complex"
"","","","","","animation","28","1133885","0.0-28.0","1920x1080","","5630.699999988079","77.91","img/238/3.5/2/bw/001.png","","","complex"
"","","","","","animation","29","1149438","0.0-29.0","1920x1080","","15551.5","29.50","img/117/4.5/1.5/bw/001.png","","","complex"
"","","","","","animation","30","1154582","0.0-30.0","1920x1080","","5143","82.94","img/314/3.5/0.66667/bw/001.png","","","complex"
"","","","","","animation","31","1164286","0.0-31.0","1920x1080","","9703.199999988079","31","img/117/4.5/2/bw/001.png","","","complex"
"","","","","","animation","32","1169422","0.0-32.0","1920x1080","","5135.0999999940395","0.53","img/314/5.5/2/bw/001.png","","","complex"
"","","","","","animation","33","1178710","0.0-33.0","1920x1080","","9287.199999988079","58.99","img/117/4/1.5/bw/001.png","","","complex"
"","","","","","animation","34","1187094","0.0-34.0","1920x1080","","8383.39999999106","87","img/238/4/0.66667/bw/001.png","","","complex"
"","","","","","animation","35","1191949","0.0-35.0","1920x1080","","4854.899999991059","88.10","img/314/4.5/0.5/bw/001.png","","","complex"
"","","","","","animation","36","1200573","0.0-36.0","1920x1080","","8623.5","3.17","img/238/5.5/0.5/bw/001.png","","","complex"
"","","","","","animation","37","1210878","0.0-37.0","1920x1080","","10303.70000000298","91.40","img/238/4/0.5/bw/001.png","","","complex"
"","","","","","animation","38","1237917","0.0-38.0","1920x1080","","27038.60000000894","5.95","img/314/5.5/0.66667/bw/001.png","","","complex"
"","","","","","animation","39","1242933","0.0-39.0","1920x1080","","5015.5999999940395","84","img/117/3.5/0.66667/bw/001.png","","","complex"
"","","","","","animation","40","1249582","0.0-40.0","1920x1080","","6648.70000000298","50.53","img/238/4.5/0.5/bw/001.png","","","complex"
"","","","","","animation","41","1262790","0.0-41.0","1920x1080","","13206","13","img/238/5.5/0.66667/bw/001.png","","","complex"
"","","","","","animation","42","1267358","0.0-42.0","1920x1080","","4567.0999999940395","53","img/314/3.5/1/bw/001.png","","","complex"
"","","","","","animation","43","1281094","0.0-43.0","1920x1080","","13735.5","0","img/314/5.5/1/bw/001.png","","","complex"
"","","","","","animation","44","1284342","0.0-44.0","1920x1080","","3247","100","img/238/2.5/1/bw/001.png","","","complex"
"","","","","","animation","45","1290486","0.0-45.0","1920x1080","","6143.100000008941","64.42","img/238/3.5/1/bw/001.png","","","complex"
"","","","","","animation","46","1294190","0.0-46.0","1920x1080","","3703.4000000059605","100","img/238/2.5/1.5/bw/001.png","","","complex"
"","","","","","animation","47","1298678","0.0-47.0","1920x1080","","4487","63.62","img/238/3.5/1.5/bw/001.png","","","complex"
"","","","","","animation","48","1303366","0.0-48.0","1920x1080","","4687.100000008941","100","img/117/2.5/0.66667/bw/001.png","","","complex"
"","","","","","animation","49","1315158","0.0-49.0","1920x1080","","11791","67.06","img/117/3.5/1.5/bw/001.png","","","complex"
"","","","","","animation","50","1328374","0.0-50.0","1920x1080","","13214.79999999702","0.40","img/238/5.5/1.5/bw/001.png","","","complex"
"","","","","","animation","51","1343126","0.0-51.0","1920x1080","","14750.89999999106","24.87","img/238/4.5/1.5/bw/001.png","","","complex"
"","","","","","animation","52","1347615","0.0-52.0","1920x1080","","4488.29999999702","38.49","img/117/5.5/0.5/bw/001.png","","","complex"
"","","","","","animation","53","1354118","0.0-53.0","1920x1080","","6501.4000000059605","42.06","img/314/4.5/1/bw/001.png","","","complex"
"","","","","","animation","54","1357478","0.0-54.0","1920x1080","","3359.2000000029802","53.04","img/117/4/1/bw/001.png","","","complex"
"","","","","","animation","55","1360606","0.0-55.0","1920x1080","","3127.0999999940395","99","img/314/2.5/0.66667/bw/001.png","","","complex"
"","","","","","animation","56","1365326","0.0-56.0","1920x1080","","4718.600000008941","63.49","img/117/3.5/2/bw/001.png","","","complex"
"","","","","","animation","57","1370102","0.0-57.0","1920x1080","","4774.5999999940395","100","img/117/3.5/0.5/bw/001.png","","","complex"
"","","","","","animation","58","1374566","0.0-58.0","1920x1080","","4463.5","85","img/117/4/0.5/bw/001.png","","","complex"
"","","","","","animation","59","1379838","0.0-59.0","1920x1080","","5270.5","47.88","img/117/4.5/0.66667/bw/001.png","","","complex"
"","","","","","animation","60","1383049","0.0-60.0","1920x1080","","3209.9000000059605","55.03","img/117/3.5/1/bw/001.png","","","complex"
"","","","","","animation","61","1397599","0.0-61.0","1920x1080","","14549.29999999702","51","img/238/4.5/0.66667/bw/001.png","","","complex"
"","","","","","animation","62","1406702","0.0-62.0","1920x1080","","9101.90000000596","62","img/314/4/0.5/bw/001.png","","","complex"
"","","","","","animation","63","1412286","0.0-63.0","1920x1080","","5583.399999991059","22.62","img/117/5.5/0.66667/bw/001.png","","","complex"
"","","","","","animation","64","1417838","0.0-64.0","1920x1080","","5550.9000000059605","75.66","img/238/3.5/0.66667/bw/001.png","","","complex"
"","","","","","animation","65","1424118","0.0-65.0","1920x1080","","6278.79999999702","2.91","img/314/5.5/1.5/bw/001.png","","","complex"
"","","","","","animation","66","1427390","0.0-66.0","1920x1080","","3271.3999999910593","42.72","img/314/4/0.66667/bw/001.png","","","complex"
"","","","","","animation","67","1431518","0.0-67.0","1920x1080","","4126.20000000298","100","img/117/2.5/0.5/bw/001.png","","","complex"
"","","","","","animation","68","1454342","0.0-68.0","1920x1080","","22823.59999999404","60.05","img/117/4/0.66667/bw/001.png","","","complex"
"","","","","","animation","69","1461326","0.0-69.0","1920x1080","","6982.9000000059605","41","img/117/4.5/1/bw/001.png","","","complex"
"","","","","","animation","70","1466670","0.0-70.0","1920x1080","","5343","12.96","img/117/5.5/1/bw/001.png","","","complex"
"","","","","","animation","71","1469533","0.0-71.0","1920x1080","","2862.9000000059605","99","img/117/2.5/1/bw/001.png","","","complex"
"","","","","","animation","72","1472533","0.0-72.0","1920x1080","","2998.8999999910593","100","img/314/2.5/0.5/bw/001.png","","","complex"
"","","","","","animation","73","1481431","0.0-73.0","1920x1080","","8897.09999999404","74","img/117/4.5/0.5/bw/001.png","","","complex"
"","","","","","animation","74","1486190","0.0-74.0","1920x1080","","4757.5999999940395","65.48","img/314/4/1.5/bw/001.png","","","complex"
"","","","","","animation","75","1497165","0.0-75.0","1920x1080","","10974.70000000298","50","img/314/4.5/0.66667/bw/001.png","","","complex"
"","","","","","animation","76","1510048","0.0-76.0","1920x1080","","12882.09999999404","43.52","img/314/4.5/2/bw/001.png","","","complex"
"","","","","","animation","77","1513333","0.0-77.0","1920x1080","","3284.2000000029802","53","img/238/4/1/bw/001.png","","","complex"
"","","","","","animation","78","1523910","0.0-78.0","1920x1080","","10575.20000000298","1","img/238/5.5/1/bw/001.png","","","complex"
"","","","","","animation","79","1527654","0.0-79.0","1920x1080","","3743.2999999970198","97","img/314/2.5/1.5/bw/001.png","","","complex"
"","","","","","animation","80","1534149","0.0-80.0","1920x1080","","6494.399999991059","88.10","img/238/3.5/0.5/bw/001.png","","","complex"
"","","","","","animation","81","1540465","0.0-81.0","1920x1080","","6314.800000011921","45.24","img/238/4/2/bw/001.png","","","complex"
"","","","","","html-button-response","82","1560183","0.0-82.0","1920x1080","","19716.10000000894","","<div class=""intro"">You are about to view a new series of animations.<br><br></div><div class=""intro"">You will evaluate them based on a different descriptor.<br><br></div><div class=""intro"">Move the slider to indicate how <strong style=""text-transform:capitalize"">NATURAL</strong> you find each animation.<br><br></div><div class=""intro"">0 = Least Natural<br></div><div class=""intro"">1 = Most Natural<br><br></div><div class=""intro"">Remember to use the <strong><em>entire range</em></strong> of the slider to make your ratings.<br></div><div class=""intro"">Please <strong><em>take your time</em></strong> and carefully consider each rating you make.<br><br></div>","0","",""
"","","","","","call-function","83","1560184","0.0-83.0","1920x1080","","","","","","",""
"","","","","","animation","84","1579534","0.0-84.0","1920x1080","","19349.5","22","img/117/3.5/0.66667/bw/001.png","","","natural"
"","","","","","animation","85","1586934","0.0-85.0","1920x1080","","7399.199999988079","86.11","img/117/5.5/1.5/bw/001.png","","","natural"
"","","","","","animation","86","1591142","0.0-86.0","1920x1080","","4207.29999999702","0.40","img/314/2.5/0.66667/bw/001.png","","","natural"
"","","","","","animation","87","1599282","0.0-87.0","1920x1080","","8138.600000008941","24.87","img/238/3.5/2/bw/001.png","","","natural"
"","","","","","animation","88","1603822","0.0-88.0","1920x1080","","4539.29999999702","41.27","img/238/4/1/bw/001.png","","","natural"
"","","","","","animation","89","1609238","0.0-89.0","1920x1080","","5414.800000011921","3.44","img/117/2.5/1.5/bw/001.png","","","natural"
"","","","","","animation","90","1616422","0.0-90.0","1920x1080","","7183.0999999940395","55.29","img/314/4.5/1/bw/001.png","","","natural"
"","","","","","animation","91","1620198","0.0-91.0","1920x1080","","3774.7000000029802","0.53","img/314/2.5/0.5/bw/001.png","","","natural"
"","","","","","animation","92","1625134","0.0-92.0","1920x1080","","4934.800000011921","63.89","img/238/4.5/1/bw/001.png","","","natural"
"","","","","","animation","93","1636648","0.0-93.0","1920x1080","","11512.60000000894","93.65","img/117/4.5/2/bw/001.png","","","natural"
"","","","","","animation","94","1643431","0.0-94.0","1920x1080","","6782.100000008941","51.72","img/314/5.5/0.5/bw/001.png","","","natural"
"","","","","","animation","95","1651480","0.0-95.0","1920x1080","","8048.800000011921","45.11","img/117/5.5/0.5/bw/001.png","","","natural"
"","","","","","animation","96","1655622","0.0-96.0","1920x1080","","4141","100","img/314/5.5/1.5/bw/001.png","","","natural"
"","","","","","animation","97","1661648","0.0-97.0","1920x1080","","6025.4000000059605","30.95","img/238/4.5/0.5/bw/001.png","","","natural"
"","","","","","animation","98","1667358","0.0-98.0","1920x1080","","5708.79999999702","8.73","img/238/4/0.5/bw/001.png","","","natural"
"","","","","","animation","99","1673974","0.0-99.0","1920x1080","","6614.79999999702","13.49","img/117/2.5/2/bw/001.png","","","natural"
"","","","","","animation","100","1678302","0.0-100.0","1920x1080","","4326.5","8.07","img/314/3.5/1/bw/001.png","","","natural"
"","","","","","animation","101","1681350","0.0-101.0","1920x1080","","3046.5999999940395","51.98","img/238/4/2/bw/001.png","","","natural"
"","","","","","animation","102","1726974","0.0-102.0","1920x1080","","45623.39999999106","34.79","img/314/4/0.66667/bw/001.png","","","natural"
"","","","","","animation","103","1731454","0.0-103.0","1920x1080","","4478.5999999940395","26.06","img/238/4/0.66667/bw/001.png","","","natural"
"","","","","","animation","104","1734222","0.0-104.0","1920x1080","","2766.7000000029802","1.59","img/117/2.5/1/bw/001.png","","","natural"
"","","","","","animation","105","1736864","0.0-105.0","1920x1080","","2639.5","3","img/314/2.5/2/bw/001.png","","","natural"
"","","","","","animation","106","1740697","0.0-106.0","1920x1080","","3832","56.88","img/314/4/1.5/bw/001.png","","","natural"
"","","","","","animation","107","1743582","0.0-107.0","1920x1080","","2883.7000000029802","0","img/117/2.5/0.66667/bw/001.png","","","natural"
"","","","","","animation","108","1746918","0.0-108.0","1920x1080","","3335","5.03","img/117/3.5/1/bw/001.png","","","natural"
"","","","","","animation","109","1749806","0.0-109.0","1920x1080","","2887.2000000029802","2.91","img/314/2.5/1.5/bw/001.png","","","natural"
"","","","","","animation","110","1753998","0.0-110.0","1920x1080","","4190.79999999702","99","img/117/5.5/1/bw/001.png","","","natural"
"","","","","","animation","111","1756664","0.0-111.0","1920x1080","","2664.800000011921","1.98","img/238/2.5/1/bw/001.png","","","natural"
"","","","","","animation","112","1760406","0.0-112.0","1920x1080","","3741.7999999970198","87.04","img/314/4.5/2/bw/001.png","","","natural"
"","","","","","animation","113","1765914","0.0-113.0","1920x1080","","5506.300000011921","99","img/238/5.5/1.5/bw/001.png","","","natural"
"","","","","","animation","114","1769414","0.0-114.0","1920x1080","","3499.7999999970198","71.16","img/314/3.5/2/bw/001.png","","","natural"
"","","","","","animation","115","1773298","0.0-115.0","1920x1080","","3882.2000000029802","2.65","img/238/2.5/0.66667/bw/001.png","","","natural"
"","","","","","animation","116","1780566","0.0-116.0","1920x1080","","7267.20000000298","95","img/117/5.5/2/bw/001.png","","","natural"
"","","","","","animation","117","1792448","0.0-117.0","1920x1080","","11880.90000000596","72.88","img/117/4.5/1.5/bw/001.png","","","natural"
"","","","","","animation","118","1797486","0.0-118.0","1920x1080","","5037.5","23.15","img/238/3.5/1/bw/001.png","","","natural"
"","","","","","animation","119","1803299","0.0-119.0","1920x1080","","5811","99","img/238/5.5/2/bw/001.png","","","natural"
"","","","","","animation","120","1807807","0.0-120.0","1920x1080","","4506.899999991059","52.91","img/314/4/2/bw/001.png","","","natural"
"","","","","","animation","121","1821743","0.0-121.0","1920x1080","","13934.70000000298","33.20","img/117/3.5/2/bw/001.png","","","natural"
"","","","","","animation","122","1839582","0.0-122.0","1920x1080","","17838.09999999404","37.43","img/238/3.5/1.5/bw/001.png","","","natural"
"","","","","","animation","123","1843281","0.0-123.0","1920x1080","","3697.5","17.72","img/117/4.5/0.5/bw/001.png","","","natural"
"","","","","","animation","124","1848031","0.0-124.0","1920x1080","","4749.79999999702","100","img/314/5.5/2/bw/001.png","","","natural"
"","","","","","animation","125","1855823","0.0-125.0","1920x1080","","7789.70000000298","54","img/238/5.5/0.5/bw/001.png","","","natural"
"","","","","","animation","126","1866607","0.0-126.0","1920x1080","","10782.59999999404","66.53","img/314/5.5/1/bw/001.png","","","natural"
"","","","","","animation","127","1870982","0.0-127.0","1920x1080","","4374.5","0","img/314/2.5/1/bw/001.png","","","natural"
"","","","","","animation","128","1875347","0.0-128.0","1920x1080","","4363.5","63","img/117/5.5/0.66667/bw/001.png","","","natural"
"","","","","","animation","129","1880502","0.0-129.0","1920x1080","","5154.899999991059","22.88","img/117/3.5/0.5/bw/001.png","","","natural"
"","","","","","animation","130","1883998","0.0-130.0","1920x1080","","3494.2999999970198","49.21","img/238/4.5/1.5/bw/001.png","","","natural"
"","","","","","animation","131","1896319","0.0-131.0","1920x1080","","12319.5","14.42","img/314/3.5/0.5/bw/001.png","","","natural"
"","","","","","animation","132","1900703","0.0-132.0","1920x1080","","4383","49.47","img/238/4/1.5/bw/001.png","","","natural"
"","","","","","animation","133","1904131","0.0-133.0","1920x1080","","3427.699999988079","10.71","img/238/3.5/0.5/bw/001.png","","","natural"
"","","","","","animation","134","1907702","0.0-134.0","1920x1080","","3570.5","7.54","img/238/3.5/0.66667/bw/001.png","","","natural"
"","","","","","animation","135","2042950","0.0-135.0","1920x1080","","135246.79999999702","90","img/238/4.5/2/bw/001.png","","","natural"
"","","","","","animation","136","2057535","0.0-136.0","1920x1080","","14583.199999988079","44.18","img/314/4.5/0.66667/bw/001.png","","","natural"
"","","","","","animation","137","2062471","0.0-137.0","1920x1080","","4934.79999999702","6.35","img/238/2.5/1.5/bw/001.png","","","natural"
"","","","","","animation","138","2073529","0.0-138.0","1920x1080","","11058","33.60","img/117/4/0.66667/bw/001.png","","","natural"
"","","","","","animation","139","2078313","0.0-139.0","1920x1080","","4782","69.71","img/117/4.5/0.66667/bw/001.png","","","natural"
"","","","","","animation","140","2133214","0.0-140.0","1920x1080","","54899.59999999404","58.07","img/314/3.5/1.5/bw/001.png","","","natural"
"","","","","","animation","141","2137762","0.0-141.0","1920x1080","","4547.20000000298","23","img/314/4.5/0.5/bw/001.png","","","natural"
"","","","","","animation","142","2141963","0.0-142.0","1920x1080","","4199.70000000298","50.66","img/117/4/1.5/bw/001.png","","","natural"
"","","","","","animation","143","2145079","0.0-143.0","1920x1080","","3114.9000000059605","52.51","img/117/4.5/1/bw/001.png","","","natural"
"","","","","","animation","144","2148646","0.0-144.0","1920x1080","","3565.2999999970198","14.68","img/314/3.5/0.66667/bw/001.png","","","natural"
"","","","","","animation","145","2152519","0.0-145.0","1920x1080","","3871.5999999940395","80.56","img/314/5.5/0.66667/bw/001.png","","","natural"
"","","","","","animation","146","2161196","0.0-146.0","1920x1080","","8676","95","img/238/5.5/1/bw/001.png","","","natural"
"","","","","","animation","147","2169967","0.0-147.0","1920x1080","","8769.90000000596","33.99","img/117/4/1/bw/001.png","","","natural"
"","","","","","animation","148","2179150","0.0-148.0","1920x1080","","9182.70000000298","15.21","img/117/4/0.5/bw/001.png","","","natural"
"","","","","","animation","149","2186195","0.0-149.0","1920x1080","","7042.0999999940395","30.29","img/117/3.5/1.5/bw/001.png","","","natural"
"","","","","","animation","150","2310595","0.0-150.0","1920x1080","","124398.59999999404","65.74","img/314/4/1/bw/001.png","","","natural"
"","","","","","animation","151","2317478","0.0-151.0","1920x1080","","6882","71.43","img/117/4/2/bw/001.png","","","natural"
"","","","","","animation","152","2320135","0.0-152.0","1920x1080","","2655.8999999910593","28.70","img/238/2.5/2/bw/001.png","","","natural"
"","","","","","animation","153","2327238","0.0-153.0","1920x1080","","7102.5","67.59","img/314/4.5/1.5/bw/001.png","","","natural"
"","","","","","animation","154","2332703","0.0-154.0","1920x1080","","5462.79999999702","12.96","img/314/4/0.5/bw/001.png","","","natural"
"","","","","","animation","155","2338687","0.0-155.0","1920x1080","","5982.79999999702","35.32","img/238/4.5/0.66667/bw/001.png","","","natural"
"","","","","","animation","156","2343684","0.0-156.0","1920x1080","","4996.5999999940395","0","img/117/2.5/0.5/bw/001.png","","","natural"
"","","","","","animation","157","2355678","0.0-157.0","1920x1080","","11992","98","img/238/5.5/0.66667/bw/001.png","","","natural"
"","","","","","animation","158","2362777","0.0-158.0","1920x1080","","7098.4000000059605","0","img/238/2.5/0.5/bw/001.png","","","natural"
"","","","","","html-button-response","159","2384279","0.0-159.0","1920x1080","","21500.20000000298","","<div class=""intro"">You are about to view a new series of animations.<br><br></div><div class=""intro"">You will evaluate them based on a different descriptor.<br><br></div><div class=""intro"">Move the slider to indicate how <strong style=""text-transform:capitalize"">APPEALING</strong> you find each animation.<br><br></div><div class=""intro"">0 = Least Appealing<br></div><div class=""intro"">1 = Most Appealing<br><br></div><div class=""intro"">Remember to use the <strong><em>entire range</em></strong> of the slider to make your ratings.<br></div><div class=""intro"">Please <strong><em>take your time</em></strong> and carefully consider each rating you make.<br><br></div>","0","",""
"","","","","","call-function","160","2384280","0.0-160.0","1920x1080","","","","","","",""
"","","","","","animation","161","2476510","0.0-161.0","1920x1080","","92228.90000000596","82.94","img/314/5.5/1/bw/001.png","","","appealing"
"","","","","","animation","162","2484598","0.0-162.0","1920x1080","","8084.899999991059","74.74","img/238/5.5/2/bw/001.png","","","appealing"
"","","","","","animation","163","2489343","0.0-163.0","1920x1080","","4743.70000000298","49.07","img/238/4/2/bw/001.png","","","appealing"
"","","","","","animation","164","2493062","0.0-164.0","1920x1080","","3718","24.74","img/314/4/0.5/bw/001.png","","","appealing"
"","","","","","animation","165","2499286","0.0-165.0","1920x1080","","6223.20000000298","33.86","img/238/5.5/0.5/bw/001.png","","","appealing"
"","","","","","animation","166","2505950","0.0-166.0","1920x1080","","6662.5","19","img/314/4.5/1/bw/001.png","","","appealing"
"","","","","","animation","167","2511262","0.0-167.0","1920x1080","","5310.5999999940395","73.28","img/238/4.5/1.5/bw/001.png","","","appealing"
"","","","","","animation","168","2523335","0.0-168.0","1920x1080","","12071","64.55","img/314/5.5/2/bw/001.png","","","appealing"
"","","","","","animation","169","2526799","0.0-169.0","1920x1080","","3463","18.25","img/314/3.5/0.66667/bw/001.png","","","appealing"
"","","","","","animation","170","2534110","0.0-170.0","1920x1080","","7310.5","45.90","img/314/4/2/bw/001.png","","","appealing"
"","","","","","animation","171","2537646","0.0-171.0","1920x1080","","3535","84.66","img/117/4.5/2/bw/001.png","","","appealing"
"","","","","","animation","172","2543894","0.0-172.0","1920x1080","","6246.9000000059605","63.36","img/314/4.5/1.5/bw/001.png","","","appealing"
"","","","","","animation","173","2548903","0.0-173.0","1920x1080","","5007.29999999702","0","img/238/2.5/0.5/bw/001.png","","","appealing"
"","","","","","animation","174","2578087","0.0-174.0","1920x1080","","29180.70000000298","71.83","img/238/5.5/1/bw/001.png","","","appealing"
"","","","","","animation","175","2581660","0.0-175.0","1920x1080","","3572.4000000059605","6.35","img/238/2.5/2/bw/001.png","","","appealing"
"","","","","","animation","176","2588510","0.0-176.0","1920x1080","","6848.9000000059605","66","img/238/5.5/1.5/bw/001.png","","","appealing"
"","","","","","animation","177","2591660","0.0-177.0","1920x1080","","3149.2999999970198","3","img/117/2.5/1.5/bw/001.png","","","appealing"
"","","","","","animation","178","2595198","0.0-178.0","1920x1080","","3537.300000011921","10.58","img/314/4.5/0.5/bw/001.png","","","appealing"
"","","","","","animation","179","2599318","0.0-179.0","1920x1080","","4118.899999991059","0.13","img/314/2.5/1.5/bw/001.png","","","appealing"
"","","","","","animation","180","2602343","0.0-180.0","1920x1080","","3023.300000011921","52.78","img/314/4.5/2/bw/001.png","","","appealing"
"","","","","","animation","181","2605043","0.0-181.0","1920x1080","","2699.3999999910593","0.00","img/238/2.5/1.5/bw/001.png","","","appealing"
"","","","","","animation","182","2613910","0.0-182.0","1920x1080","","8865.60000000894","43.52","img/117/4/1.5/bw/001.png","","","appealing"
"","","","","","animation","183","2618078","0.0-183.0","1920x1080","","4167.20000000298","27.51","img/238/4.5/0.5/bw/001.png","","","appealing"
"","","","","","animation","184","2622243","0.0-184.0","1920x1080","","4163.0999999940395","0","img/238/3.5/0.5/bw/001.png","","","appealing"
"","","","","","animation","185","2626102","0.0-185.0","1920x1080","","3858.3999999910593","1.59","img/117/4/1/bw/001.png","","","appealing"
"","","","","","animation","186","2631376","0.0-186.0","1920x1080","","5272.9000000059605","5.56","img/238/4.5/0.66667/bw/001.png","","","appealing"
"","","","","","animation","187","2638718","0.0-187.0","1920x1080","","7341.100000008941","4.50","img/314/3.5/1.5/bw/001.png","","","appealing"
"","","","","","animation","188","2642193","0.0-188.0","1920x1080","","3472.4000000059605","0","img/238/2.5/0.66667/bw/001.png","","","appealing"
"","","","","","animation","189","2650077","0.0-189.0","1920x1080","","7882.29999999702","39.42","img/117/5.5/0.66667/bw/001.png","","","appealing"
"","","","","","animation","190","2656383","0.0-190.0","1920x1080","","6305.399999991059","11.24","img/238/4/0.5/bw/001.png","","","appealing"
"","","","","","animation","191","2658977","0.0-191.0","1920x1080","","2592.4000000059605","0","img/314/2.5/0.66667/bw/001.png","","","appealing"
"","","","","","animation","192","2664471","0.0-192.0","1920x1080","","5493.70000000298","64.15","img/238/4.5/2/bw/001.png","","","appealing"
"","","","","","animation","193","2667878","0.0-193.0","1920x1080","","3405.4000000059605","0.79","img/117/3.5/0.5/bw/001.png","","","appealing"
"","","","","","animation","194","2671167","0.0-194.0","1920x1080","","3287.300000011921","0","img/238/3.5/0.66667/bw/001.png","","","appealing"
"","","","","","animation","195","2676367","0.0-195.0","1920x1080","","5198.70000000298","3.84","img/117/4.5/0.5/bw/001.png","","","appealing"
"","","","","","animation","196","2696199","0.0-196.0","1920x1080","","19830.40000000596","85.45","img/314/5.5/1.5/bw/001.png","","","appealing"
"","","","","","animation","197","2701110","0.0-197.0","1920x1080","","4910.600000008941","37.70","img/117/3.5/1.5/bw/001.png","","","appealing"
"","","","","","animation","198","2703677","0.0-198.0","1920x1080","","2564.9000000059605","6.48","img/117/2.5/2/bw/001.png","","","appealing"
"","","","","","animation","199","2711776","0.0-199.0","1920x1080","","8098.4000000059605","31.08","img/117/4.5/1/bw/001.png","","","appealing"
"","","","","","animation","200","2715246","0.0-200.0","1920x1080","","3469.0999999940395","49.34","img/117/5.5/0.5/bw/001.png","","","appealing"
"","","","","","animation","201","2725164","0.0-201.0","1920x1080","","9917.09999999404","24.74","img/238/4/1/bw/001.png","","","appealing"
"","","","","","animation","202","2815633","0.0-202.0","1920x1080","","90466.70000000298","57.28","img/238/3.5/1.5/bw/001.png","","","appealing"
"","","","","","animation","203","2839367","0.0-203.0","1920x1080","","23732.09999999404","45.11","img/314/5.5/0.66667/bw/001.png","","","appealing"
"","","","","","animation","204","2843879","0.0-204.0","1920x1080","","4510.800000011921","30.69","img/238/3.5/2/bw/001.png","","","appealing"
"","","","","","animation","205","2849383","0.0-205.0","1920x1080","","5503.29999999702","48","img/117/3.5/2/bw/001.png","","","appealing"
"","","","","","animation","206","2853151","0.0-206.0","1920x1080","","3767","0","img/314/3.5/0.5/bw/001.png","","","appealing"
"","","","","","animation","207","2861967","0.0-207.0","1920x1080","","8814.40000000596","61.90","img/117/5.5/2/bw/001.png","","","appealing"
"","","","","","animation","208","2864967","0.0-208.0","1920x1080","","2999","5","img/117/3.5/0.66667/bw/001.png","","","appealing"
"","","","","","animation","209","2892675","0.0-209.0","1920x1080","","27707.40000000596","46.96","img/238/4/1.5/bw/001.png","","","appealing"
"","","","","","animation","210","2896392","0.0-210.0","1920x1080","","3715.7000000029802","15.08","img/238/4/0.66667/bw/001.png","","","appealing"
"","","","","","animation","211","2900625","0.0-211.0","1920x1080","","4232.0999999940395","8.73","img/314/4/0.66667/bw/001.png","","","appealing"
"","","","","","animation","212","2907442","0.0-212.0","1920x1080","","6815.600000008941","5.42","img/117/3.5/1/bw/001.png","","","appealing"
"","","","","","animation","213","2917427","0.0-213.0","1920x1080","","9983.5","28.04","img/314/3.5/2/bw/001.png","","","appealing"
"","","","","","animation","214","2920630","0.0-214.0","1920x1080","","3202.1000000089407","0.13","img/117/2.5/0.5/bw/001.png","","","appealing"
"","","","","","animation","215","2923767","0.0-215.0","1920x1080","","3134.8999999910593","0","img/314/2.5/0.5/bw/001.png","","","appealing"
"","","","","","animation","216","2927815","0.0-216.0","1920x1080","","4046.7000000029802","40.08","img/238/4.5/1/bw/001.png","","","appealing"
"","","","","","animation","217","2930425","0.0-217.0","1920x1080","","2609.4000000059605","5.42","img/314/3.5/1/bw/001.png","","","appealing"
"","","","","","animation","218","2936246","0.0-218.0","1920x1080","","5820.29999999702","63.89","img/117/5.5/1/bw/001.png","","","appealing"
"","","","","","animation","219","2939408","0.0-219.0","1920x1080","","3160.7999999970198","57.80","img/117/4.5/0.66667/bw/001.png","","","appealing"
"","","","","","animation","220","2951625","0.0-220.0","1920x1080","","12215.40000000596","38.89","img/314/5.5/0.5/bw/001.png","","","appealing"
"","","","","","animation","221","2955742","0.0-221.0","1920x1080","","4115.399999991059","25.00","img/117/4/0.66667/bw/001.png","","","appealing"
"","","","","","animation","222","2958301","0.0-222.0","1920x1080","","2557.7999999970198","0.13","img/117/2.5/0.66667/bw/001.png","","","appealing"
"","","","","","animation","223","2962079","0.0-223.0","1920x1080","","3774.800000011921","73.68","img/117/4.5/1.5/bw/001.png","","","appealing"
"","","","","","animation","224","2967711","0.0-224.0","1920x1080","","5630.70000000298","38","img/314/4/1/bw/001.png","","","appealing"
"","","","","","animation","225","2976092","0.0-225.0","1920x1080","","8380.40000000596","66.01","img/238/5.5/0.66667/bw/001.png","","","appealing"
"","","","","","animation","226","2980359","0.0-226.0","1920x1080","","4264.399999991059","35","img/238/3.5/1/bw/001.png","","","appealing"
"","","","","","animation","227","2982743","0.0-227.0","1920x1080","","2383.2000000029802","0","img/314/2.5/1/bw/001.png","","","appealing"
"","","","","","animation","228","2985263","0.0-228.0","1920x1080","","2518.2999999970198","2.25","img/314/2.5/2/bw/001.png","","","appealing"
"","","","","","animation","229","2989976","0.0-229.0","1920x1080","","4711","70.24","img/117/4/2/bw/001.png","","","appealing"
"","","","","","animation","230","2993875","0.0-230.0","1920x1080","","3897.6000000089407","64.68","img/314/4/1.5/bw/001.png","","","appealing"
"","","","","","animation","231","2996967","0.0-231.0","1920x1080","","3091.300000011921","18.12","img/117/4/0.5/bw/001.png","","","appealing"
"","","","","","animation","232","2999863","0.0-232.0","1920x1080","","2894.5999999940395","0.40","img/238/2.5/1/bw/001.png","","","appealing"
"","","","","","animation","233","3004783","0.0-233.0","1920x1080","","4918.79999999702","100","img/117/5.5/1.5/bw/001.png","","","appealing"
"","","","","","animation","234","3008909","0.0-234.0","1920x1080","","4125.20000000298","57.54","img/314/4.5/0.66667/bw/001.png","","","appealing"
"","","","","","animation","235","3012327","0.0-235.0","1920x1080","","3416","0","img/117/2.5/1/bw/001.png","","","appealing"
"","","","","","html-button-response","236","3037292","0.0-236.0","1920x1080","","24963.70000000298","","<div class=""intro"">You are about to view a new series of animations.<br><br></div><div class=""intro"">You will evaluate them based on a different descriptor.<br><br></div><div class=""intro"">Move the slider to indicate how <strong style=""text-transform:capitalize"">RELAXING</strong> you find each animation.<br><br></div><div class=""intro"">0 = Least Relaxing<br></div><div class=""intro"">1 = Most Relaxing<br><br></div><div class=""intro"">Remember to use the <strong><em>entire range</em></strong> of the slider to make your ratings.<br></div><div class=""intro"">Please <strong><em>take your time</em></strong> and carefully consider each rating you make.<br><br></div>","0","",""
"","","","","","call-function","237","3037295","0.0-237.0","1920x1080","","","","","","",""
"","","","","","animation","238","3045342","0.0-238.0","1920x1080","","8046.0999999940395","24.74","img/238/4/1/bw/001.png","","","relaxing"
"","","","","","animation","239","3050199","0.0-239.0","1920x1080","","4855.70000000298","60.85","img/314/4.5/2/bw/001.png","","","relaxing"
"","","","","","animation","240","3055226","0.0-240.0","1920x1080","","5025.100000008941","12","img/314/3.5/1.5/bw/001.png","","","relaxing"
"","","","","","animation","241","3061042","0.0-241.0","1920x1080","","5815.600000008941","57.94","img/238/5.5/0.5/bw/001.png","","","relaxing"
"","","","","","animation","242","3066894","0.0-242.0","1920x1080","","5851.0999999940395","50.00","img/117/4/1.5/bw/001.png","","","relaxing"
"","","","","","animation","243","3071109","0.0-243.0","1920x1080","","4212.800000011921","0.13","img/238/4/0.5/bw/001.png","","","relaxing"
"","","","","","animation","244","3075199","0.0-244.0","1920x1080","","4088.3999999910593","8.47","img/314/4.5/1.5/bw/001.png","","","relaxing"
"","","","","","animation","245","3077999","0.0-245.0","1920x1080","","2797.7000000029802","31.35","img/117/3.5/1.5/bw/001.png","","","relaxing"
"","","","","","animation","246","3081958","0.0-246.0","1920x1080","","3958.4000000059605","96","img/117/5.5/2/bw/001.png","","","relaxing"
"","","","","","animation","247","3090111","0.0-247.0","1920x1080","","8150.70000000298","95","img/238/5.5/2/bw/001.png","","","relaxing"
"","","","","","animation","248","3093310","0.0-248.0","1920x1080","","3198.7000000029802","3.04","img/238/4/0.66667/bw/001.png","","","relaxing"
"","","","","","animation","249","3096126","0.0-249.0","1920x1080","","2814.6000000089407","5.16","img/117/4/0.66667/bw/001.png","","","relaxing"
"","","","","","animation","250","3099575","0.0-250.0","1920x1080","","3447.5","0","img/238/2.5/0.66667/bw/001.png","","","relaxing"
"","","","","","animation","251","3103675","0.0-251.0","1920x1080","","4098.899999991059","0","img/117/4.5/0.5/bw/001.png","","","relaxing"
"","","","","","animation","252","3108831","0.0-252.0","1920x1080","","5154.20000000298","14.68","img/314/5.5/0.66667/bw/001.png","","","relaxing"
"","","","","","animation","253","3118479","0.0-253.0","1920x1080","","9646.699999988079","12","img/117/4.5/1.5/bw/001.png","","","relaxing"
"","","","","","animation","254","3152774","0.0-254.0","1920x1080","","34294.79999999702","55","img/238/5.5/0.66667/bw/001.png","","","relaxing"
"","","","","","animation","255","3158058","0.0-255.0","1920x1080","","5282.70000000298","22.88","img/238/4.5/0.66667/bw/001.png","","","relaxing"
"","","","","","animation","256","3161225","0.0-256.0","1920x1080","","3163.7999999970198","10.19","img/314/3.5/1/bw/001.png","","","relaxing"
"","","","","","animation","257","3163830","0.0-257.0","1920x1080","","2604.4000000059605","0","img/117/2.5/0.66667/bw/001.png","","","relaxing"
"","","","","","animation","258","3170158","0.0-258.0","1920x1080","","6327","44.84","img/117/4.5/1/bw/001.png","","","relaxing"
"","","","","","animation","259","3173894","0.0-259.0","1920x1080","","3733.9000000059605","82.54","img/117/5.5/1/bw/001.png","","","relaxing"
"","","","","","animation","260","3177158","0.0-260.0","1920x1080","","3262.8999999910593","0","img/238/3.5/0.5/bw/001.png","","","relaxing"
"","","","","","animation","261","3179814","0.0-261.0","1920x1080","","2654.0999999940395","4.89","img/117/4/1/bw/001.png","","","relaxing"
"","","","","","animation","262","3182776","0.0-262.0","1920x1080","","2960.5","0.79","img/314/3.5/0.66667/bw/001.png","","","relaxing"
"","","","","","animation","263","3185475","0.0-263.0","1920x1080","","2696.8999999910593","20.11","img/238/4/1.5/bw/001.png","","","relaxing"
"","","","","","animation","264","3188525","0.0-264.0","1920x1080","","3048.3999999910593","0","img/117/2.5/1/bw/001.png","","","relaxing"
"","","","","","animation","265","3192650","0.0-265.0","1920x1080","","4123.300000011921","69.84","img/238/4.5/2/bw/001.png","","","relaxing"
"","","","","","animation","266","3222912","0.0-266.0","1920x1080","","30258.89999999106","43.12","img/314/4/1.5/bw/001.png","","","relaxing"
"","","","","","animation","267","3247994","0.0-267.0","1920x1080","","25077.70000000298","100","img/117/5.5/1.5/bw/001.png","","","relaxing"
"","","","","","animation","268","3252692","0.0-268.0","1920x1080","","4696.4000000059605","21.96","img/314/4.5/0.66667/bw/001.png","","","relaxing"
"","","","","","animation","269","3256675","0.0-269.0","1920x1080","","3982.2000000029802","36","img/314/5.5/1/bw/001.png","","","relaxing"
"","","","","","animation","270","3259542","0.0-270.0","1920x1080","","2865.199999988079","3.04","img/314/2.5/1.5/bw/001.png","","","relaxing"
"","","","","","animation","271","3266311","0.0-271.0","1920x1080","","6768.5","14.55","img/314/4/2/bw/001.png","","","relaxing"
"","","","","","animation","272","3300376","0.0-272.0","1920x1080","","34063.20000000298","98","img/314/5.5/2/bw/001.png","","","relaxing"
"","","","","","animation","273","3303025","0.0-273.0","1920x1080","","2647.7000000029802","0","img/238/2.5/1.5/bw/001.png","","","relaxing"
"","","","","","animation","274","3308581","0.0-274.0","1920x1080","","5554.4000000059605","3.31","img/238/3.5/2/bw/001.png","","","relaxing"
"","","","","","animation","275","3321895","0.0-275.0","1920x1080","","13312.60000000894","20.11","img/117/3.5/2/bw/001.png","","","relaxing"
"","","","","","animation","276","3328063","0.0-276.0","1920x1080","","6166.79999999702","0.13","img/117/2.5/2/bw/001.png","","","relaxing"
"","","","","","animation","277","3336224","0.0-277.0","1920x1080","","8158.899999991059","0.53","img/314/5.5/0.5/bw/001.png","","","relaxing"
"","","","","","animation","278","3340444","0.0-278.0","1920x1080","","4218.5","42.20","img/117/4.5/2/bw/001.png","","","relaxing"
"","","","","","animation","279","3344391","0.0-279.0","1920x1080","","3945.5999999940395","25.66","img/314/4.5/1/bw/001.png","","","relaxing"
"","","","","","animation","280","3347079","0.0-280.0","1920x1080","","2686.5999999940395","0","img/314/3.5/0.5/bw/001.png","","","relaxing"
"","","","","","animation","281","3349917","0.0-281.0","1920x1080","","2837","0.13","img/314/2.5/1/bw/001.png","","","relaxing"
"","","","","","animation","282","3353108","0.0-282.0","1920x1080","","3187.800000011921","0.13","img/117/3.5/0.5/bw/001.png","","","relaxing"
"","","","","","animation","283","3355895","0.0-283.0","1920x1080","","2785.5","0.79","img/117/3.5/1/bw/001.png","","","relaxing"
"","","","","","animation","284","3358441","0.0-284.0","1920x1080","","2545.300000011921","4.23","img/314/3.5/2/bw/001.png","","","relaxing"
"","","","","","animation","285","3360758","0.0-285.0","1920x1080","","2314.9000000059605","2.25","img/238/3.5/1.5/bw/001.png","","","relaxing"
"","","","","","animation","286","3363391","0.0-286.0","1920x1080","","2631.9000000059605","0","img/314/2.5/0.66667/bw/001.png","","","relaxing"
"","","","","","animation","287","3365761","0.0-287.0","1920x1080","","2368.7000000029802","1","img/238/3.5/1/bw/001.png","","","relaxing"
"","","","","","animation","288","3379975","0.0-288.0","1920x1080","","14212.79999999702","83.33","img/314/5.5/1.5/bw/001.png","","","relaxing"
"","","","","","animation","289","3383143","0.0-289.0","1920x1080","","3166.2999999970198","4.76","img/314/2.5/2/bw/001.png","","","relaxing"
"","","","","","animation","290","3385341","0.0-290.0","1920x1080","","2196.800000011921","0.40","img/314/4/0.66667/bw/001.png","","","relaxing"
"","","","","","animation","291","3390217","0.0-291.0","1920x1080","","4875.300000011921","27.12","img/117/5.5/0.66667/bw/001.png","","","relaxing"
"","","","","","animation","292","3392991","0.0-292.0","1920x1080","","2772.2999999970198","0.13","img/314/2.5/0.5/bw/001.png","","","relaxing"
"","","","","","animation","293","3416024","0.0-293.0","1920x1080","","23031.90000000596","99","img/238/5.5/1.5/bw/001.png","","","relaxing"
"","","","","","animation","294","3418895","0.0-294.0","1920x1080","","2869.4000000059605","0","img/117/2.5/1.5/bw/001.png","","","relaxing"
"","","","","","animation","295","3421866","0.0-295.0","1920x1080","","2969.800000011921","0","img/314/4.5/0.5/bw/001.png","","","relaxing"
"","","","","","animation","296","3427908","0.0-296.0","1920x1080","","6039.70000000298","0","img/314/4/1/bw/001.png","","","relaxing"
"","","","","","animation","297","3432959","0.0-297.0","1920x1080","","5047.79999999702","2.51","img/117/4.5/0.66667/bw/001.png","","","relaxing"
"","","","","","animation","298","3435927","0.0-298.0","1920x1080","","2966.6000000089407","0.40","img/238/2.5/1/bw/001.png","","","relaxing"
"","","","","","animation","299","3438847","0.0-299.0","1920x1080","","2918.8999999910593","32.14","img/238/4/2/bw/001.png","","","relaxing"
"","","","","","animation","300","3442358","0.0-300.0","1920x1080","","3509.5999999940395","0","img/117/3.5/0.66667/bw/001.png","","","relaxing"
"","","","","","animation","301","3445663","0.0-301.0","1920x1080","","3303.7000000029802","0","img/238/2.5/2/bw/001.png","","","relaxing"
"","","","","","animation","302","3448435","0.0-302.0","1920x1080","","2770.300000011921","0.40","img/238/2.5/0.5/bw/001.png","","","relaxing"
"","","","","","animation","303","3451659","0.0-303.0","1920x1080","","3223.4000000059605","0","img/117/4/0.5/bw/001.png","","","relaxing"
"","","","","","animation","304","3454058","0.0-304.0","1920x1080","","2397","0.00","img/117/2.5/0.5/bw/001.png","","","relaxing"
"","","","","","animation","305","3459479","0.0-305.0","1920x1080","","5419.5","0.13","img/238/4.5/0.5/bw/001.png","","","relaxing"
"","","","","","animation","306","3462247","0.0-306.0","1920x1080","","2766.7999999970198","0","img/314/4/0.5/bw/001.png","","","relaxing"
"","","","","","animation","307","3468727","0.0-307.0","1920x1080","","6478.79999999702","0","img/238/3.5/0.66667/bw/001.png","","","relaxing"
"","","","","","animation","308","3473392","0.0-308.0","1920x1080","","4663.4000000059605","6.88","img/117/5.5/0.5/bw/001.png","","","relaxing"
"","","","","","animation","309","3477729","0.0-309.0","1920x1080","","4336.29999999702","24.34","img/238/4.5/1/bw/001.png","","","relaxing"
"","","","","","animation","310","3490224","0.0-310.0","1920x1080","","12493.10000000894","51.19","img/117/4/2/bw/001.png","","","relaxing"
"","","","","","animation","311","3505957","0.0-311.0","1920x1080","","15732.10000000894","68.25","img/238/4.5/1.5/bw/001.png","","","relaxing"
"","","","","","animation","312","3510374","0.0-312.0","1920x1080","","4415.9000000059605","100","img/238/5.5/1/bw/001.png","","","relaxing"
"","","","","","html-button-response","313","3528848","0.0-313.0","1920x1080","","18471.5","","<div class=""intro"">You are about to view a new series of animations.<br><br></div><div class=""intro"">You will evaluate them based on a different descriptor.<br><br></div><div class=""intro"">Move the slider to indicate how <strong style=""text-transform:capitalize"">INTERESTING</strong> you find each animation.<br><br></div><div class=""intro"">0 = Least Interesting<br></div><div class=""intro"">1 = Most Interesting<br><br></div><div class=""intro"">Remember to use the <strong><em>entire range</em></strong> of the slider to make your ratings.<br></div><div class=""intro"">Please <strong><em>take your time</em></strong> and carefully consider each rating you make.<br><br></div>","0","",""
"","","","","","call-function","314","3528851","0.0-314.0","1920x1080","","","","","","",""
"","","","","","animation","315","3541164","0.0-315.0","1920x1080","","12313.40000000596","62.17","img/314/5.5/1.5/bw/001.png","","","interesting"
"","","","","","animation","316","3618129","0.0-316.0","1920x1080","","76963","62.43","img/238/4.5/1/bw/001.png","","","interesting"
"","","","","","animation","317","3637111","0.0-317.0","1920x1080","","18980.70000000298","72.88","img/238/2.5/1/bw/001.png","","","interesting"
"","","","","","animation","318","3692022","0.0-318.0","1920x1080","","54910.20000000298","29.89","img/117/4/0.66667/bw/001.png","","","interesting"
"","","","","","animation","319","3707439","0.0-319.0","1920x1080","","15415.60000000894","11.77","img/238/4.5/2/bw/001.png","","","interesting"
"","","","","","animation","320","3759542","0.0-320.0","1920x1080","","52102.19999998808","4.37","img/117/2.5/0.5/bw/001.png","","","interesting"
"","","","","","animation","321","3763622","0.0-321.0","1920x1080","","4078.699999988079","65.48","img/117/3.5/1.5/bw/001.png","","","interesting"
"","","","","","animation","322","3791775","0.0-322.0","1920x1080","","28150.69999998808","70.50","img/238/4/2/bw/001.png","","","interesting"
"","","","","","animation","323","3796327","0.0-323.0","1920x1080","","4550.9000000059605","52.12","img/238/3.5/0.5/bw/001.png","","","interesting"
"","","","","","animation","324","3801880","0.0-324.0","1920x1080","","5549.5999999940395","99","img/314/2.5/2/bw/001.png","","","interesting"
"","","","","","animation","325","3813976","0.0-325.0","1920x1080","","12095.09999999404","77","img/314/2.5/1/bw/001.png","","","interesting"
"","","","","","animation","326","3860126","0.0-326.0","1920x1080","","46149.69999998808","81.48","img/314/4/2/bw/001.png","","","interesting"
"","","","","","animation","327","3866915","0.0-327.0","1920x1080","","6786.899999991059","37.57","img/117/4/2/bw/001.png","","","interesting"
"","","","","","animation","328","3872344","0.0-328.0","1920x1080","","5428.199999988079","87.04","img/117/4.5/1.5/bw/001.png","","","interesting"
"","","","","","animation","329","3889190","0.0-329.0","1920x1080","","16844.5","51.85","img/314/4.5/1.5/bw/001.png","","","interesting"
"","","","","","animation","330","3895071","0.0-330.0","1920x1080","","5879.4000000059605","2.12","img/238/5.5/2/bw/001.png","","","interesting"
"","","","","","animation","331","3900889","0.0-331.0","1920x1080","","5816","3.17","img/314/2.5/0.5/bw/001.png","","","interesting"
"","","","","","animation","332","3908826","0.0-332.0","1920x1080","","7933.5","13.89","img/117/4/0.5/bw/001.png","","","interesting"
"","","","","","animation","333","3924348","0.0-333.0","1920x1080","","15519.79999999702","35.05","img/117/5.5/1/bw/001.png","","","interesting"
"","","","","","animation","334","3928980","0.0-334.0","1920x1080","","4630.70000000298","0","img/314/2.5/0.66667/bw/001.png","","","interesting"
"","","","","","animation","335","3933128","0.0-335.0","1920x1080","","4145.29999999702","37.70","img/238/4/1/bw/001.png","","","interesting"
"","","","","","animation","336","3938478","0.0-336.0","1920x1080","","5348.79999999702","68.25","img/117/5.5/2/bw/001.png","","","interesting"
"","","","","","animation","337","3949071","0.0-337.0","1920x1080","","10591.20000000298","76.19","img/238/4.5/1.5/bw/001.png","","","interesting"
"","","","","","animation","338","3989441","0.0-338.0","1920x1080","","40368.80000001192","35.71","img/117/4.5/0.5/bw/001.png","","","interesting"
"","","","","","animation","339","3997604","0.0-339.0","1920x1080","","8161.600000008941","53.97","img/314/4.5/1/bw/001.png","","","interesting"
"","","","","","animation","340","4007180","0.0-340.0","1920x1080","","9573.89999999106","41.53","img/117/5.5/1.5/bw/001.png","","","interesting"
"","","","","","animation","341","4014771","0.0-341.0","1920x1080","","7590.0999999940395","58.86","img/238/5.5/0.66667/bw/001.png","","","interesting"
"","","","","","animation","342","4020404","0.0-342.0","1920x1080","","5630.70000000298","60.71","img/314/5.5/0.66667/bw/001.png","","","interesting"
"","","","","","animation","343","4022924","0.0-343.0","1920x1080","","2518.5","20.77","img/238/3.5/0.66667/bw/001.png","","","interesting"
"","","","","","animation","344","4026843","0.0-344.0","1920x1080","","3917.5999999940395","77.38","img/314/4/1.5/bw/001.png","","","interesting"
"","","","","","animation","345","4030807","0.0-345.0","1920x1080","","3962.5","89.81","img/117/5.5/0.66667/bw/001.png","","","interesting"
"","","","","","animation","346","4034105","0.0-346.0","1920x1080","","3295.4000000059605","0.53","img/117/2.5/1/bw/001.png","","","interesting"
"","","","","","animation","347","4037375","0.0-347.0","1920x1080","","3268.7000000029802","8","img/238/4/0.66667/bw/001.png","","","interesting"
"","","","","","animation","348","4042238","0.0-348.0","1920x1080","","4862","94.58","img/314/3.5/2/bw/001.png","","","interesting"
"","","","","","animation","349","4045732","0.0-349.0","1920x1080","","3491.7999999970198","67.46","img/314/4/1/bw/001.png","","","interesting"
"","","","","","animation","350","4050116","0.0-350.0","1920x1080","","4382.5","46.16","img/117/4/1/bw/001.png","","","interesting"
"","","","","","animation","351","4053210","0.0-351.0","1920x1080","","3092.7999999970198","67.20","img/238/3.5/2/bw/001.png","","","interesting"
"","","","","","animation","352","4055959","0.0-352.0","1920x1080","","2747.2999999970198","0.79","img/238/2.5/0.66667/bw/001.png","","","interesting"
"","","","","","animation","353","4081959","0.0-353.0","1920x1080","","25998.79999999702","17.46","img/238/4.5/0.66667/bw/001.png","","","interesting"
"","","","","","animation","354","4084759","0.0-354.0","1920x1080","","2798.699999988079","0.00","img/117/2.5/0.66667/bw/001.png","","","interesting"
"","","","","","animation","355","4097175","0.0-355.0","1920x1080","","12415","0.40","img/238/2.5/0.5/bw/001.png","","","interesting"
"","","","","","animation","356","4100472","0.0-356.0","1920x1080","","3294.2999999970198","71.43","img/117/3.5/2/bw/001.png","","","interesting"
"","","","","","animation","357","4104154","0.0-357.0","1920x1080","","3679","64.55","img/117/4.5/0.66667/bw/001.png","","","interesting"
"","","","","","animation","358","4108872","0.0-358.0","1920x1080","","4716.5","42.06","img/314/4.5/0.5/bw/001.png","","","interesting"
"","","","","","animation","359","4116638","0.0-359.0","1920x1080","","7765.20000000298","30.69","img/314/5.5/2/bw/001.png","","","interesting"
"","","","","","animation","360","4119168","0.0-360.0","1920x1080","","2528.9000000059605","43.92","img/238/3.5/1.5/bw/001.png","","","interesting"
"","","","","","animation","361","4125143","0.0-361.0","1920x1080","","5973","83.47","img/314/4.5/2/bw/001.png","","","interesting"
"","","","","","animation","362","4127912","0.0-362.0","1920x1080","","2767.5999999940395","66.14","img/314/3.5/1.5/bw/001.png","","","interesting"
"","","","","","animation","363","4132030","0.0-363.0","1920x1080","","4116.79999999702","32.80","img/314/3.5/0.66667/bw/001.png","","","interesting"
"","","","","","animation","364","4134571","0.0-364.0","1920x1080","","2539.199999988079","12.96","img/117/3.5/0.5/bw/001.png","","","interesting"
"","","","","","animation","365","4137638","0.0-365.0","1920x1080","","3065.5","0","img/238/2.5/1.5/bw/001.png","","","interesting"
"","","","","","animation","366","4141791","0.0-366.0","1920x1080","","4151.899999991059","15.61","img/238/4/0.5/bw/001.png","","","interesting"
"","","","","","animation","367","4144303","0.0-367.0","1920x1080","","2511.4000000059605","9.13","img/314/4/0.5/bw/001.png","","","interesting"
"","","","","","animation","368","4147355","0.0-368.0","1920x1080","","3050.0999999940395","4.89","img/314/3.5/0.5/bw/001.png","","","interesting"
"","","","","","animation","369","4152054","0.0-369.0","1920x1080","","4697.4000000059605","14.42","img/117/3.5/1/bw/001.png","","","interesting"
"","","","","","animation","370","4169606","0.0-370.0","1920x1080","","17550.09999999404","37.43","img/238/5.5/1/bw/001.png","","","interesting"
"","","","","","animation","371","4172857","0.0-371.0","1920x1080","","3248.7000000029802","1.98","img/238/2.5/2/bw/001.png","","","interesting"
"","","","","","animation","372","4175288","0.0-372.0","1920x1080","","2429.9000000059605","9.26","img/117/3.5/0.66667/bw/001.png","","","interesting"
"","","","","","animation","373","4177722","0.0-373.0","1920x1080","","2432.5","1.72","img/117/2.5/1.5/bw/001.png","","","interesting"
"","","","","","animation","374","4182343","0.0-374.0","1920x1080","","4617.79999999702","61.64","img/117/4.5/1/bw/001.png","","","interesting"
"","","","","","animation","375","4187915","0.0-375.0","1920x1080","","5570.5999999940395","41.53","img/117/5.5/0.5/bw/001.png","","","interesting"
"","","","","","animation","376","4195991","0.0-376.0","1920x1080","","8074.399999991059","80.95","img/117/4/1.5/bw/001.png","","","interesting"
"","","","","","animation","377","4199039","0.0-377.0","1920x1080","","3046.0999999940395","10.32","img/117/2.5/2/bw/001.png","","","interesting"
"","","","","","animation","378","4202455","0.0-378.0","1920x1080","","3414.7000000029802","88.76","img/238/5.5/0.5/bw/001.png","","","interesting"
"","","","","","animation","379","4205946","0.0-379.0","1920x1080","","3489.8999999910593","43.78","img/314/4.5/0.66667/bw/001.png","","","interesting"
"","","","","","animation","380","4209800","0.0-380.0","1920x1080","","3852.199999988079","61.64","img/117/4.5/2/bw/001.png","","","interesting"
"","","","","","animation","381","4215987","0.0-381.0","1920x1080","","6186.199999988079","96","img/238/4/1.5/bw/001.png","","","interesting"
"","","","","","animation","382","4226738","0.0-382.0","1920x1080","","10749.09999999404","14","img/238/5.5/1.5/bw/001.png","","","interesting"
"","","","","","animation","383","4230775","0.0-383.0","1920x1080","","4036","52.91","img/238/4.5/0.5/bw/001.png","","","interesting"
"","","","","","animation","384","4235339","0.0-384.0","1920x1080","","4562.199999988079","0","img/314/2.5/1.5/bw/001.png","","","interesting"
"","","","","","animation","385","4243855","0.0-385.0","1920x1080","","8514.70000000298","11.24","img/314/4/0.66667/bw/001.png","","","interesting"
"","","","","","animation","386","4252391","0.0-386.0","1920x1080","","8531.70000000298","30.95","img/314/5.5/1/bw/001.png","","","interesting"
"","","","","","animation","387","4256271","0.0-387.0","1920x1080","","3878.2000000029802","39","img/314/3.5/1/bw/001.png","","","interesting"
"","","","","","animation","388","4275055","0.0-388.0","1920x1080","","18782.59999999404","43.25","img/238/3.5/1/bw/001.png","","","interesting"
"","","","","","animation","389","4279845","0.0-389.0","1920x1080","","4789.600000008941","63.89","img/314/5.5/0.5/bw/001.png","","","interesting"
"","","","","","html-button-response","390","4365529","0.0-390.0","1920x1080","","85680.90000000596","","<strong>Study Debriefing</strong><br><p class=""debrief""><strong>Background:</strong> The patterns you rated are called <em>fractals</em>. The term fractal describes a class of irregular curves or shapes for which any suitably chosen part is similar in shape to a given larger or smaller part when magnified or reduced to the same size. Fractal properties are found throughout the natural and manmade world. The series of animations you saw today displayed animated fractal patterns of a varying complexity.</p><p class=""debrief""><strong>Purpose of this study:</strong> We hope to better understand how the perception of static fractals differs from the perception of animated fractals, and how the speed of the animated patterns influences people&apos;s perception of them. Fractals allow us to study the perception of aesthetic properties (e.g. the perceived level of beauty in an image) without using recognizable content, which makes them an excellent tool for studying abstract aesthetic judgement.</p><p class=""debrief""><strong>Your part:</strong> Your participation has helped us to further understand how humans perceive these patterns across different levels of speed and complexity. This research with allow us to better understand how the visual system and brain process our ever-changing visual environments.<p class=""debrief""><strong>Feedback and Further information:</strong> If you have additional questions about this study, please feel free to ask the researcher, Nathan Gonzales-Hess at nhess @ uoregon.edu. If you have any questions concerning your rights as a research participant, please contact Research Compliance Services, 5237 University of Oregon, Eugene, OR 97403, 541-346-2510, or email researchCompliance @ uoregon.edu. You can also email the Human Subjects Coordinator for psychology and linguistics research at hscoord @ uoregon.edu. ","0","",""
"","","","","","html-button-response","391","4371191","0.0-391.0","1920x1080","","5658.29999999702","","Thank you for participating in this study. <br>Please click below to finish the experiment and submit your responses.<br><br>","0","",""
"true","","","","","fullscreen","392","4372216","0.0-392.0","1920x1080","14:31 3/11/2022","","","","","",""
