"success","timeout","failed_images","failed_audio","failed_video","trial_type","trial_index","time_elapsed","internal_node_id","resolution","timeStamp","rt","response","stimulus","button_pressed","value","descriptor"
"true","false","[]","[]","[]","preload","0","5797","0.0-0.0","1920x1080","","","","","","",""
"true","false","[]","[]","[]","preload","1","11848","0.0-1.0","1920x1080","","","","","","",""
"true","false","[]","[]","[]","preload","2","17621","0.0-2.0","1920x1080","","","","","","",""
"true","","","","","fullscreen","3","2746122","0.0-3.0","1920x1080","11:11 7/10/2022","","","","","",""
"","","","","","survey-html-form","4","2760045","0.0-4.0","1920x1080","","13917.800000011921","{""age"":""18"",""gender"":""female""}","","","",""
"","","","","","html-button-response","5","2809525","0.0-5.0","1920x1080","","49478.90000000596","","<div class=""complex"">You are going to see a series of animations.<br><br></div><div class=""complex"">Move the slider to indicate how <strong style=""text-transform:capitalize"">COMPLEX</strong> you find each animation.<br><br></div><div class=""complex"">0 = Least Complex<br></div><div class=""complex"">1 = Most Complex<br><br></div><div class=""complex"">Remember to use the <strong><em>entire range</em></strong> of the slider to make your ratings.<br></div><div class=""complex"">Please <strong><em>take your time</em></strong> and carefully consider each rating you make.<br><br></div><div class=""complex"">The study has five sections and will take about 45 minutes to complete.<br><br></div>","0","",""
"","","","","","call-function","6","2809525","0.0-6.0","1920x1080","","","","","","",""
"","","","","","animation","7","2815884","0.0-7.0","1920x1080","","6357.9000000059605","87.43","img/117/2.5/0.5/bw/001.png","","","complex"
"","","","","","animation","8","2823116","0.0-8.0","1920x1080","","7230.800000011921","62","img/314/4/1.5/bw/001.png","","","complex"
"","","","","","animation","9","2828396","0.0-9.0","1920x1080","","5279","62.96","img/314/3.5/1/bw/001.png","","","complex"
"","","","","","animation","10","2832828","0.0-10.0","1920x1080","","4431.0999999940395","65.61","img/238/3.5/1/bw/001.png","","","complex"
"","","","","","animation","11","2837932","0.0-11.0","1920x1080","","5103.199999988079","100","img/238/4.5/0.5/bw/001.png","","","complex"
"","","","","","animation","12","2840884","0.0-12.0","1920x1080","","2951","78","img/314/3.5/2/bw/001.png","","","complex"
"","","","","","animation","13","2844204","0.0-13.0","1920x1080","","3319.199999988079","99","img/238/3.5/0.66667/bw/001.png","","","complex"
"","","","","","animation","14","2850253","0.0-14.0","1920x1080","","6047.299999982119","100","img/238/2.5/1.5/bw/001.png","","","complex"
"","","","","","animation","15","2855078","0.0-15.0","1920x1080","","4824.5","25","img/314/5.5/1/bw/001.png","","","complex"
"","","","","","animation","16","2860877","0.0-16.0","1920x1080","","5799","29.23","img/238/5.5/0.5/bw/001.png","","","complex"
"","","","","","animation","17","2865221","0.0-17.0","1920x1080","","4342.600000023842","99","img/314/2.5/0.66667/bw/001.png","","","complex"
"","","","","","animation","18","2870230","0.0-18.0","1920x1080","","5007","21.96","img/238/5.5/1/bw/001.png","","","complex"
"","","","","","animation","19","2876318","0.0-19.0","1920x1080","","6087.199999988079","30","img/238/4/2/bw/001.png","","","complex"
"","","","","","animation","20","2879886","0.0-20.0","1920x1080","","3567.0999999940395","87.57","img/238/2.5/2/bw/001.png","","","complex"
"","","","","","animation","21","2883657","0.0-21.0","1920x1080","","3771","100","img/117/2.5/2/bw/001.png","","","complex"
"","","","","","animation","22","2888063","0.0-22.0","1920x1080","","4404.300000011921","49.07","img/117/4.5/2/bw/001.png","","","complex"
"","","","","","animation","23","2890542","0.0-23.0","1920x1080","","2478.5999999940395","76.32","img/314/4.5/0.66667/bw/001.png","","","complex"
"","","","","","animation","24","2893718","0.0-24.0","1920x1080","","3175.100000023842","70.90","img/117/3.5/1.5/bw/001.png","","","complex"
"","","","","","animation","25","2896046","0.0-25.0","1920x1080","","2327.300000011921","60.58","img/238/4.5/1/bw/001.png","","","complex"
"","","","","","animation","26","2900094","0.0-26.0","1920x1080","","4047.5999999940395","20.50","img/314/5.5/0.66667/bw/001.png","","","complex"
"","","","","","animation","27","2904190","0.0-27.0","1920x1080","","4094.9000000059605","64.55","img/238/4/0.66667/bw/001.png","","","complex"
"","","","","","animation","28","2909318","0.0-28.0","1920x1080","","5127.100000023842","64.15","img/117/4/0.5/bw/001.png","","","complex"
"","","","","","animation","29","2916894","0.0-29.0","1920x1080","","7575.200000017881","53","img/314/4.5/0.5/bw/001.png","","","complex"
"","","","","","animation","30","2919726","0.0-30.0","1920x1080","","2831.100000023842","97","img/238/2.5/1/bw/001.png","","","complex"
"","","","","","animation","31","2923965","0.0-31.0","1920x1080","","4238.700000017881","49","img/117/5.5/1/bw/001.png","","","complex"
"","","","","","animation","32","2927477","0.0-32.0","1920x1080","","3512.9000000059605","64.55","img/238/4.5/0.66667/bw/001.png","","","complex"
"","","","","","animation","33","2929548","0.0-33.0","1920x1080","","2070.199999988079","78.44","img/238/3.5/0.5/bw/001.png","","","complex"
"","","","","","animation","34","2932452","0.0-34.0","1920x1080","","2903.7000000178814","59.26","img/314/4.5/1/bw/001.png","","","complex"
"","","","","","animation","35","2936220","0.0-35.0","1920x1080","","3767","99","img/314/2.5/2/bw/001.png","","","complex"
"","","","","","animation","36","2940108","0.0-36.0","1920x1080","","3887","68.65","img/314/4/1/bw/001.png","","","complex"
"","","","","","animation","37","2944628","0.0-37.0","1920x1080","","4518.5","60.85","img/117/4/2/bw/001.png","","","complex"
"","","","","","animation","38","2948940","0.0-38.0","1920x1080","","4311.800000011921","84.52","img/238/3.5/1.5/bw/001.png","","","complex"
"","","","","","animation","39","2952078","0.0-39.0","1920x1080","","3136.7000000178814","55.82","img/117/4.5/0.66667/bw/001.png","","","complex"
"","","","","","animation","40","2954212","0.0-40.0","1920x1080","","2133.7000000178814","73.02","img/238/4/1.5/bw/001.png","","","complex"
"","","","","","animation","41","2958116","0.0-41.0","1920x1080","","3902.699999988079","32.54","img/117/5.5/0.66667/bw/001.png","","","complex"
"","","","","","animation","42","2963813","0.0-42.0","1920x1080","","5695.700000017881","32.94","img/238/4.5/2/bw/001.png","","","complex"
"","","","","","animation","43","2974180","0.0-43.0","1920x1080","","10366.300000011921","100","img/117/2.5/1/bw/001.png","","","complex"
"","","","","","animation","44","2980972","0.0-44.0","1920x1080","","6791.4000000059605","62.83","img/117/4/1/bw/001.png","","","complex"
"","","","","","animation","45","2985468","0.0-45.0","1920x1080","","4495.200000017881","6.08","img/314/5.5/2/bw/001.png","","","complex"
"","","","","","animation","46","2988644","0.0-46.0","1920x1080","","3174.7999999821186","100","img/117/2.5/1.5/bw/001.png","","","complex"
"","","","","","animation","47","2997068","0.0-47.0","1920x1080","","8423.300000011921","3.44","img/314/5.5/1.5/bw/001.png","","","complex"
"","","","","","animation","48","3000004","0.0-48.0","1920x1080","","2934.9000000059605","45.24","img/117/4/0.66667/bw/001.png","","","complex"
"","","","","","animation","49","3003364","0.0-49.0","1920x1080","","3358.5","37.04","img/314/4/2/bw/001.png","","","complex"
"","","","","","animation","50","3007510","0.0-50.0","1920x1080","","4145.700000017881","86.51","img/117/3.5/0.66667/bw/001.png","","","complex"
"","","","","","animation","51","3014268","0.0-51.0","1920x1080","","6757.300000011921","70.50","img/238/3.5/2/bw/001.png","","","complex"
"","","","","","animation","52","3021348","0.0-52.0","1920x1080","","7078.5999999940395","100","img/238/2.5/0.5/bw/001.png","","","complex"
"","","","","","animation","53","3025468","0.0-53.0","1920x1080","","4119.700000017881","58.20","img/117/4.5/1.5/bw/001.png","","","complex"
"","","","","","animation","54","3028188","0.0-54.0","1920x1080","","2719.0999999940395","71.03","img/314/3.5/0.66667/bw/001.png","","","complex"
"","","","","","animation","55","3032356","0.0-55.0","1920x1080","","4167.200000017881","10.32","img/238/5.5/0.66667/bw/001.png","","","complex"
"","","","","","animation","56","3036932","0.0-56.0","1920x1080","","4575","58.47","img/314/4/0.66667/bw/001.png","","","complex"
"","","","","","animation","57","3041052","0.0-57.0","1920x1080","","4118.800000011921","0.53","img/238/5.5/2/bw/001.png","","","complex"
"","","","","","animation","58","3044140","0.0-58.0","1920x1080","","3087.4000000059605","49.47","img/117/3.5/1/bw/001.png","","","complex"
"","","","","","animation","59","3047523","0.0-59.0","1920x1080","","3382.800000011921","25.79","img/117/5.5/2/bw/001.png","","","complex"
"","","","","","animation","60","3051077","0.0-60.0","1920x1080","","3552.699999988079","52","img/314/5.5/0.5/bw/001.png","","","complex"
"","","","","","animation","61","3053987","0.0-61.0","1920x1080","","2908.7000000178814","70.90","img/314/3.5/0.5/bw/001.png","","","complex"
"","","","","","animation","62","3057835","0.0-62.0","1920x1080","","3847.100000023842","27.38","img/314/4.5/2/bw/001.png","","","complex"
"","","","","","animation","63","3061347","0.0-63.0","1920x1080","","3510.7999999821186","21.96","img/117/5.5/1.5/bw/001.png","","","complex"
"","","","","","animation","64","3065595","0.0-64.0","1920x1080","","4247","97","img/314/2.5/1.5/bw/001.png","","","complex"
"","","","","","animation","65","3069867","0.0-65.0","1920x1080","","4271.300000011921","100","img/238/2.5/0.66667/bw/001.png","","","complex"
"","","","","","animation","66","3076910","0.0-66.0","1920x1080","","7041.800000011921","62.43","img/238/4/1/bw/001.png","","","complex"
"","","","","","animation","67","3090571","0.0-67.0","1920x1080","","13660","54","img/117/3.5/2/bw/001.png","","","complex"
"","","","","","animation","68","3096163","0.0-68.0","1920x1080","","5590.5999999940395","33","img/117/5.5/0.5/bw/001.png","","","complex"
"","","","","","animation","69","3099083","0.0-69.0","1920x1080","","2919.4000000059605","99","img/314/2.5/0.5/bw/001.png","","","complex"
"","","","","","animation","70","3101683","0.0-70.0","1920x1080","","2598.800000011921","84","img/314/3.5/1.5/bw/001.png","","","complex"
"","","","","","animation","71","3105828","0.0-71.0","1920x1080","","4144","37.70","img/117/4.5/1/bw/001.png","","","complex"
"","","","","","animation","72","3108840","0.0-72.0","1920x1080","","3006.5","1.98","img/238/5.5/1.5/bw/001.png","","","complex"
"","","","","","animation","73","3111224","0.0-73.0","1920x1080","","2383","99","img/314/2.5/1/bw/001.png","","","complex"
"","","","","","animation","74","3114224","0.0-74.0","1920x1080","","2999","45.90","img/238/4.5/1.5/bw/001.png","","","complex"
"","","","","","animation","75","3116839","0.0-75.0","1920x1080","","2614.5999999940395","82","img/117/4.5/0.5/bw/001.png","","","complex"
"","","","","","animation","76","3119249","0.0-76.0","1920x1080","","2407.9000000059605","95","img/314/4/0.5/bw/001.png","","","complex"
"","","","","","animation","77","3121915","0.0-77.0","1920x1080","","2665.0999999940395","48.68","img/117/4/1.5/bw/001.png","","","complex"
"","","","","","animation","78","3124007","0.0-78.0","1920x1080","","2091.9000000059605","75","img/117/3.5/0.5/bw/001.png","","","complex"
"","","","","","animation","79","3127344","0.0-79.0","1920x1080","","3335.300000011921","38.36","img/314/4.5/1.5/bw/001.png","","","complex"
"","","","","","animation","80","3131631","0.0-80.0","1920x1080","","4286.699999988079","64.15","img/238/4/0.5/bw/001.png","","","complex"
"","","","","","animation","81","3136471","0.0-81.0","1920x1080","","4839","98","img/117/2.5/0.66667/bw/001.png","","","complex"
"","","","","","html-button-response","82","3156320","0.0-82.0","1920x1080","","19847","","<div class=""intro"">You are about to view a new series of animations.<br><br></div><div class=""intro"">You will evaluate them based on a different descriptor.<br><br></div><div class=""intro"">Move the slider to indicate how <strong style=""text-transform:capitalize"">APPEALING</strong> you find each animation.<br><br></div><div class=""intro"">0 = Least Appealing<br></div><div class=""intro"">1 = Most Appealing<br><br></div><div class=""intro"">Remember to use the <strong><em>entire range</em></strong> of the slider to make your ratings.<br></div><div class=""intro"">Please <strong><em>take your time</em></strong> and carefully consider each rating you make.<br><br></div>","0","",""
"","","","","","call-function","83","3156321","0.0-83.0","1920x1080","","","","","","",""
"","","","","","animation","84","3163208","0.0-84.0","1920x1080","","6886.300000011921","1.59","img/238/2.5/2/bw/001.png","","","appealing"
"","","","","","animation","85","3167255","0.0-85.0","1920x1080","","4047","100","img/238/5.5/1.5/bw/001.png","","","appealing"
"","","","","","animation","86","3171159","0.0-86.0","1920x1080","","3902.9000000059605","71","img/117/4/2/bw/001.png","","","appealing"
"","","","","","animation","87","3174281","0.0-87.0","1920x1080","","3121.0999999940395","2.12","img/314/2.5/1/bw/001.png","","","appealing"
"","","","","","animation","88","3178607","0.0-88.0","1920x1080","","4324.9000000059605","0.93","img/314/2.5/0.5/bw/001.png","","","appealing"
"","","","","","animation","89","3180998","0.0-89.0","1920x1080","","2390.4000000059605","1","img/117/2.5/1/bw/001.png","","","appealing"
"","","","","","animation","90","3183854","0.0-90.0","1920x1080","","2855.0999999940395","35.85","img/314/4/1/bw/001.png","","","appealing"
"","","","","","animation","91","3186343","0.0-91.0","1920x1080","","2487.5999999940395","29","img/238/4/1/bw/001.png","","","appealing"
"","","","","","animation","92","3188481","0.0-92.0","1920x1080","","2137.300000011921","33.20","img/238/4.5/0.66667/bw/001.png","","","appealing"
"","","","","","animation","93","3191639","0.0-93.0","1920x1080","","3156.7000000178814","19.05","img/314/4/0.66667/bw/001.png","","","appealing"
"","","","","","animation","94","3197175","0.0-94.0","1920x1080","","5534.9000000059605","3.84","img/117/2.5/0.66667/bw/001.png","","","appealing"
"","","","","","animation","95","3201534","0.0-95.0","1920x1080","","4358.799999982119","67.99","img/117/4.5/1.5/bw/001.png","","","appealing"
"","","","","","animation","96","3204943","0.0-96.0","1920x1080","","3407.4000000059605","5","img/238/2.5/1.5/bw/001.png","","","appealing"
"","","","","","animation","97","3208487","0.0-97.0","1920x1080","","3542.7000000178814","99","img/314/5.5/1/bw/001.png","","","appealing"
"","","","","","animation","98","3214031","0.0-98.0","1920x1080","","5543","70.24","img/314/4.5/0.5/bw/001.png","","","appealing"
"","","","","","animation","99","3218815","0.0-99.0","1920x1080","","4782.799999982119","100","img/238/4.5/2/bw/001.png","","","appealing"
"","","","","","animation","100","3222550","0.0-100.0","1920x1080","","3733.800000011921","61.24","img/238/4.5/0.5/bw/001.png","","","appealing"
"","","","","","animation","101","3226207","0.0-101.0","1920x1080","","3655.2000000178814","34.39","img/314/4/0.5/bw/001.png","","","appealing"
"","","","","","animation","102","3228436","0.0-102.0","1920x1080","","2231.100000023842","24.07","img/117/4/0.5/bw/001.png","","","appealing"
"","","","","","animation","103","3231572","0.0-103.0","1920x1080","","3135","100","img/314/5.5/1.5/bw/001.png","","","appealing"
"","","","","","animation","104","3234477","0.0-104.0","1920x1080","","2904.100000023842","99","img/238/5.5/0.66667/bw/001.png","","","appealing"
"","","","","","animation","105","3237236","0.0-105.0","1920x1080","","2757.5","15.21","img/117/3.5/0.66667/bw/001.png","","","appealing"
"","","","","","animation","106","3240195","0.0-106.0","1920x1080","","2958.699999988079","99","img/117/5.5/2/bw/001.png","","","appealing"
"","","","","","animation","107","3243444","0.0-107.0","1920x1080","","3247.199999988079","57.54","img/238/4/2/bw/001.png","","","appealing"
"","","","","","animation","108","3246660","0.0-108.0","1920x1080","","3215.9000000059605","11.24","img/117/3.5/0.5/bw/001.png","","","appealing"
"","","","","","animation","109","3249283","0.0-109.0","1920x1080","","2622.300000011921","22.88","img/117/4.5/0.5/bw/001.png","","","appealing"
"","","","","","animation","110","3252695","0.0-110.0","1920x1080","","3410.2000000178814","0.53","img/238/2.5/1/bw/001.png","","","appealing"
"","","","","","animation","111","3260860","0.0-111.0","1920x1080","","8164","99","img/238/5.5/1/bw/001.png","","","appealing"
"","","","","","animation","112","3263345","0.0-112.0","1920x1080","","2482.399999976158","13.76","img/314/3.5/0.5/bw/001.png","","","appealing"
"","","","","","animation","113","3266084","0.0-113.0","1920x1080","","2738","27.91","img/238/4/1.5/bw/001.png","","","appealing"
"","","","","","animation","114","3268795","0.0-114.0","1920x1080","","2710.800000011921","82.01","img/314/5.5/0.66667/bw/001.png","","","appealing"
"","","","","","animation","115","3270878","0.0-115.0","1920x1080","","2081.5999999940395","86","img/238/5.5/0.5/bw/001.png","","","appealing"
"","","","","","animation","116","3273788","0.0-116.0","1920x1080","","2909","10.05","img/238/3.5/0.66667/bw/001.png","","","appealing"
"","","","","","animation","117","3277900","0.0-117.0","1920x1080","","4110.300000011921","89.95","img/314/4.5/2/bw/001.png","","","appealing"
"","","","","","animation","118","3291605","0.0-118.0","1920x1080","","13703","78.57","img/314/4.5/1/bw/001.png","","","appealing"
"","","","","","animation","119","3295765","0.0-119.0","1920x1080","","4158.5999999940395","0.53","img/238/2.5/0.5/bw/001.png","","","appealing"
"","","","","","animation","120","3298302","0.0-120.0","1920x1080","","2535","27.12","img/238/3.5/1.5/bw/001.png","","","appealing"
"","","","","","animation","121","3300749","0.0-121.0","1920x1080","","2446.7999999821186","5.82","img/314/2.5/1.5/bw/001.png","","","appealing"
"","","","","","animation","122","3302838","0.0-122.0","1920x1080","","2087.199999988079","5.82","img/117/3.5/1/bw/001.png","","","appealing"
"","","","","","animation","123","3305613","0.0-123.0","1920x1080","","2774.5","100","img/117/5.5/0.66667/bw/001.png","","","appealing"
"","","","","","animation","124","3309815","0.0-124.0","1920x1080","","4200.5999999940395","1.32","img/238/3.5/0.5/bw/001.png","","","appealing"
"","","","","","animation","125","3312762","0.0-125.0","1920x1080","","2946.4000000059605","98","img/238/5.5/2/bw/001.png","","","appealing"
"","","","","","animation","126","3316397","0.0-126.0","1920x1080","","3633.800000011921","30.95","img/314/4.5/0.66667/bw/001.png","","","appealing"
"","","","","","animation","127","3319080","0.0-127.0","1920x1080","","2681.9000000059605","8.33","img/238/4/0.5/bw/001.png","","","appealing"
"","","","","","animation","128","3322029","0.0-128.0","1920x1080","","2948.0999999940395","25.13","img/238/3.5/2/bw/001.png","","","appealing"
"","","","","","animation","129","3324497","0.0-129.0","1920x1080","","2466.600000023842","92.72","img/117/5.5/1/bw/001.png","","","appealing"
"","","","","","animation","130","3327714","0.0-130.0","1920x1080","","3215.5","58.86","img/238/4.5/1.5/bw/001.png","","","appealing"
"","","","","","animation","131","3330117","0.0-131.0","1920x1080","","2402.800000011921","14.68","img/314/3.5/2/bw/001.png","","","appealing"
"","","","","","animation","132","3333165","0.0-132.0","1920x1080","","3046.5999999940395","4.50","img/117/3.5/2/bw/001.png","","","appealing"
"","","","","","animation","133","3336362","0.0-133.0","1920x1080","","3195.699999988079","0","img/238/2.5/0.66667/bw/001.png","","","appealing"
"","","","","","animation","134","3340749","0.0-134.0","1920x1080","","4386","0","img/314/3.5/1/bw/001.png","","","appealing"
"","","","","","animation","135","3343845","0.0-135.0","1920x1080","","3095.199999988079","17.33","img/314/3.5/1.5/bw/001.png","","","appealing"
"","","","","","animation","136","3346765","0.0-136.0","1920x1080","","2918.9000000059605","9.26","img/117/3.5/1.5/bw/001.png","","","appealing"
"","","","","","animation","137","3349300","0.0-137.0","1920x1080","","2535.2000000178814","19.58","img/117/4.5/1/bw/001.png","","","appealing"
"","","","","","animation","138","3353236","0.0-138.0","1920x1080","","3935","100","img/314/5.5/2/bw/001.png","","","appealing"
"","","","","","animation","139","3356884","0.0-139.0","1920x1080","","3646.7000000178814","0.13","img/117/2.5/0.5/bw/001.png","","","appealing"
"","","","","","animation","140","3359844","0.0-140.0","1920x1080","","2959.199999988079","5.82","img/117/2.5/2/bw/001.png","","","appealing"
"","","","","","animation","141","3363095","0.0-141.0","1920x1080","","3249.699999988079","28.04","img/117/4.5/2/bw/001.png","","","appealing"
"","","","","","animation","142","3366015","0.0-142.0","1920x1080","","2919.7000000178814","0.40","img/117/2.5/1.5/bw/001.png","","","appealing"
"","","","","","animation","143","3369927","0.0-143.0","1920x1080","","3910.899999976158","0.40","img/314/3.5/0.66667/bw/001.png","","","appealing"
"","","","","","animation","144","3377662","0.0-144.0","1920x1080","","7734","100","img/314/5.5/0.5/bw/001.png","","","appealing"
"","","","","","animation","145","3381111","0.0-145.0","1920x1080","","3447.7999999821186","0","img/238/3.5/1/bw/001.png","","","appealing"
"","","","","","animation","146","3384652","0.0-146.0","1920x1080","","3539.600000023842","22.22","img/314/4/2/bw/001.png","","","appealing"
"","","","","","animation","147","3388484","0.0-147.0","1920x1080","","3830.9000000059605","96","img/117/5.5/1.5/bw/001.png","","","appealing"
"","","","","","animation","148","3395220","0.0-148.0","1920x1080","","6734.700000017881","83","img/314/4.5/1.5/bw/001.png","","","appealing"
"","","","","","animation","149","3401444","0.0-149.0","1920x1080","","6222.799999982119","0.00","img/314/2.5/2/bw/001.png","","","appealing"
"","","","","","animation","150","3405328","0.0-150.0","1920x1080","","3882.5999999940395","0","img/314/2.5/0.66667/bw/001.png","","","appealing"
"","","","","","animation","151","3407714","0.0-151.0","1920x1080","","2386.600000023842","58","img/117/5.5/0.5/bw/001.png","","","appealing"
"","","","","","animation","152","3410130","0.0-152.0","1920x1080","","2414.800000011921","31.35","img/117/4/1/bw/001.png","","","appealing"
"","","","","","animation","153","3413659","0.0-153.0","1920x1080","","3527.5","20.90","img/117/4.5/0.66667/bw/001.png","","","appealing"
"","","","","","animation","154","3420292","0.0-154.0","1920x1080","","6632.700000017881","18.39","img/117/4/1.5/bw/001.png","","","appealing"
"","","","","","animation","155","3423243","0.0-155.0","1920x1080","","2949.2999999821186","14.95","img/238/4.5/1/bw/001.png","","","appealing"
"","","","","","animation","156","3425514","0.0-156.0","1920x1080","","2270.5999999940395","15.87","img/117/4/0.66667/bw/001.png","","","appealing"
"","","","","","animation","157","3427509","0.0-157.0","1920x1080","","1993.5","44.84","img/314/4/1.5/bw/001.png","","","appealing"
"","","","","","animation","158","3430714","0.0-158.0","1920x1080","","3204.4000000059605","22.49","img/238/4/0.66667/bw/001.png","","","appealing"
"","","","","","html-button-response","159","3450395","0.0-159.0","1920x1080","","19679.100000023842","","<div class=""intro"">You are about to view a new series of animations.<br><br></div><div class=""intro"">You will evaluate them based on a different descriptor.<br><br></div><div class=""intro"">Move the slider to indicate how <strong style=""text-transform:capitalize"">RELAXING</strong> you find each animation.<br><br></div><div class=""intro"">0 = Least Relaxing<br></div><div class=""intro"">1 = Most Relaxing<br><br></div><div class=""intro"">Remember to use the <strong><em>entire range</em></strong> of the slider to make your ratings.<br></div><div class=""intro"">Please <strong><em>take your time</em></strong> and carefully consider each rating you make.<br><br></div>","0","",""
"","","","","","call-function","160","3450396","0.0-160.0","1920x1080","","","","","","",""
"","","","","","animation","161","3457075","0.0-161.0","1920x1080","","6679.0999999940395","0","img/314/3.5/0.5/bw/001.png","","","relaxing"
"","","","","","animation","162","3460346","0.0-162.0","1920x1080","","3269.699999988079","0","img/238/2.5/1.5/bw/001.png","","","relaxing"
"","","","","","animation","163","3464162","0.0-163.0","1920x1080","","3814.699999988079","0.79","img/238/2.5/2/bw/001.png","","","relaxing"
"","","","","","animation","164","3467579","0.0-164.0","1920x1080","","3411.5999999940395","4.50","img/314/3.5/2/bw/001.png","","","relaxing"
"","","","","","animation","165","3470582","0.0-165.0","1920x1080","","3002","1.59","img/314/2.5/0.5/bw/001.png","","","relaxing"
"","","","","","animation","166","3473230","0.0-166.0","1920x1080","","2646.9000000059605","0","img/117/2.5/1/bw/001.png","","","relaxing"
"","","","","","animation","167","3476039","0.0-167.0","1920x1080","","2807.4000000059605","100","img/314/5.5/2/bw/001.png","","","relaxing"
"","","","","","animation","168","3478935","0.0-168.0","1920x1080","","2895.0999999940395","0","img/238/3.5/0.5/bw/001.png","","","relaxing"
"","","","","","animation","169","3483503","0.0-169.0","1920x1080","","4567","74","img/314/4.5/2/bw/001.png","","","relaxing"
"","","","","","animation","170","3487055","0.0-170.0","1920x1080","","3551","1.98","img/117/2.5/0.66667/bw/001.png","","","relaxing"
"","","","","","animation","171","3490687","0.0-171.0","1920x1080","","3631","1.19","img/314/2.5/0.66667/bw/001.png","","","relaxing"
"","","","","","animation","172","3494918","0.0-172.0","1920x1080","","4230.5","0.93","img/238/4/0.5/bw/001.png","","","relaxing"
"","","","","","animation","173","3498116","0.0-173.0","1920x1080","","3196.699999988079","0","img/117/4/1/bw/001.png","","","relaxing"
"","","","","","animation","174","3503319","0.0-174.0","1920x1080","","5200.300000011921","33","img/238/3.5/1.5/bw/001.png","","","relaxing"
"","","","","","animation","175","3506630","0.0-175.0","1920x1080","","3310.4000000059605","1.72","img/117/2.5/1.5/bw/001.png","","","relaxing"
"","","","","","animation","176","3510680","0.0-176.0","1920x1080","","4048.300000011921","100","img/117/5.5/1.5/bw/001.png","","","relaxing"
"","","","","","animation","177","3514513","0.0-177.0","1920x1080","","3832.0999999940395","31.22","img/314/4/1/bw/001.png","","","relaxing"
"","","","","","animation","178","3517163","0.0-178.0","1920x1080","","2649.199999988079","78.44","img/238/5.5/0.5/bw/001.png","","","relaxing"
"","","","","","animation","179","3520039","0.0-179.0","1920x1080","","2874.4000000059605","3.84","img/117/4/0.5/bw/001.png","","","relaxing"
"","","","","","animation","180","3523023","0.0-180.0","1920x1080","","2982.800000011921","3","img/238/4.5/0.66667/bw/001.png","","","relaxing"
"","","","","","animation","181","3526423","0.0-181.0","1920x1080","","3398.699999988079","58.47","img/314/5.5/0.66667/bw/001.png","","","relaxing"
"","","","","","animation","182","3529252","0.0-182.0","1920x1080","","2830.5999999940395","4.89","img/238/3.5/1/bw/001.png","","","relaxing"
"","","","","","animation","183","3532213","0.0-183.0","1920x1080","","2959","5.16","img/117/3.5/0.5/bw/001.png","","","relaxing"
"","","","","","animation","184","3534511","0.0-184.0","1920x1080","","2297","11.77","img/238/3.5/0.66667/bw/001.png","","","relaxing"
"","","","","","animation","185","3548278","0.0-185.0","1920x1080","","13765.299999982119","100","img/314/5.5/1/bw/001.png","","","relaxing"
"","","","","","animation","186","3554620","0.0-186.0","1920x1080","","6341.5","49","img/117/4/1.5/bw/001.png","","","relaxing"
"","","","","","animation","187","3556944","0.0-187.0","1920x1080","","2322.4000000059605","27.65","img/314/4.5/0.5/bw/001.png","","","relaxing"
"","","","","","animation","188","3560444","0.0-188.0","1920x1080","","3499.0999999940395","99","img/238/5.5/2/bw/001.png","","","relaxing"
"","","","","","animation","189","3564020","0.0-189.0","1920x1080","","3575.300000011921","99","img/238/5.5/1.5/bw/001.png","","","relaxing"
"","","","","","animation","190","3567394","0.0-190.0","1920x1080","","3372.2000000178814","21.83","img/117/4.5/0.5/bw/001.png","","","relaxing"
"","","","","","animation","191","3569494","0.0-191.0","1920x1080","","2099","12","img/117/4.5/0.66667/bw/001.png","","","relaxing"
"","","","","","animation","192","3571778","0.0-192.0","1920x1080","","2283","44.97","img/117/4.5/2/bw/001.png","","","relaxing"
"","","","","","animation","193","3574948","0.0-193.0","1920x1080","","3169","4.63","img/238/4/0.66667/bw/001.png","","","relaxing"
"","","","","","animation","194","3577346","0.0-194.0","1920x1080","","2396.699999988079","1.98","img/238/2.5/1/bw/001.png","","","relaxing"
"","","","","","animation","195","3580020","0.0-195.0","1920x1080","","2673.2000000178814","27","img/314/4.5/1.5/bw/001.png","","","relaxing"
"","","","","","animation","196","3583748","0.0-196.0","1920x1080","","3726.600000023842","2","img/117/3.5/1/bw/001.png","","","relaxing"
"","","","","","animation","197","3592982","0.0-197.0","1920x1080","","9229.699999988079","43.78","img/238/4/2/bw/001.png","","","relaxing"
"","","","","","animation","198","3594839","0.0-198.0","1920x1080","","1855.300000011921","42.86","img/117/4/2/bw/001.png","","","relaxing"
"","","","","","animation","199","3598919","0.0-199.0","1920x1080","","4079","98","img/238/5.5/0.66667/bw/001.png","","","relaxing"
"","","","","","animation","200","3603613","0.0-200.0","1920x1080","","4692.5","97","img/238/5.5/1/bw/001.png","","","relaxing"
"","","","","","animation","201","3606547","0.0-201.0","1920x1080","","2933.0999999940395","98","img/117/5.5/2/bw/001.png","","","relaxing"
"","","","","","animation","202","3609047","0.0-202.0","1920x1080","","2498.300000011921","1.32","img/238/2.5/0.66667/bw/001.png","","","relaxing"
"","","","","","animation","203","3611613","0.0-203.0","1920x1080","","2564.800000011921","2.51","img/117/2.5/0.5/bw/001.png","","","relaxing"
"","","","","","animation","204","3615848","0.0-204.0","1920x1080","","4233.5999999940395","26.46","img/314/4.5/0.66667/bw/001.png","","","relaxing"
"","","","","","animation","205","3618287","0.0-205.0","1920x1080","","2438","11","img/117/3.5/0.66667/bw/001.png","","","relaxing"
"","","","","","animation","206","3621271","0.0-206.0","1920x1080","","2982.800000011921","48","img/117/3.5/1.5/bw/001.png","","","relaxing"
"","","","","","animation","207","3625763","0.0-207.0","1920x1080","","4491.200000017881","48.54","img/117/3.5/2/bw/001.png","","","relaxing"
"","","","","","animation","208","3628071","0.0-208.0","1920x1080","","2306.4000000059605","52.51","img/238/4.5/1.5/bw/001.png","","","relaxing"
"","","","","","animation","209","3630566","0.0-209.0","1920x1080","","2494.4000000059605","48.68","img/314/4/1.5/bw/001.png","","","relaxing"
"","","","","","animation","210","3633055","0.0-210.0","1920x1080","","2487.5","44.84","img/238/4/1/bw/001.png","","","relaxing"
"","","","","","animation","211","3636071","0.0-211.0","1920x1080","","3014.5999999940395","92.59","img/314/5.5/1.5/bw/001.png","","","relaxing"
"","","","","","animation","212","3639135","0.0-212.0","1920x1080","","3062.7000000178814","46.43","img/314/4/2/bw/001.png","","","relaxing"
"","","","","","animation","213","3641613","0.0-213.0","1920x1080","","2476.699999988079","22.09","img/314/4/0.66667/bw/001.png","","","relaxing"
"","","","","","animation","214","3643950","0.0-214.0","1920x1080","","2336.699999988079","13.36","img/238/4.5/0.5/bw/001.png","","","relaxing"
"","","","","","animation","215","3647114","0.0-215.0","1920x1080","","3162.4000000059605","3.57","img/314/2.5/2/bw/001.png","","","relaxing"
"","","","","","animation","216","3649899","0.0-216.0","1920x1080","","2781.2999999821186","20.11","img/238/4.5/1/bw/001.png","","","relaxing"
"","","","","","animation","217","3652565","0.0-217.0","1920x1080","","2665.7000000178814","22.09","img/117/4.5/1/bw/001.png","","","relaxing"
"","","","","","animation","218","3713777","0.0-218.0","1920x1080","","61215.5","13.10","img/117/4.5/1.5/bw/001.png","","","relaxing"
"","","","","","animation","219","3716964","0.0-219.0","1920x1080","","3185.699999988079","99","img/314/5.5/0.5/bw/001.png","","","relaxing"
"","","","","","animation","220","3720226","0.0-220.0","1920x1080","","3261.2999999821186","0","img/314/2.5/1.5/bw/001.png","","","relaxing"
"","","","","","animation","221","3725995","0.0-221.0","1920x1080","","5767.699999988079","15.48","img/314/4/0.5/bw/001.png","","","relaxing"
"","","","","","animation","222","3730611","0.0-222.0","1920x1080","","4613.9000000059605","0.53","img/314/2.5/1/bw/001.png","","","relaxing"
"","","","","","animation","223","3734026","0.0-223.0","1920x1080","","3414.0999999940395","0","img/314/3.5/0.66667/bw/001.png","","","relaxing"
"","","","","","animation","224","3738011","0.0-224.0","1920x1080","","3983","12.57","img/314/3.5/1.5/bw/001.png","","","relaxing"
"","","","","","animation","225","3742852","0.0-225.0","1920x1080","","4839.9000000059605","43.25","img/117/5.5/0.5/bw/001.png","","","relaxing"
"","","","","","animation","226","3745332","0.0-226.0","1920x1080","","2478.5999999940395","48.54","img/117/5.5/0.66667/bw/001.png","","","relaxing"
"","","","","","animation","227","3747160","0.0-227.0","1920x1080","","1827.300000011921","46.43","img/117/5.5/1/bw/001.png","","","relaxing"
"","","","","","animation","228","3749642","0.0-228.0","1920x1080","","2481.199999988079","34.39","img/238/4.5/2/bw/001.png","","","relaxing"
"","","","","","animation","229","3753763","0.0-229.0","1920x1080","","4119.699999988079","2.12","img/117/2.5/2/bw/001.png","","","relaxing"
"","","","","","animation","230","3757548","0.0-230.0","1920x1080","","3783","37","img/238/3.5/2/bw/001.png","","","relaxing"
"","","","","","animation","231","3762499","0.0-231.0","1920x1080","","4950.5999999940395","10.32","img/117/4/0.66667/bw/001.png","","","relaxing"
"","","","","","animation","232","3769630","0.0-232.0","1920x1080","","7126.5","5.95","img/314/4.5/1/bw/001.png","","","relaxing"
"","","","","","animation","233","3773598","0.0-233.0","1920x1080","","3966.7999999821186","0.40","img/238/2.5/0.5/bw/001.png","","","relaxing"
"","","","","","animation","234","3785318","0.0-234.0","1920x1080","","11718.5","47","img/238/4/1.5/bw/001.png","","","relaxing"
"","","","","","animation","235","3787382","0.0-235.0","1920x1080","","2062.4000000059605","27.38","img/314/3.5/1/bw/001.png","","","relaxing"
"","","","","","html-button-response","236","3806780","0.0-236.0","1920x1080","","19396.90000000596","","<div class=""intro"">You are about to view a new series of animations.<br><br></div><div class=""intro"">You will evaluate them based on a different descriptor.<br><br></div><div class=""intro"">Move the slider to indicate how <strong style=""text-transform:capitalize"">NATURAL</strong> you find each animation.<br><br></div><div class=""intro"">0 = Least Natural<br></div><div class=""intro"">1 = Most Natural<br><br></div><div class=""intro"">Remember to use the <strong><em>entire range</em></strong> of the slider to make your ratings.<br></div><div class=""intro"">Please <strong><em>take your time</em></strong> and carefully consider each rating you make.<br><br></div>","0","",""
"","","","","","call-function","237","3806781","0.0-237.0","1920x1080","","","","","","",""
"","","","","","animation","238","3810598","0.0-238.0","1920x1080","","3816.4000000059605","79.89","img/117/5.5/0.5/bw/001.png","","","natural"
"","","","","","animation","239","3814062","0.0-239.0","1920x1080","","3462.5999999940395","99","img/238/5.5/2/bw/001.png","","","natural"
"","","","","","animation","240","3816262","0.0-240.0","1920x1080","","2197","99","img/314/5.5/1.5/bw/001.png","","","natural"
"","","","","","animation","241","3818598","0.0-241.0","1920x1080","","2334.699999988079","99","img/238/5.5/1/bw/001.png","","","natural"
"","","","","","animation","242","3821545","0.0-242.0","1920x1080","","2946.0999999940395","39.95","img/117/4.5/1/bw/001.png","","","natural"
"","","","","","animation","243","3829260","0.0-243.0","1920x1080","","7708","33","img/314/3.5/0.5/bw/001.png","","","natural"
"","","","","","animation","244","3832818","0.0-244.0","1920x1080","","3554.5999999940395","76.46","img/117/3.5/2/bw/001.png","","","natural"
"","","","","","animation","245","3835260","0.0-245.0","1920x1080","","2441","72.09","img/238/3.5/2/bw/001.png","","","natural"
"","","","","","animation","246","3839876","0.0-246.0","1920x1080","","4614.9000000059605","46.30","img/117/2.5/1.5/bw/001.png","","","natural"
"","","","","","animation","247","3846568","0.0-247.0","1920x1080","","6690.199999988079","76.46","img/314/4.5/1/bw/001.png","","","natural"
"","","","","","animation","248","3850988","0.0-248.0","1920x1080","","4416.199999988079","71","img/238/4/1.5/bw/001.png","","","natural"
"","","","","","animation","249","3856924","0.0-249.0","1920x1080","","5933.5999999940395","31.35","img/117/4/0.66667/bw/001.png","","","natural"
"","","","","","animation","250","3860820","0.0-250.0","1920x1080","","3893.7999999821186","64.02","img/314/4.5/2/bw/001.png","","","natural"
"","","","","","animation","251","3863385","0.0-251.0","1920x1080","","2563.9000000059605","30.82","img/238/4/0.66667/bw/001.png","","","natural"
"","","","","","animation","252","3866820","0.0-252.0","1920x1080","","3433.699999988079","2.12","img/314/2.5/0.66667/bw/001.png","","","natural"
"","","","","","animation","253","3869818","0.0-253.0","1920x1080","","2997.199999988079","3.97","img/117/2.5/1/bw/001.png","","","natural"
"","","","","","animation","254","3872268","0.0-254.0","1920x1080","","2448.0999999940395","5","img/238/3.5/0.5/bw/001.png","","","natural"
"","","","","","animation","255","3876301","0.0-255.0","1920x1080","","4032.2999999821186","71.16","img/314/4.5/0.66667/bw/001.png","","","natural"
"","","","","","animation","256","3888380","0.0-256.0","1920x1080","","12085.199999988079","87.43","img/314/4/1.5/bw/001.png","","","natural"
"","","","","","animation","257","3893228","0.0-257.0","1920x1080","","4846.0999999940395","84.13","img/314/3.5/2/bw/001.png","","","natural"
"","","","","","animation","258","3898612","0.0-258.0","1920x1080","","5382.799999982119","21.43","img/117/4.5/0.66667/bw/001.png","","","natural"
"","","","","","animation","259","3900932","0.0-259.0","1920x1080","","2318.699999988079","11.64","img/117/3.5/0.5/bw/001.png","","","natural"
"","","","","","animation","260","3904917","0.0-260.0","1920x1080","","3981.2000000178814","80","img/117/4.5/2/bw/001.png","","","natural"
"","","","","","animation","261","3908822","0.0-261.0","1920x1080","","3904","4.76","img/238/4/0.5/bw/001.png","","","natural"
"","","","","","animation","262","3912516","0.0-262.0","1920x1080","","3692.7000000178814","75.26","img/117/4/1.5/bw/001.png","","","natural"
"","","","","","animation","263","3917310","0.0-263.0","1920x1080","","4792.5999999940395","2.12","img/314/4.5/0.5/bw/001.png","","","natural"
"","","","","","animation","264","3920161","0.0-264.0","1920x1080","","2849.5","28.57","img/238/2.5/2/bw/001.png","","","natural"
"","","","","","animation","265","3922933","0.0-265.0","1920x1080","","2767.9000000059605","35.58","img/314/2.5/2/bw/001.png","","","natural"
"","","","","","animation","266","3925396","0.0-266.0","1920x1080","","2462.2999999821186","96","img/117/5.5/1/bw/001.png","","","natural"
"","","","","","animation","267","3928765","0.0-267.0","1920x1080","","3367.0999999940395","97","img/238/5.5/0.5/bw/001.png","","","natural"
"","","","","","animation","268","3931494","0.0-268.0","1920x1080","","2727.699999988079","57","img/314/4/0.66667/bw/001.png","","","natural"
"","","","","","animation","269","3935285","0.0-269.0","1920x1080","","3788.5999999940395","13.23","img/238/2.5/1/bw/001.png","","","natural"
"","","","","","animation","270","3938077","0.0-270.0","1920x1080","","2790.5999999940395","95","img/117/5.5/2/bw/001.png","","","natural"
"","","","","","animation","271","3941944","0.0-271.0","1920x1080","","3866.0999999940395","3.84","img/117/3.5/1/bw/001.png","","","natural"
"","","","","","animation","272","3956040","0.0-272.0","1920x1080","","14098.59999999404","4","img/238/2.5/0.66667/bw/001.png","","","natural"
"","","","","","animation","273","3959473","0.0-273.0","1920x1080","","3431.0999999940395","100","img/314/5.5/2/bw/001.png","","","natural"
"","","","","","animation","274","3962193","0.0-274.0","1920x1080","","2718.5","66.67","img/238/4/2/bw/001.png","","","natural"
"","","","","","animation","275","3966529","0.0-275.0","1920x1080","","4335.199999988079","3.17","img/314/4/0.5/bw/001.png","","","natural"
"","","","","","animation","276","3970408","0.0-276.0","1920x1080","","3878.2999999821186","5.29","img/117/3.5/0.66667/bw/001.png","","","natural"
"","","","","","animation","277","3979640","0.0-277.0","1920x1080","","9229.799999982119","27.38","img/314/3.5/0.66667/bw/001.png","","","natural"
"","","","","","animation","278","3983056","0.0-278.0","1920x1080","","3415.199999988079","50","img/238/4.5/0.66667/bw/001.png","","","natural"
"","","","","","animation","279","3991209","0.0-279.0","1920x1080","","8150.699999988079","68","img/238/4.5/2/bw/001.png","","","natural"
"","","","","","animation","280","3993872","0.0-280.0","1920x1080","","2662.699999988079","84","img/314/5.5/0.66667/bw/001.png","","","natural"
"","","","","","animation","281","3996373","0.0-281.0","1920x1080","","2499.2999999821186","29.50","img/238/4.5/0.5/bw/001.png","","","natural"
"","","","","","animation","282","3999592","0.0-282.0","1920x1080","","3218.199999988079","39.15","img/314/3.5/1/bw/001.png","","","natural"
"","","","","","animation","283","4002624","0.0-283.0","1920x1080","","3030.699999988079","30.29","img/117/4.5/0.5/bw/001.png","","","natural"
"","","","","","animation","284","4005097","0.0-284.0","1920x1080","","2471.0999999940395","59","img/238/4.5/1.5/bw/001.png","","","natural"
"","","","","","animation","285","4007891","0.0-285.0","1920x1080","","2791.5","97","img/314/5.5/1/bw/001.png","","","natural"
"","","","","","animation","286","4010424","0.0-286.0","1920x1080","","2532","28.44","img/238/3.5/1.5/bw/001.png","","","natural"
"","","","","","animation","287","4013482","0.0-287.0","1920x1080","","3056.5","97","img/238/5.5/1.5/bw/001.png","","","natural"
"","","","","","animation","288","4016690","0.0-288.0","1920x1080","","3207.4000000059605","46.16","img/117/4.5/1.5/bw/001.png","","","natural"
"","","","","","animation","289","4019341","0.0-289.0","1920x1080","","2649.0999999940395","35.45","img/238/4/1/bw/001.png","","","natural"
"","","","","","animation","290","4022993","0.0-290.0","1920x1080","","3650.699999988079","8","img/314/2.5/1/bw/001.png","","","natural"
"","","","","","animation","291","4025825","0.0-291.0","1920x1080","","2830.699999988079","97","img/117/5.5/1.5/bw/001.png","","","natural"
"","","","","","animation","292","4030194","0.0-292.0","1920x1080","","4367.699999988079","23.41","img/117/4/0.5/bw/001.png","","","natural"
"","","","","","animation","293","4038041","0.0-293.0","1920x1080","","7844.5999999940395","74","img/314/4.5/1.5/bw/001.png","","","natural"
"","","","","","animation","294","4040913","0.0-294.0","1920x1080","","2871.600000023842","3.97","img/314/2.5/0.5/bw/001.png","","","natural"
"","","","","","animation","295","4044145","0.0-295.0","1920x1080","","3230.5","4","img/117/2.5/0.5/bw/001.png","","","natural"
"","","","","","animation","296","4047914","0.0-296.0","1920x1080","","3767.0999999940395","18.12","img/117/4/1/bw/001.png","","","natural"
"","","","","","animation","297","4050690","0.0-297.0","1920x1080","","2775.5","98","img/314/5.5/0.5/bw/001.png","","","natural"
"","","","","","animation","298","4053507","0.0-298.0","1920x1080","","2815.7000000178814","7.94","img/238/2.5/1.5/bw/001.png","","","natural"
"","","","","","animation","299","4057330","0.0-299.0","1920x1080","","3820.9000000059605","15.21","img/314/4/1/bw/001.png","","","natural"
"","","","","","animation","300","4060945","0.0-300.0","1920x1080","","3614.5","4.63","img/117/2.5/2/bw/001.png","","","natural"
"","","","","","animation","301","4071025","0.0-301.0","1920x1080","","10076.5","4.37","img/238/3.5/0.66667/bw/001.png","","","natural"
"","","","","","animation","302","4073391","0.0-302.0","1920x1080","","2364.5999999940395","27","img/117/4/2/bw/001.png","","","natural"
"","","","","","animation","303","4076508","0.0-303.0","1920x1080","","3115.199999988079","2","img/117/2.5/0.66667/bw/001.png","","","natural"
"","","","","","animation","304","4079325","0.0-304.0","1920x1080","","2815.4000000059605","100","img/238/5.5/0.66667/bw/001.png","","","natural"
"","","","","","animation","305","4082642","0.0-305.0","1920x1080","","3315.699999988079","4.23","img/238/2.5/0.5/bw/001.png","","","natural"
"","","","","","animation","306","4086408","0.0-306.0","1920x1080","","3765.199999988079","13","img/238/3.5/1/bw/001.png","","","natural"
"","","","","","animation","307","4091308","0.0-307.0","1920x1080","","4898.5","16.01","img/314/3.5/1.5/bw/001.png","","","natural"
"","","","","","animation","308","4093875","0.0-308.0","1920x1080","","2564.9000000059605","1","img/314/2.5/1.5/bw/001.png","","","natural"
"","","","","","animation","309","4097241","0.0-309.0","1920x1080","","3364.800000011921","72.35","img/238/4.5/1/bw/001.png","","","natural"
"","","","","","animation","310","4101578","0.0-310.0","1920x1080","","4335.199999988079","50.66","img/314/4/2/bw/001.png","","","natural"
"","","","","","animation","311","4103691","0.0-311.0","1920x1080","","2111.9000000059605","32.80","img/117/3.5/1.5/bw/001.png","","","natural"
"","","","","","animation","312","4106330","0.0-312.0","1920x1080","","2638","97","img/117/5.5/0.66667/bw/001.png","","","natural"
"","","","","","html-button-response","313","4125382","0.0-313.0","1920x1080","","19050.59999999404","","<div class=""intro"">You are about to view a new series of animations.<br><br></div><div class=""intro"">You will evaluate them based on a different descriptor.<br><br></div><div class=""intro"">Move the slider to indicate how <strong style=""text-transform:capitalize"">INTERESTING</strong> you find each animation.<br><br></div><div class=""intro"">0 = Least Interesting<br></div><div class=""intro"">1 = Most Interesting<br><br></div><div class=""intro"">Remember to use the <strong><em>entire range</em></strong> of the slider to make your ratings.<br></div><div class=""intro"">Please <strong><em>take your time</em></strong> and carefully consider each rating you make.<br><br></div>","0","",""
"","","","","","call-function","314","4125383","0.0-314.0","1920x1080","","","","","","",""
"","","","","","animation","315","4132178","0.0-315.0","1920x1080","","6794.0999999940395","55","img/117/3.5/0.5/bw/001.png","","","interesting"
"","","","","","animation","316","4135746","0.0-316.0","1920x1080","","3566.5999999940395","100","img/238/5.5/1.5/bw/001.png","","","interesting"
"","","","","","animation","317","4138562","0.0-317.0","1920x1080","","2815","29.76","img/238/3.5/0.5/bw/001.png","","","interesting"
"","","","","","animation","318","4142026","0.0-318.0","1920x1080","","3462.2999999821186","62.43","img/117/4/1/bw/001.png","","","interesting"
"","","","","","animation","319","4144930","0.0-319.0","1920x1080","","2903.0999999940395","1.98","img/117/2.5/1/bw/001.png","","","interesting"
"","","","","","animation","320","4147410","0.0-320.0","1920x1080","","2478.2999999821186","21.83","img/117/4/1.5/bw/001.png","","","interesting"
"","","","","","animation","321","4151845","0.0-321.0","1920x1080","","4433.5","17.59","img/314/3.5/1/bw/001.png","","","interesting"
"","","","","","animation","322","4154241","0.0-322.0","1920x1080","","2394.7000000178814","3.57","img/314/2.5/2/bw/001.png","","","interesting"
"","","","","","animation","323","4156994","0.0-323.0","1920x1080","","2751.5","21.69","img/314/4/0.66667/bw/001.png","","","interesting"
"","","","","","animation","324","4161291","0.0-324.0","1920x1080","","4296.0999999940395","85.32","img/314/5.5/2/bw/001.png","","","interesting"
"","","","","","animation","325","4168130","0.0-325.0","1920x1080","","6836.899999976158","35.71","img/238/4.5/0.5/bw/001.png","","","interesting"
"","","","","","animation","326","4171224","0.0-326.0","1920x1080","","3092.800000011921","2.78","img/314/2.5/0.66667/bw/001.png","","","interesting"
"","","","","","animation","327","4174778","0.0-327.0","1920x1080","","3552.300000011921","97","img/117/5.5/1.5/bw/001.png","","","interesting"
"","","","","","animation","328","4177333","0.0-328.0","1920x1080","","2553.199999988079","71.43","img/117/4.5/2/bw/001.png","","","interesting"
"","","","","","animation","329","4180996","0.0-329.0","1920x1080","","3660.7000000178814","58","img/117/4.5/0.66667/bw/001.png","","","interesting"
"","","","","","animation","330","4184075","0.0-330.0","1920x1080","","3076.9000000059605","47.75","img/238/3.5/1/bw/001.png","","","interesting"
"","","","","","animation","331","4186778","0.0-331.0","1920x1080","","2702.300000011921","37.83","img/314/3.5/2/bw/001.png","","","interesting"
"","","","","","animation","332","4190459","0.0-332.0","1920x1080","","3655.300000011921","35.32","img/314/4/0.5/bw/001.png","","","interesting"
"","","","","","animation","333","4193204","0.0-333.0","1920x1080","","2742.9000000059605","0.93","img/238/2.5/0.5/bw/001.png","","","interesting"
"","","","","","animation","334","4197710","0.0-334.0","1920x1080","","4505.4000000059605","76.98","img/238/4.5/2/bw/001.png","","","interesting"
"","","","","","animation","335","4200254","0.0-335.0","1920x1080","","2541.9000000059605","15.74","img/117/3.5/0.66667/bw/001.png","","","interesting"
"","","","","","animation","336","4203088","0.0-336.0","1920x1080","","2832.5","99","img/238/5.5/0.66667/bw/001.png","","","interesting"
"","","","","","animation","337","4208991","0.0-337.0","1920x1080","","5902","2.78","img/117/2.5/0.66667/bw/001.png","","","interesting"
"","","","","","animation","338","4211954","0.0-338.0","1920x1080","","2961.2999999821186","12.43","img/314/3.5/1.5/bw/001.png","","","interesting"
"","","","","","animation","339","4220357","0.0-339.0","1920x1080","","8401.5","35","img/314/4/1.5/bw/001.png","","","interesting"
"","","","","","animation","340","4222509","0.0-340.0","1920x1080","","2151.4000000059605","43.39","img/238/4.5/1.5/bw/001.png","","","interesting"
"","","","","","animation","341","4225113","0.0-341.0","1920x1080","","2602.699999988079","42","img/314/4.5/2/bw/001.png","","","interesting"
"","","","","","animation","342","4228648","0.0-342.0","1920x1080","","3532.699999988079","100","img/314/5.5/0.66667/bw/001.png","","","interesting"
"","","","","","animation","343","4232258","0.0-343.0","1920x1080","","3607.5","100","img/117/5.5/1/bw/001.png","","","interesting"
"","","","","","animation","344","4234906","0.0-344.0","1920x1080","","2646.5999999940395","46.56","img/117/4/0.66667/bw/001.png","","","interesting"
"","","","","","animation","345","4238687","0.0-345.0","1920x1080","","3780","37.83","img/238/4/1.5/bw/001.png","","","interesting"
"","","","","","animation","346","4242622","0.0-346.0","1920x1080","","3933.5999999940395","14.42","img/238/3.5/1.5/bw/001.png","","","interesting"
"","","","","","animation","347","4248512","0.0-347.0","1920x1080","","5880.0999999940395","20.77","img/117/4/2/bw/001.png","","","interesting"
"","","","","","animation","348","4254813","0.0-348.0","1920x1080","","6298.4000000059605","7.28","img/238/3.5/0.66667/bw/001.png","","","interesting"
"","","","","","animation","349","4263225","0.0-349.0","1920x1080","","8410.699999988079","29.37","img/314/4.5/1/bw/001.png","","","interesting"
"","","","","","animation","350","4266696","0.0-350.0","1920x1080","","3469.2999999821186","4.63","img/238/2.5/2/bw/001.png","","","interesting"
"","","","","","animation","351","4270152","0.0-351.0","1920x1080","","3454.4000000059605","11.38","img/117/3.5/1/bw/001.png","","","interesting"
"","","","","","animation","352","4274697","0.0-352.0","1920x1080","","4543","19.97","img/238/4.5/0.66667/bw/001.png","","","interesting"
"","","","","","animation","353","4278977","0.0-353.0","1920x1080","","4278.5","98","img/314/5.5/0.5/bw/001.png","","","interesting"
"","","","","","animation","354","4281862","0.0-354.0","1920x1080","","2883.5","80.42","img/314/4.5/0.66667/bw/001.png","","","interesting"
"","","","","","animation","355","4285847","0.0-355.0","1920x1080","","3983.5","80.95","img/238/4/2/bw/001.png","","","interesting"
"","","","","","animation","356","4289919","0.0-356.0","1920x1080","","4068.9000000059605","73","img/117/4.5/1/bw/001.png","","","interesting"
"","","","","","animation","357","4293030","0.0-357.0","1920x1080","","3108.7999999821186","95","img/314/5.5/1/bw/001.png","","","interesting"
"","","","","","animation","358","4296230","0.0-358.0","1920x1080","","3199.199999988079","17.06","img/117/4.5/0.5/bw/001.png","","","interesting"
"","","","","","animation","359","4302629","0.0-359.0","1920x1080","","6397.299999982119","69.18","img/117/5.5/0.5/bw/001.png","","","interesting"
"","","","","","animation","360","4307195","0.0-360.0","1920x1080","","4565.200000017881","0.40","img/238/2.5/1/bw/001.png","","","interesting"
"","","","","","animation","361","4310024","0.0-361.0","1920x1080","","2832.7999999821186","15","img/314/4/2/bw/001.png","","","interesting"
"","","","","","animation","362","4313162","0.0-362.0","1920x1080","","3136.300000011921","9.92","img/238/4/1/bw/001.png","","","interesting"
"","","","","","animation","363","4315599","0.0-363.0","1920x1080","","2434.199999988079","20.11","img/117/3.5/2/bw/001.png","","","interesting"
"","","","","","animation","364","4319008","0.0-364.0","1920x1080","","3408","23.94","img/117/3.5/1.5/bw/001.png","","","interesting"
"","","","","","animation","365","4321760","0.0-365.0","1920x1080","","2750.5999999940395","4","img/314/3.5/0.66667/bw/001.png","","","interesting"
"","","","","","animation","366","4326008","0.0-366.0","1920x1080","","4246.0999999940395","0.79","img/314/2.5/1.5/bw/001.png","","","interesting"
"","","","","","animation","367","4329173","0.0-367.0","1920x1080","","3162.300000011921","48.81","img/117/4.5/1.5/bw/001.png","","","interesting"
"","","","","","animation","368","4332807","0.0-368.0","1920x1080","","3632.800000011921","100","img/238/5.5/2/bw/001.png","","","interesting"
"","","","","","animation","369","4336523","0.0-369.0","1920x1080","","3714.2000000178814","28.31","img/238/4/0.66667/bw/001.png","","","interesting"
"","","","","","animation","370","4345056","0.0-370.0","1920x1080","","8531.699999988079","10.58","img/314/4/1/bw/001.png","","","interesting"
"","","","","","animation","371","4348433","0.0-371.0","1920x1080","","3374.5","99","img/238/5.5/1/bw/001.png","","","interesting"
"","","","","","animation","372","4351156","0.0-372.0","1920x1080","","2720.699999988079","53.57","img/314/4.5/1.5/bw/001.png","","","interesting"
"","","","","","animation","373","4356807","0.0-373.0","1920x1080","","5649.699999988079","1.32","img/117/2.5/0.5/bw/001.png","","","interesting"
"","","","","","animation","374","4361923","0.0-374.0","1920x1080","","5111.800000011921","5.56","img/117/4/0.5/bw/001.png","","","interesting"
"","","","","","animation","375","4368305","0.0-375.0","1920x1080","","6375.100000023842","3.97","img/314/3.5/0.5/bw/001.png","","","interesting"
"","","","","","animation","376","4373582","0.0-376.0","1920x1080","","5275.199999988079","5.69","img/238/4/0.5/bw/001.png","","","interesting"
"","","","","","animation","377","4377929","0.0-377.0","1920x1080","","4344.600000023842","0","img/314/2.5/0.5/bw/001.png","","","interesting"
"","","","","","animation","378","4381011","0.0-378.0","1920x1080","","3079.9000000059605","99","img/117/5.5/2/bw/001.png","","","interesting"
"","","","","","animation","379","4384620","0.0-379.0","1920x1080","","3607.699999988079","2.78","img/117/2.5/1.5/bw/001.png","","","interesting"
"","","","","","animation","380","4390745","0.0-380.0","1920x1080","","6122.5999999940395","100","img/117/5.5/0.66667/bw/001.png","","","interesting"
"","","","","","animation","381","4393131","0.0-381.0","1920x1080","","2384.899999976158","77.51","img/314/4.5/0.5/bw/001.png","","","interesting"
"","","","","","animation","382","4397414","0.0-382.0","1920x1080","","4281.199999988079","99","img/314/5.5/1.5/bw/001.png","","","interesting"
"","","","","","animation","383","4399850","0.0-383.0","1920x1080","","2434.4000000059605","2","img/314/2.5/1/bw/001.png","","","interesting"
"","","","","","animation","384","4403363","0.0-384.0","1920x1080","","3511.5999999940395","4","img/238/2.5/0.66667/bw/001.png","","","interesting"
"","","","","","animation","385","4406028","0.0-385.0","1920x1080","","2663.0999999940395","0","img/238/2.5/1.5/bw/001.png","","","interesting"
"","","","","","animation","386","4409661","0.0-386.0","1920x1080","","3631.399999976158","21","img/238/4.5/1/bw/001.png","","","interesting"
"","","","","","animation","387","4413815","0.0-387.0","1920x1080","","4151.5999999940395","1","img/117/2.5/2/bw/001.png","","","interesting"
"","","","","","animation","388","4423180","0.0-388.0","1920x1080","","9363.5","90.61","img/238/5.5/0.5/bw/001.png","","","interesting"
"","","","","","animation","389","4426161","0.0-389.0","1920x1080","","2979.0999999940395","14","img/238/3.5/2/bw/001.png","","","interesting"
"","","","","","html-button-response","390","4455509","0.0-390.0","1920x1080","","29347","","<strong>Study Debriefing</strong><br><p class=""debrief""><strong>Background:</strong> The patterns you rated are called <em>fractals</em>. The term fractal describes a class of irregular curves or shapes for which any suitably chosen part is similar in shape to a given larger or smaller part when magnified or reduced to the same size. Fractal properties are found throughout the natural and manmade world. The series of animations you saw today displayed animated fractal patterns of a varying complexity.</p><p class=""debrief""><strong>Purpose of this study:</strong> We hope to better understand how the perception of static fractals differs from the perception of animated fractals, and how the speed of the animated patterns influences people&apos;s perception of them. Fractals allow us to study the perception of aesthetic properties (e.g. the perceived level of beauty in an image) without using recognizable content, which makes them an excellent tool for studying abstract aesthetic judgement.</p><p class=""debrief""><strong>Your part:</strong> Your participation has helped us to further understand how humans perceive these patterns across different levels of speed and complexity. This research with allow us to better understand how the visual system and brain process our ever-changing visual environments.<p class=""debrief""><strong>Feedback and Further information:</strong> If you have additional questions about this study, please feel free to ask the researcher, Nathan Gonzales-Hess at nhess @ uoregon.edu. If you have any questions concerning your rights as a research participant, please contact Research Compliance Services, 5237 University of Oregon, Eugene, OR 97403, 541-346-2510, or email researchCompliance @ uoregon.edu. You can also email the Human Subjects Coordinator for psychology and linguistics research at hscoord @ uoregon.edu. ","0","",""
"","","","","","html-button-response","391","4459187","0.0-391.0","1920x1080","","3673.9000000059605","","Thank you for participating in this study. <br>Please click below to finish the experiment and submit your responses.<br><br>","0","",""
"true","","","","","fullscreen","392","4460196","0.0-392.0","1920x1080","12:25 7/10/2022","","","","","",""
