"success","timeout","failed_images","failed_audio","failed_video","trial_type","trial_index","time_elapsed","internal_node_id","resolution","timeStamp","rt","response","stimulus","button_pressed","value","descriptor"
"true","false","[]","[]","[]","preload","0","38269","0.0-0.0","1920x1080","","","","","","",""
"true","false","[]","[]","[]","preload","1","77933","0.0-1.0","1920x1080","","","","","","",""
"true","false","[]","[]","[]","preload","2","119810","0.0-2.0","1920x1080","","","","","","",""
"true","","","","","fullscreen","3","244117","0.0-3.0","1920x1080","15:43 19/10/2022","","","","","",""
"","","","","","survey-html-form","4","252064","0.0-4.0","1920x1080","","7945.799999999814","{""age"":""19"",""gender"":""female""}","","","",""
"","","","","","html-button-response","5","287424","0.0-5.0","1920x1080","","35359","","<div class=""complex"">You are going to see a series of animations.<br><br></div><div class=""complex"">Move the slider to indicate how <strong style=""text-transform:capitalize"">COMPLEX</strong> you find each animation.<br><br></div><div class=""complex"">0 = Least Complex<br></div><div class=""complex"">1 = Most Complex<br><br></div><div class=""complex"">Remember to use the <strong><em>entire range</em></strong> of the slider to make your ratings.<br></div><div class=""complex"">Please <strong><em>take your time</em></strong> and carefully consider each rating you make.<br><br></div><div class=""complex"">The study has five sections and will take about 45 minutes to complete.<br><br></div>","0","",""
"","","","","","call-function","6","287424","0.0-6.0","1920x1080","","","","","","",""
"","","","","","animation","7","306751","0.0-7.0","1920x1080","","19316.600000000093","74.87","img/117/4.5/0.66667/bw/001.png","","","complex"
"","","","","","animation","8","314359","0.0-8.0","1920x1080","","7606.699999999721","84.52","img/238/2.5/0.5/bw/001.png","","","complex"
"","","","","","animation","9","320999","0.0-9.0","1920x1080","","6638.799999999814","50.66","img/238/4.5/2/bw/001.png","","","complex"
"","","","","","animation","10","324559","0.0-10.0","1920x1080","","3559.399999999907","13.89","img/238/5.5/1/bw/001.png","","","complex"
"","","","","","animation","11","328382","0.0-11.0","1920x1080","","3822.5","93","img/238/2.5/1.5/bw/001.png","","","complex"
"","","","","","animation","12","332207","0.0-12.0","1920x1080","","3823.5999999996275","71.30","img/238/3.5/2/bw/001.png","","","complex"
"","","","","","animation","13","336766","0.0-13.0","1920x1080","","4558.699999999721","15","img/314/5.5/2/bw/001.png","","","complex"
"","","","","","animation","14","340879","0.0-14.0","1920x1080","","4111.899999999907","81.35","img/117/4/0.66667/bw/001.png","","","complex"
"","","","","","animation","15","345639","0.0-15.0","1920x1080","","4758.800000000279","91.40","img/117/2.5/1.5/bw/001.png","","","complex"
"","","","","","animation","16","352118","0.0-16.0","1920x1080","","6479","84.13","img/238/4/0.66667/bw/001.png","","","complex"
"","","","","","animation","17","355343","0.0-17.0","1920x1080","","3223.399999999907","33.20","img/314/5.5/1.5/bw/001.png","","","complex"
"","","","","","animation","18","359191","0.0-18.0","1920x1080","","3847.1999999997206","92.59","img/238/4.5/0.5/bw/001.png","","","complex"
"","","","","","animation","19","364679","0.0-19.0","1920x1080","","5487.100000000093","52.91","img/314/4/1.5/bw/001.png","","","complex"
"","","","","","animation","20","370655","0.0-20.0","1920x1080","","5975.399999999907","87.30","img/238/4/0.5/bw/001.png","","","complex"
"","","","","","animation","21","373223","0.0-21.0","1920x1080","","2567.399999999907","99","img/238/2.5/0.66667/bw/001.png","","","complex"
"","","","","","animation","22","383511","0.0-22.0","1920x1080","","10287.299999999814","71","img/238/4.5/0.66667/bw/001.png","","","complex"
"","","","","","animation","23","386167","0.0-23.0","1920x1080","","2654.7999999998137","22.49","img/238/4/2/bw/001.png","","","complex"
"","","","","","animation","24","391695","0.0-24.0","1920x1080","","5527.5","43","img/238/5.5/0.5/bw/001.png","","","complex"
"","","","","","animation","25","395775","0.0-25.0","1920x1080","","4079.2999999998137","55.69","img/314/4.5/1/bw/001.png","","","complex"
"","","","","","animation","26","398598","0.0-26.0","1920x1080","","2822.5","78.17","img/314/3.5/1.5/bw/001.png","","","complex"
"","","","","","animation","27","401063","0.0-27.0","1920x1080","","2463.7000000001863","87.83","img/117/2.5/0.66667/bw/001.png","","","complex"
"","","","","","animation","28","404480","0.0-28.0","1920x1080","","3416.8000000002794","26","img/238/5.5/1.5/bw/001.png","","","complex"
"","","","","","animation","29","407551","0.0-29.0","1920x1080","","3069.5","93","img/314/2.5/0.66667/bw/001.png","","","complex"
"","","","","","animation","30","413382","0.0-30.0","1920x1080","","5831.0999999996275","76.32","img/314/4.5/0.5/bw/001.png","","","complex"
"","","","","","animation","31","417503","0.0-31.0","1920x1080","","4119.700000000186","71.30","img/238/4/1/bw/001.png","","","complex"
"","","","","","animation","32","423193","0.0-32.0","1920x1080","","5695.399999999907","37.43","img/238/5.5/0.66667/bw/001.png","","","complex"
"","","","","","animation","33","427177","0.0-33.0","1920x1080","","3982.8000000002794","53.44","img/117/4.5/1/bw/001.png","","","complex"
"","","","","","animation","34","430121","0.0-34.0","1920x1080","","2943.2000000001863","52.12","img/238/4.5/1/bw/001.png","","","complex"
"","","","","","animation","35","435833","0.0-35.0","1920x1080","","5711.399999999907","95","img/238/2.5/2/bw/001.png","","","complex"
"","","","","","animation","36","438528","0.0-36.0","1920x1080","","2694.600000000093","98","img/238/3.5/1.5/bw/001.png","","","complex"
"","","","","","animation","37","441448","0.0-37.0","1920x1080","","2919.100000000093","99","img/117/4/1/bw/001.png","","","complex"
"","","","","","animation","38","445474","0.0-38.0","1920x1080","","4024.899999999907","100","img/314/3.5/1/bw/001.png","","","complex"
"","","","","","animation","39","448616","0.0-39.0","1920x1080","","3142","49.74","img/117/5.5/1.5/bw/001.png","","","complex"
"","","","","","animation","40","453905","0.0-40.0","1920x1080","","5287.5","58.60","img/314/5.5/0.66667/bw/001.png","","","complex"
"","","","","","animation","41","459289","0.0-41.0","1920x1080","","5382.9000000003725","96","img/314/4/0.5/bw/001.png","","","complex"
"","","","","","animation","42","462689","0.0-42.0","1920x1080","","3399.399999999907","85.98","img/117/4/2/bw/001.png","","","complex"
"","","","","","animation","43","465769","0.0-43.0","1920x1080","","3079","66.67","img/117/5.5/1/bw/001.png","","","complex"
"","","","","","animation","44","468576","0.0-44.0","1920x1080","","2805.100000000093","57.01","img/117/5.5/0.66667/bw/001.png","","","complex"
"","","","","","animation","45","474289","0.0-45.0","1920x1080","","5711.4000000003725","91","img/117/4.5/0.5/bw/001.png","","","complex"
"","","","","","animation","46","477433","0.0-46.0","1920x1080","","3143","97","img/117/4/0.5/bw/001.png","","","complex"
"","","","","","animation","47","480042","0.0-47.0","1920x1080","","2608.600000000093","100","img/117/3.5/0.66667/bw/001.png","","","complex"
"","","","","","animation","48","482463","0.0-48.0","1920x1080","","2421.600000000093","99","img/314/2.5/1/bw/001.png","","","complex"
"","","","","","animation","49","485943","0.0-49.0","1920x1080","","3479.1999999997206","44.71","img/314/5.5/1/bw/001.png","","","complex"
"","","","","","animation","50","488559","0.0-50.0","1920x1080","","2614.899999999907","18.92","img/117/5.5/2/bw/001.png","","","complex"
"","","","","","animation","51","495200","0.0-51.0","1920x1080","","6639.300000000279","70","img/314/4/2/bw/001.png","","","complex"
"","","","","","animation","52","501088","0.0-52.0","1920x1080","","5887.299999999814","100","img/238/3.5/0.5/bw/001.png","","","complex"
"","","","","","animation","53","504025","0.0-53.0","1920x1080","","2935.7000000001863","100","img/314/3.5/0.66667/bw/001.png","","","complex"
"","","","","","animation","54","507209","0.0-54.0","1920x1080","","3183.100000000093","82.28","img/117/4.5/2/bw/001.png","","","complex"
"","","","","","animation","55","509952","0.0-55.0","1920x1080","","2742.399999999907","55.03","img/238/4/1.5/bw/001.png","","","complex"
"","","","","","animation","56","512760","0.0-56.0","1920x1080","","2807.1999999997206","87.70","img/117/2.5/2/bw/001.png","","","complex"
"","","","","","animation","57","515159","0.0-57.0","1920x1080","","2398.600000000093","99","img/238/3.5/1/bw/001.png","","","complex"
"","","","","","animation","58","518674","0.0-58.0","1920x1080","","3514.0999999996275","87.96","img/314/4.5/0.66667/bw/001.png","","","complex"
"","","","","","animation","59","521711","0.0-59.0","1920x1080","","3036.2000000001863","80.69","img/117/4/1.5/bw/001.png","","","complex"
"","","","","","animation","60","526568","0.0-60.0","1920x1080","","4855.300000000279","100.79","img/117/2.5/0.5/bw/001.png","","","complex"
"","","","","","animation","61","530936","0.0-61.0","1920x1080","","4366.899999999907","85.98","img/314/4/1/bw/001.png","","","complex"
"","","","","","animation","62","533474","0.0-62.0","1920x1080","","2537.399999999907","49","img/238/5.5/2/bw/001.png","","","complex"
"","","","","","animation","63","535952","0.0-63.0","1920x1080","","2476.5","62.04","img/314/4.5/1.5/bw/001.png","","","complex"
"","","","","","animation","64","541263","0.0-64.0","1920x1080","","5310.699999999721","63.49","img/314/5.5/0.5/bw/001.png","","","complex"
"","","","","","animation","65","544390","0.0-65.0","1920x1080","","3127.399999999907","61.38","img/314/3.5/2/bw/001.png","","","complex"
"","","","","","animation","66","546581","0.0-66.0","1920x1080","","2190.8000000002794","70.90","img/117/3.5/1/bw/001.png","","","complex"
"","","","","","animation","67","548581","0.0-67.0","1920x1080","","1999.1000000000931","37.17","img/238/4.5/1.5/bw/001.png","","","complex"
"","","","","","animation","68","553277","0.0-68.0","1920x1080","","4695.200000000186","97","img/314/3.5/0.5/bw/001.png","","","complex"
"","","","","","animation","69","555725","0.0-69.0","1920x1080","","2446.6999999997206","78.84","img/314/4.5/2/bw/001.png","","","complex"
"","","","","","animation","70","558365","0.0-70.0","1920x1080","","2639.5999999996275","54.89","img/117/5.5/0.5/bw/001.png","","","complex"
"","","","","","animation","71","561813","0.0-71.0","1920x1080","","3446.7999999998137","97","img/117/3.5/0.5/bw/001.png","","","complex"
"","","","","","animation","72","564509","0.0-72.0","1920x1080","","2695.2000000001863","90.61","img/314/4/0.66667/bw/001.png","","","complex"
"","","","","","animation","73","568261","0.0-73.0","1920x1080","","3751.100000000093","100","img/238/3.5/0.66667/bw/001.png","","","complex"
"","","","","","animation","74","571165","0.0-74.0","1920x1080","","2903.1999999997206","78.44","img/117/3.5/2/bw/001.png","","","complex"
"","","","","","animation","75","574813","0.0-75.0","1920x1080","","3647","103.84","img/314/2.5/0.5/bw/001.png","","","complex"
"","","","","","animation","76","577229","0.0-76.0","1920x1080","","2415","92.06","img/117/3.5/1.5/bw/001.png","","","complex"
"","","","","","animation","77","580074","0.0-77.0","1920x1080","","2843.6999999997206","99","img/238/2.5/1/bw/001.png","","","complex"
"","","","","","animation","78","582774","0.0-78.0","1920x1080","","2699.399999999907","100","img/314/2.5/2/bw/001.png","","","complex"
"","","","","","animation","79","590165","0.0-79.0","1920x1080","","7390.200000000186","100","img/117/2.5/1/bw/001.png","","","complex"
"","","","","","animation","80","594909","0.0-80.0","1920x1080","","4742.600000000093","95","img/314/2.5/1.5/bw/001.png","","","complex"
"","","","","","animation","81","597813","0.0-81.0","1920x1080","","2903.399999999907","64.42","img/117/4.5/1.5/bw/001.png","","","complex"
"","","","","","html-button-response","82","617551","0.0-82.0","1920x1080","","19727","","<div class=""intro"">You are about to view a new series of animations.<br><br></div><div class=""intro"">You will evaluate them based on a different descriptor.<br><br></div><div class=""intro"">Move the slider to indicate how <strong style=""text-transform:capitalize"">APPEALING</strong> you find each animation.<br><br></div><div class=""intro"">0 = Least Appealing<br></div><div class=""intro"">1 = Most Appealing<br><br></div><div class=""intro"">Remember to use the <strong><em>entire range</em></strong> of the slider to make your ratings.<br></div><div class=""intro"">Please <strong><em>take your time</em></strong> and carefully consider each rating you make.<br><br></div>","0","",""
"","","","","","call-function","83","617552","0.0-83.0","1920x1080","","","","","","",""
"","","","","","animation","84","628359","0.0-84.0","1920x1080","","10805.900000000373","6","img/314/2.5/2/bw/001.png","","","appealing"
"","","","","","animation","85","631127","0.0-85.0","1920x1080","","2767","72.62","img/238/5.5/1.5/bw/001.png","","","appealing"
"","","","","","animation","86","635282","0.0-86.0","1920x1080","","4153.800000000279","30","img/117/4/0.66667/bw/001.png","","","appealing"
"","","","","","animation","87","638407","0.0-87.0","1920x1080","","3124.100000000093","19","img/117/4/1/bw/001.png","","","appealing"
"","","","","","animation","88","641649","0.0-88.0","1920x1080","","3241.100000000093","32.67","img/117/5.5/0.5/bw/001.png","","","appealing"
"","","","","","animation","89","644959","0.0-89.0","1920x1080","","3309.100000000093","13.36","img/314/3.5/0.66667/bw/001.png","","","appealing"
"","","","","","animation","90","647071","0.0-90.0","1920x1080","","2111","12.17","img/314/3.5/1/bw/001.png","","","appealing"
"","","","","","animation","91","651327","0.0-91.0","1920x1080","","4254.9000000003725","64.42","img/117/3.5/2/bw/001.png","","","appealing"
"","","","","","animation","92","654887","0.0-92.0","1920x1080","","3559.100000000093","71.30","img/117/4.5/2/bw/001.png","","","appealing"
"","","","","","animation","93","658750","0.0-93.0","1920x1080","","3862.7000000001863","75.93","img/314/4/2/bw/001.png","","","appealing"
"","","","","","animation","94","665499","0.0-94.0","1920x1080","","6750.5","7.41","img/117/4.5/0.66667/bw/001.png","","","appealing"
"","","","","","animation","95","670731","0.0-95.0","1920x1080","","5230.5999999996275","88.89","img/117/5.5/1.5/bw/001.png","","","appealing"
"","","","","","animation","96","676219","0.0-96.0","1920x1080","","5487.5","17.46","img/314/5.5/0.5/bw/001.png","","","appealing"
"","","","","","animation","97","681171","0.0-97.0","1920x1080","","4951.200000000186","14.95","img/238/4/0.5/bw/001.png","","","appealing"
"","","","","","animation","98","687155","0.0-98.0","1920x1080","","5982.5999999996275","40.34","img/314/5.5/1/bw/001.png","","","appealing"
"","","","","","animation","99","691899","0.0-99.0","1920x1080","","4743","2.78","img/117/2.5/1.5/bw/001.png","","","appealing"
"","","","","","animation","100","694531","0.0-100.0","1920x1080","","2630.5999999996275","2.65","img/238/2.5/1/bw/001.png","","","appealing"
"","","","","","animation","101","698363","0.0-101.0","1920x1080","","3831.2999999998137","9.66","img/117/4/1.5/bw/001.png","","","appealing"
"","","","","","animation","102","701603","0.0-102.0","1920x1080","","3239.1999999997206","2.51","img/238/2.5/0.66667/bw/001.png","","","appealing"
"","","","","","animation","103","705278","0.0-103.0","1920x1080","","3673.7000000001863","4.63","img/238/4.5/0.5/bw/001.png","","","appealing"
"","","","","","animation","104","707387","0.0-104.0","1920x1080","","2108.100000000093","5.56","img/117/3.5/1/bw/001.png","","","appealing"
"","","","","","animation","105","710731","0.0-105.0","1920x1080","","3342.899999999907","7.94","img/238/4.5/1.5/bw/001.png","","","appealing"
"","","","","","animation","106","714363","0.0-106.0","1920x1080","","3630.7000000001863","4.10","img/238/2.5/1.5/bw/001.png","","","appealing"
"","","","","","animation","107","720115","0.0-107.0","1920x1080","","5751.399999999907","84.39","img/238/5.5/2/bw/001.png","","","appealing"
"","","","","","animation","108","724722","0.0-108.0","1920x1080","","4607.4000000003725","43.92","img/314/5.5/0.66667/bw/001.png","","","appealing"
"","","","","","animation","109","729114","0.0-109.0","1920x1080","","4390.5","0","img/238/2.5/2/bw/001.png","","","appealing"
"","","","","","animation","110","735202","0.0-110.0","1920x1080","","6086.800000000279","88.89","img/314/5.5/2/bw/001.png","","","appealing"
"","","","","","animation","111","738162","0.0-111.0","1920x1080","","2958.7999999998137","5.95","img/238/4/2/bw/001.png","","","appealing"
"","","","","","animation","112","743876","0.0-112.0","1920x1080","","5713.699999999721","76.46","img/117/4.5/0.5/bw/001.png","","","appealing"
"","","","","","animation","113","747082","0.0-113.0","1920x1080","","3204.2999999998137","35.85","img/117/3.5/0.66667/bw/001.png","","","appealing"
"","","","","","animation","114","752266","0.0-114.0","1920x1080","","5183.300000000279","0.93","img/117/3.5/0.5/bw/001.png","","","appealing"
"","","","","","animation","115","755077","0.0-115.0","1920x1080","","2808.6999999997206","89.68","img/117/5.5/2/bw/001.png","","","appealing"
"","","","","","animation","116","758386","0.0-116.0","1920x1080","","3307.9000000003725","-2.12","img/238/3.5/0.5/bw/001.png","","","appealing"
"","","","","","animation","117","762130","0.0-117.0","1920x1080","","3742.399999999907","1.19","img/117/2.5/0.5/bw/001.png","","","appealing"
"","","","","","animation","118","766045","0.0-118.0","1920x1080","","3913.7999999998137","5.29","img/238/4.5/0.66667/bw/001.png","","","appealing"
"","","","","","animation","119","768450","0.0-119.0","1920x1080","","2404.5","16.14","img/314/4.5/1/bw/001.png","","","appealing"
"","","","","","animation","120","771402","0.0-120.0","1920x1080","","2951.100000000093","14.42","img/238/3.5/1.5/bw/001.png","","","appealing"
"","","","","","animation","121","774570","0.0-121.0","1920x1080","","3167","6","img/314/4/0.5/bw/001.png","","","appealing"
"","","","","","animation","122","778827","0.0-122.0","1920x1080","","4255.800000000279","42.46","img/117/3.5/1.5/bw/001.png","","","appealing"
"","","","","","animation","123","780711","0.0-123.0","1920x1080","","1883.2999999998137","53.31","img/314/3.5/1.5/bw/001.png","","","appealing"
"","","","","","animation","124","784049","0.0-124.0","1920x1080","","3337.8000000002794","26.59","img/238/3.5/1/bw/001.png","","","appealing"
"","","","","","animation","125","786865","0.0-125.0","1920x1080","","2814.600000000093","90.74","img/314/5.5/1.5/bw/001.png","","","appealing"
"","","","","","animation","126","791345","0.0-126.0","1920x1080","","4478.5","5.42","img/238/4/1.5/bw/001.png","","","appealing"
"","","","","","animation","127","795314","0.0-127.0","1920x1080","","3967.899999999907","-11.64","img/314/3.5/0.5/bw/001.png","","","appealing"
"","","","","","animation","128","798494","0.0-128.0","1920x1080","","3179.399999999907","-4.37","img/238/4/0.66667/bw/001.png","","","appealing"
"","","","","","animation","129","802433","0.0-129.0","1920x1080","","3938.7000000001863","0","img/238/3.5/0.66667/bw/001.png","","","appealing"
"","","","","","animation","130","805145","0.0-130.0","1920x1080","","2710.7999999998137","0.79","img/314/4.5/0.5/bw/001.png","","","appealing"
"","","","","","animation","131","809737","0.0-131.0","1920x1080","","4591.200000000186","47.35","img/238/5.5/1/bw/001.png","","","appealing"
"","","","","","animation","132","812293","0.0-132.0","1920x1080","","2554.899999999907","0.40","img/117/4/0.5/bw/001.png","","","appealing"
"","","","","","animation","133","814628","0.0-133.0","1920x1080","","2334.1999999997206","2.65","img/238/4.5/2/bw/001.png","","","appealing"
"","","","","","animation","134","818249","0.0-134.0","1920x1080","","3620.100000000093","5.16","img/117/4/2/bw/001.png","","","appealing"
"","","","","","animation","135","824661","0.0-135.0","1920x1080","","6410.800000000279","72.88","img/238/4.5/1/bw/001.png","","","appealing"
"","","","","","animation","136","828243","0.0-136.0","1920x1080","","3581.5","-5.42","img/314/2.5/1.5/bw/001.png","","","appealing"
"","","","","","animation","137","831077","0.0-137.0","1920x1080","","2832.6999999997206","-39.42","img/314/2.5/0.66667/bw/001.png","","","appealing"
"","","","","","animation","138","834953","0.0-138.0","1920x1080","","3874.600000000093","3.57","img/314/4.5/0.66667/bw/001.png","","","appealing"
"","","","","","animation","139","837076","0.0-139.0","1920x1080","","2122.100000000093","7.80","img/238/4/1/bw/001.png","","","appealing"
"","","","","","animation","140","839245","0.0-140.0","1920x1080","","2167.8000000002794","1.32","img/314/2.5/1/bw/001.png","","","appealing"
"","","","","","animation","141","841493","0.0-141.0","1920x1080","","2247.0999999996275","1.32","img/117/2.5/2/bw/001.png","","","appealing"
"","","","","","animation","142","844309","0.0-142.0","1920x1080","","2819.2000000001863","0.79","img/117/2.5/0.66667/bw/001.png","","","appealing"
"","","","","","animation","143","847340","0.0-143.0","1920x1080","","3030.899999999907","79.50","img/238/5.5/0.5/bw/001.png","","","appealing"
"","","","","","animation","144","849524","0.0-144.0","1920x1080","","2183.2000000001863","62.17","img/238/5.5/0.66667/bw/001.png","","","appealing"
"","","","","","animation","145","852117","0.0-145.0","1920x1080","","2591.7000000001863","76.46","img/117/5.5/0.66667/bw/001.png","","","appealing"
"","","","","","animation","146","855397","0.0-146.0","1920x1080","","3278.899999999907","0.79","img/238/2.5/0.5/bw/001.png","","","appealing"
"","","","","","animation","147","857305","0.0-147.0","1920x1080","","1905.7000000001863","35.05","img/314/4/1.5/bw/001.png","","","appealing"
"","","","","","animation","148","859229","0.0-148.0","1920x1080","","1923.1000000000931","11.51","img/314/4/0.66667/bw/001.png","","","appealing"
"","","","","","animation","149","861056","0.0-149.0","1920x1080","","1825.6000000000931","12.57","img/238/3.5/2/bw/001.png","","","appealing"
"","","","","","animation","150","863829","0.0-150.0","1920x1080","","2772.5","15.74","img/117/4.5/1/bw/001.png","","","appealing"
"","","","","","animation","151","866997","0.0-151.0","1920x1080","","3167.2000000001863","0.00","img/314/2.5/0.5/bw/001.png","","","appealing"
"","","","","","animation","152","869349","0.0-152.0","1920x1080","","2351.100000000093","3.84","img/314/3.5/2/bw/001.png","","","appealing"
"","","","","","animation","153","871861","0.0-153.0","1920x1080","","2510.5999999996275","81.48","img/314/4.5/2/bw/001.png","","","appealing"
"","","","","","animation","154","876156","0.0-154.0","1920x1080","","4294.5","10.58","img/314/4/1/bw/001.png","","","appealing"
"","","","","","animation","155","879124","0.0-155.0","1920x1080","","2967","14.02","img/117/4.5/1.5/bw/001.png","","","appealing"
"","","","","","animation","156","885189","0.0-156.0","1920x1080","","6063.600000000093","85","img/117/5.5/1/bw/001.png","","","appealing"
"","","","","","animation","157","887839","0.0-157.0","1920x1080","","2648.5","55.29","img/314/4.5/1.5/bw/001.png","","","appealing"
"","","","","","animation","158","891422","0.0-158.0","1920x1080","","3582.5","1.32","img/117/2.5/1/bw/001.png","","","appealing"
"","","","","","html-button-response","159","909936","0.0-159.0","1920x1080","","18509.799999999814","","<div class=""intro"">You are about to view a new series of animations.<br><br></div><div class=""intro"">You will evaluate them based on a different descriptor.<br><br></div><div class=""intro"">Move the slider to indicate how <strong style=""text-transform:capitalize"">NATURAL</strong> you find each animation.<br><br></div><div class=""intro"">0 = Least Natural<br></div><div class=""intro"">1 = Most Natural<br><br></div><div class=""intro"">Remember to use the <strong><em>entire range</em></strong> of the slider to make your ratings.<br></div><div class=""intro"">Please <strong><em>take your time</em></strong> and carefully consider each rating you make.<br><br></div>","0","",""
"","","","","","call-function","160","909938","0.0-160.0","1920x1080","","","","","","",""
"","","","","","animation","161","914727","0.0-161.0","1920x1080","","4789.100000000093","-5.16","img/314/2.5/0.66667/bw/001.png","","","natural"
"","","","","","animation","162","921258","0.0-162.0","1920x1080","","6529.5","0","img/238/4/1.5/bw/001.png","","","natural"
"","","","","","animation","163","924695","0.0-163.0","1920x1080","","3436.399999999907","85.85","img/314/5.5/2/bw/001.png","","","natural"
"","","","","","animation","164","929625","0.0-164.0","1920x1080","","4928.300000000279","13.10","img/238/5.5/0.5/bw/001.png","","","natural"
"","","","","","animation","165","935127","0.0-165.0","1920x1080","","5501.700000000186","94","img/238/5.5/0.66667/bw/001.png","","","natural"
"","","","","","animation","166","938264","0.0-166.0","1920x1080","","3135.399999999907","49.34","img/314/5.5/0.66667/bw/001.png","","","natural"
"","","","","","animation","167","942258","0.0-167.0","1920x1080","","3993.399999999907","0","img/238/2.5/2/bw/001.png","","","natural"
"","","","","","animation","168","944692","0.0-168.0","1920x1080","","2432.7000000001863","20","img/314/4.5/0.5/bw/001.png","","","natural"
"","","","","","animation","169","946464","0.0-169.0","1920x1080","","1770.6000000000931","35.71","img/314/4.5/1.5/bw/001.png","","","natural"
"","","","","","animation","170","948493","0.0-170.0","1920x1080","","2028.8000000002794","47.75","img/117/4.5/1.5/bw/001.png","","","natural"
"","","","","","animation","171","950591","0.0-171.0","1920x1080","","2097.5","13.76","img/314/4/0.5/bw/001.png","","","natural"
"","","","","","animation","172","952959","0.0-172.0","1920x1080","","2366.9000000003725","2.12","img/238/2.5/1.5/bw/001.png","","","natural"
"","","","","","animation","173","955800","0.0-173.0","1920x1080","","2839.600000000093","19.97","img/314/3.5/0.66667/bw/001.png","","","natural"
"","","","","","animation","174","957992","0.0-174.0","1920x1080","","2191.2999999998137","7.80","img/238/3.5/1/bw/001.png","","","natural"
"","","","","","animation","175","961918","0.0-175.0","1920x1080","","3934.4000000003725","-17.46","img/117/2.5/0.5/bw/001.png","","","natural"
"","","","","","animation","176","964982","0.0-176.0","1920x1080","","3062.899999999907","15.74","img/314/3.5/1/bw/001.png","","","natural"
"","","","","","animation","177","967482","0.0-177.0","1920x1080","","2499.399999999907","70.11","img/117/5.5/0.5/bw/001.png","","","natural"
"","","","","","animation","178","970799","0.0-178.0","1920x1080","","3315.8000000002794","2","img/238/2.5/0.66667/bw/001.png","","","natural"
"","","","","","animation","179","972702","0.0-179.0","1920x1080","","1901.8999999999069","12.57","img/238/3.5/2/bw/001.png","","","natural"
"","","","","","animation","180","974342","0.0-180.0","1920x1080","","1639.2000000001863","8.47","img/238/4.5/0.66667/bw/001.png","","","natural"
"","","","","","animation","181","977006","0.0-181.0","1920x1080","","2663","18.92","img/117/3.5/1/bw/001.png","","","natural"
"","","","","","animation","182","981582","0.0-182.0","1920x1080","","4574.800000000279","77","img/117/5.5/1/bw/001.png","","","natural"
"","","","","","animation","183","983934","0.0-183.0","1920x1080","","2350.5","8.99","img/117/4/0.5/bw/001.png","","","natural"
"","","","","","animation","184","987183","0.0-184.0","1920x1080","","3247.600000000093","99","img/117/5.5/1.5/bw/001.png","","","natural"
"","","","","","animation","185","990499","0.0-185.0","1920x1080","","3315.5","91.40","img/314/5.5/1.5/bw/001.png","","","natural"
"","","","","","animation","186","993216","0.0-186.0","1920x1080","","2716","11.11","img/314/4/0.66667/bw/001.png","","","natural"
"","","","","","animation","187","995350","0.0-187.0","1920x1080","","2133","1.72","img/238/2.5/1/bw/001.png","","","natural"
"","","","","","animation","188","998518","0.0-188.0","1920x1080","","3167.2000000001863","0","img/117/2.5/1.5/bw/001.png","","","natural"
"","","","","","animation","189","1001966","0.0-189.0","1920x1080","","3447.5","16.01","img/117/4/1/bw/001.png","","","natural"
"","","","","","animation","190","1003750","0.0-190.0","1920x1080","","1782","24.60","img/314/4.5/2/bw/001.png","","","natural"
"","","","","","animation","191","1006766","0.0-191.0","1920x1080","","3015","7.67","img/314/4/1/bw/001.png","","","natural"
"","","","","","animation","192","1009166","0.0-192.0","1920x1080","","2398.8000000002794","82.28","img/117/5.5/2/bw/001.png","","","natural"
"","","","","","animation","193","1012433","0.0-193.0","1920x1080","","3266.100000000093","99","img/238/5.5/1.5/bw/001.png","","","natural"
"","","","","","animation","194","1015502","0.0-194.0","1920x1080","","3068","5.56","img/314/4/1.5/bw/001.png","","","natural"
"","","","","","animation","195","1018200","0.0-195.0","1920x1080","","2696.2000000001863","4.10","img/117/4.5/0.66667/bw/001.png","","","natural"
"","","","","","animation","196","1021406","0.0-196.0","1920x1080","","3205.899999999907","3.31","img/117/3.5/0.5/bw/001.png","","","natural"
"","","","","","animation","197","1023664","0.0-197.0","1920x1080","","2262.899999999907","4.50","img/314/3.5/2/bw/001.png","","","natural"
"","","","","","animation","198","1025510","0.0-198.0","1920x1080","","1845","16.27","img/117/4.5/2/bw/001.png","","","natural"
"","","","","","animation","199","1027678","0.0-199.0","1920x1080","","2166.9000000003725","37.04","img/238/4.5/1/bw/001.png","","","natural"
"","","","","","animation","200","1029968","0.0-200.0","1920x1080","","2289.2999999998137","0","img/117/4/0.66667/bw/001.png","","","natural"
"","","","","","animation","201","1033360","0.0-201.0","1920x1080","","3390.5","0","img/314/2.5/1.5/bw/001.png","","","natural"
"","","","","","animation","202","1036260","0.0-202.0","1920x1080","","2899","2.25","img/314/3.5/1.5/bw/001.png","","","natural"
"","","","","","animation","203","1039493","0.0-203.0","1920x1080","","3232.1999999997206","31.75","img/314/4.5/0.66667/bw/001.png","","","natural"
"","","","","","animation","204","1042243","0.0-204.0","1920x1080","","2748.7999999998137","0","img/117/2.5/0.66667/bw/001.png","","","natural"
"","","","","","animation","205","1045993","0.0-205.0","1920x1080","","3749.100000000093","0","img/117/2.5/1/bw/001.png","","","natural"
"","","","","","animation","206","1051912","0.0-206.0","1920x1080","","5917.899999999907","51","img/117/4.5/1/bw/001.png","","","natural"
"","","","","","animation","207","1054377","0.0-207.0","1920x1080","","2462.2000000001863","38.36","img/238/3.5/1.5/bw/001.png","","","natural"
"","","","","","animation","208","1057362","0.0-208.0","1920x1080","","2984.2999999998137","78.84","img/238/5.5/2/bw/001.png","","","natural"
"","","","","","animation","209","1059448","0.0-209.0","1920x1080","","2084.7000000001863","18.52","img/117/3.5/2/bw/001.png","","","natural"
"","","","","","animation","210","1061712","0.0-210.0","1920x1080","","2262.7000000001863","0","img/117/2.5/2/bw/001.png","","","natural"
"","","","","","animation","211","1063784","0.0-211.0","1920x1080","","2071.2999999998137","10.85","img/238/3.5/0.66667/bw/001.png","","","natural"
"","","","","","animation","212","1065827","0.0-212.0","1920x1080","","2041.8999999999069","0","img/314/2.5/1/bw/001.png","","","natural"
"","","","","","animation","213","1067827","0.0-213.0","1920x1080","","1994.3999999999069","51.72","img/314/5.5/0.5/bw/001.png","","","natural"
"","","","","","animation","214","1069968","0.0-214.0","1920x1080","","2140.899999999907","2.38","img/238/4/0.66667/bw/001.png","","","natural"
"","","","","","animation","215","1072295","0.0-215.0","1920x1080","","2325.3000000002794","25.13","img/117/4.5/0.5/bw/001.png","","","natural"
"","","","","","animation","216","1074664","0.0-216.0","1920x1080","","2367.8000000002794","70.77","img/314/5.5/1/bw/001.png","","","natural"
"","","","","","animation","217","1077178","0.0-217.0","1920x1080","","2512.7000000001863","9.13","img/238/4/2/bw/001.png","","","natural"
"","","","","","animation","218","1079936","0.0-218.0","1920x1080","","2757.2999999998137","26.19","img/238/4.5/1.5/bw/001.png","","","natural"
"","","","","","animation","219","1081934","0.0-219.0","1920x1080","","1998.3999999999069","30.95","img/314/4.5/1/bw/001.png","","","natural"
"","","","","","animation","220","1084125","0.0-220.0","1920x1080","","2190.7000000001863","27.25","img/117/4/1.5/bw/001.png","","","natural"
"","","","","","animation","221","1086308","0.0-221.0","1920x1080","","2181.399999999907","2","img/238/3.5/0.5/bw/001.png","","","natural"
"","","","","","animation","222","1089030","0.0-222.0","1920x1080","","2721","1.98","img/117/3.5/1.5/bw/001.png","","","natural"
"","","","","","animation","223","1091458","0.0-223.0","1920x1080","","2427.0999999996275","2.12","img/238/4/1/bw/001.png","","","natural"
"","","","","","animation","224","1094258","0.0-224.0","1920x1080","","2799.1999999997206","0","img/238/2.5/0.5/bw/001.png","","","natural"
"","","","","","animation","225","1097275","0.0-225.0","1920x1080","","3015.1999999997206","67","img/314/4/2/bw/001.png","","","natural"
"","","","","","animation","226","1099341","0.0-226.0","1920x1080","","2065.899999999907","61.77","img/117/4/2/bw/001.png","","","natural"
"","","","","","animation","227","1101709","0.0-227.0","1920x1080","","2367.100000000093","21.96","img/314/3.5/0.5/bw/001.png","","","natural"
"","","","","","animation","228","1104862","0.0-228.0","1920x1080","","3151.2999999998137","3.31","img/117/3.5/0.66667/bw/001.png","","","natural"
"","","","","","animation","229","1107062","0.0-229.0","1920x1080","","2198.7999999998137","65.87","img/117/5.5/0.66667/bw/001.png","","","natural"
"","","","","","animation","230","1109375","0.0-230.0","1920x1080","","2312.100000000093","54.37","img/238/4.5/0.5/bw/001.png","","","natural"
"","","","","","animation","231","1112808","0.0-231.0","1920x1080","","3432.2000000001863","83.86","img/238/4.5/2/bw/001.png","","","natural"
"","","","","","animation","232","1115134","0.0-232.0","1920x1080","","2324.600000000093","84.92","img/238/5.5/1/bw/001.png","","","natural"
"","","","","","animation","233","1117662","0.0-233.0","1920x1080","","2526.8000000002794","0.40","img/314/2.5/0.5/bw/001.png","","","natural"
"","","","","","animation","234","1119766","0.0-234.0","1920x1080","","2102.899999999907","0.00","img/314/2.5/2/bw/001.png","","","natural"
"","","","","","animation","235","1122892","0.0-235.0","1920x1080","","3122.9000000003725","3.44","img/238/4/0.5/bw/001.png","","","natural"
"","","","","","html-button-response","236","1141366","0.0-236.0","1920x1080","","18473.100000000093","","<div class=""intro"">You are about to view a new series of animations.<br><br></div><div class=""intro"">You will evaluate them based on a different descriptor.<br><br></div><div class=""intro"">Move the slider to indicate how <strong style=""text-transform:capitalize"">INTERESTING</strong> you find each animation.<br><br></div><div class=""intro"">0 = Least Interesting<br></div><div class=""intro"">1 = Most Interesting<br><br></div><div class=""intro"">Remember to use the <strong><em>entire range</em></strong> of the slider to make your ratings.<br></div><div class=""intro"">Please <strong><em>take your time</em></strong> and carefully consider each rating you make.<br><br></div>","0","",""
"","","","","","call-function","237","1141368","0.0-237.0","1920x1080","","","","","","",""
"","","","","","animation","238","1145970","0.0-238.0","1920x1080","","4597.299999999814","88","img/238/5.5/2/bw/001.png","","","interesting"
"","","","","","animation","239","1149079","0.0-239.0","1920x1080","","3107.6999999997206","75.00","img/238/5.5/0.5/bw/001.png","","","interesting"
"","","","","","animation","240","1151479","0.0-240.0","1920x1080","","2398.7999999998137","96","img/238/5.5/0.66667/bw/001.png","","","interesting"
"","","","","","animation","241","1154629","0.0-241.0","1920x1080","","3148.899999999907","0","img/117/2.5/1.5/bw/001.png","","","interesting"
"","","","","","animation","242","1157480","0.0-242.0","1920x1080","","2850.600000000093","87.96","img/238/5.5/1.5/bw/001.png","","","interesting"
"","","","","","animation","243","1161078","0.0-243.0","1920x1080","","3596.600000000093","31.88","img/238/4.5/2/bw/001.png","","","interesting"
"","","","","","animation","244","1165279","0.0-244.0","1920x1080","","4199.299999999814","47.35","img/314/3.5/1.5/bw/001.png","","","interesting"
"","","","","","animation","245","1167450","0.0-245.0","1920x1080","","2169.899999999907","50.00","img/314/4.5/0.5/bw/001.png","","","interesting"
"","","","","","animation","246","1169818","0.0-246.0","1920x1080","","2366.899999999907","77.12","img/314/5.5/1/bw/001.png","","","interesting"
"","","","","","animation","247","1172229","0.0-247.0","1920x1080","","2410.100000000093","0.40","img/314/2.5/0.66667/bw/001.png","","","interesting"
"","","","","","animation","248","1176429","0.0-248.0","1920x1080","","4198.600000000093","28.70","img/314/4/1.5/bw/001.png","","","interesting"
"","","","","","animation","249","1178396","0.0-249.0","1920x1080","","1965.5","0.40","img/238/2.5/2/bw/001.png","","","interesting"
"","","","","","animation","250","1181570","0.0-250.0","1920x1080","","3173.2000000001863","2.25","img/238/4/0.5/bw/001.png","","","interesting"
"","","","","","animation","251","1184046","0.0-251.0","1920x1080","","2473.9000000003725","0.93","img/117/2.5/2/bw/001.png","","","interesting"
"","","","","","animation","252","1186295","0.0-252.0","1920x1080","","2248.600000000093","15.21","img/238/4/2/bw/001.png","","","interesting"
"","","","","","animation","253","1188145","0.0-253.0","1920x1080","","1848.8999999999069","5.16","img/117/4.5/1.5/bw/001.png","","","interesting"
"","","","","","animation","254","1191138","0.0-254.0","1920x1080","","2991.899999999907","80.16","img/238/5.5/1/bw/001.png","","","interesting"
"","","","","","animation","255","1193650","0.0-255.0","1920x1080","","2510.6999999997206","7","img/117/4/1.5/bw/001.png","","","interesting"
"","","","","","animation","256","1196045","0.0-256.0","1920x1080","","2394.5","2.25","img/117/2.5/1/bw/001.png","","","interesting"
"","","","","","animation","257","1198554","0.0-257.0","1920x1080","","2507.2999999998137","1.59","img/314/3.5/1/bw/001.png","","","interesting"
"","","","","","animation","258","1201839","0.0-258.0","1920x1080","","3290.5","0","img/117/4/2/bw/001.png","","","interesting"
"","","","","","animation","259","1204379","0.0-259.0","1920x1080","","2538.899999999907","86.38","img/314/5.5/1.5/bw/001.png","","","interesting"
"","","","","","animation","260","1210411","0.0-260.0","1920x1080","","6030.700000000186","10.05","img/117/3.5/2/bw/001.png","","","interesting"
"","","","","","animation","261","1213563","0.0-261.0","1920x1080","","3151","16","img/238/2.5/0.66667/bw/001.png","","","interesting"
"","","","","","animation","262","1217627","0.0-262.0","1920x1080","","4062.399999999907","62","img/314/4.5/0.66667/bw/001.png","","","interesting"
"","","","","","animation","263","1220722","0.0-263.0","1920x1080","","3093.600000000093","42.99","img/117/4.5/2/bw/001.png","","","interesting"
"","","","","","animation","264","1223889","0.0-264.0","1920x1080","","3166","29.37","img/238/3.5/2/bw/001.png","","","interesting"
"","","","","","animation","265","1228027","0.0-265.0","1920x1080","","4136.700000000186","1.32","img/314/2.5/1.5/bw/001.png","","","interesting"
"","","","","","animation","266","1230363","0.0-266.0","1920x1080","","2334.899999999907","27.38","img/117/4/0.5/bw/001.png","","","interesting"
"","","","","","animation","267","1232795","0.0-267.0","1920x1080","","2431.100000000093","75.40","img/117/5.5/0.66667/bw/001.png","","","interesting"
"","","","","","animation","268","1236739","0.0-268.0","1920x1080","","3942.7999999998137","48.68","img/314/5.5/0.5/bw/001.png","","","interesting"
"","","","","","animation","269","1238739","0.0-269.0","1920x1080","","1998.8999999999069","30.16","img/117/3.5/0.66667/bw/001.png","","","interesting"
"","","","","","animation","270","1240763","0.0-270.0","1920x1080","","2023","10.05","img/238/4.5/0.5/bw/001.png","","","interesting"
"","","","","","animation","271","1244789","0.0-271.0","1920x1080","","4024.899999999907","-0.93","img/238/2.5/1/bw/001.png","","","interesting"
"","","","","","animation","272","1247755","0.0-272.0","1920x1080","","2964.899999999907","0","img/117/3.5/1/bw/001.png","","","interesting"
"","","","","","animation","273","1253789","0.0-273.0","1920x1080","","6032.100000000093","96","img/117/5.5/1.5/bw/001.png","","","interesting"
"","","","","","animation","274","1256427","0.0-274.0","1920x1080","","2636.399999999907","5.95","img/238/3.5/0.66667/bw/001.png","","","interesting"
"","","","","","animation","275","1258906","0.0-275.0","1920x1080","","2478.2999999998137","6.61","img/314/3.5/2/bw/001.png","","","interesting"
"","","","","","animation","276","1261039","0.0-276.0","1920x1080","","2131.2999999998137","22.09","img/238/3.5/1/bw/001.png","","","interesting"
"","","","","","animation","277","1264353","0.0-277.0","1920x1080","","3315.5999999996275","24.21","img/238/4/1/bw/001.png","","","interesting"
"","","","","","animation","278","1267203","0.0-278.0","1920x1080","","2848.8000000002794","37.17","img/238/4.5/1/bw/001.png","","","interesting"
"","","","","","animation","279","1269370","0.0-279.0","1920x1080","","2165.899999999907","27.51","img/117/4.5/1/bw/001.png","","","interesting"
"","","","","","animation","280","1271376","0.0-280.0","1920x1080","","2005.3999999999069","28.84","img/314/4/1/bw/001.png","","","interesting"
"","","","","","animation","281","1275640","0.0-281.0","1920x1080","","4262.699999999721","58","img/117/3.5/0.5/bw/001.png","","","interesting"
"","","","","","animation","282","1278036","0.0-282.0","1920x1080","","2394.899999999907","88.36","img/117/5.5/2/bw/001.png","","","interesting"
"","","","","","animation","283","1281176","0.0-283.0","1920x1080","","3138.600000000093","98","img/314/5.5/0.66667/bw/001.png","","","interesting"
"","","","","","animation","284","1284120","0.0-284.0","1920x1080","","2942.399999999907","70","img/314/4.5/2/bw/001.png","","","interesting"
"","","","","","animation","285","1287976","0.0-285.0","1920x1080","","3855.2999999998137","72.62","img/117/4.5/0.66667/bw/001.png","","","interesting"
"","","","","","animation","286","1290576","0.0-286.0","1920x1080","","2598.6999999997206","5.56","img/238/3.5/1.5/bw/001.png","","","interesting"
"","","","","","animation","287","1294608","0.0-287.0","1920x1080","","4030.3000000002794","55.69","img/314/4.5/1/bw/001.png","","","interesting"
"","","","","","animation","288","1297545","0.0-288.0","1920x1080","","2935.2000000001863","3.44","img/117/3.5/1.5/bw/001.png","","","interesting"
"","","","","","animation","289","1300637","0.0-289.0","1920x1080","","3091","4.89","img/314/3.5/0.5/bw/001.png","","","interesting"
"","","","","","animation","290","1303270","0.0-290.0","1920x1080","","2631.600000000093","4","img/314/4/0.66667/bw/001.png","","","interesting"
"","","","","","animation","291","1307376","0.0-291.0","1920x1080","","4105","24.21","img/238/4.5/0.66667/bw/001.png","","","interesting"
"","","","","","animation","292","1310672","0.0-292.0","1920x1080","","3294.399999999907","-5.69","img/314/2.5/2/bw/001.png","","","interesting"
"","","","","","animation","293","1313745","0.0-293.0","1920x1080","","3070.7000000001863","-19.18","img/314/2.5/0.5/bw/001.png","","","interesting"
"","","","","","animation","294","1317470","0.0-294.0","1920x1080","","3723.8000000002794","5.29","img/117/4.5/0.5/bw/001.png","","","interesting"
"","","","","","animation","295","1320456","0.0-295.0","1920x1080","","2985.3000000002794","8.33","img/314/4/0.5/bw/001.png","","","interesting"
"","","","","","animation","296","1324087","0.0-296.0","1920x1080","","3630.399999999907","0.40","img/117/2.5/0.66667/bw/001.png","","","interesting"
"","","","","","animation","297","1326453","0.0-297.0","1920x1080","","2364.399999999907","5.95","img/238/4/1.5/bw/001.png","","","interesting"
"","","","","","animation","298","1329836","0.0-298.0","1920x1080","","3381.7999999998137","1.98","img/314/2.5/1/bw/001.png","","","interesting"
"","","","","","animation","299","1334519","0.0-299.0","1920x1080","","4682.300000000279","20.50","img/314/4.5/1.5/bw/001.png","","","interesting"
"","","","","","animation","300","1338287","0.0-300.0","1920x1080","","3766.2000000001863","5.82","img/314/4/2/bw/001.png","","","interesting"
"","","","","","animation","301","1341960","0.0-301.0","1920x1080","","3671.100000000093","87.57","img/117/5.5/1/bw/001.png","","","interesting"
"","","","","","animation","302","1346239","0.0-302.0","1920x1080","","4278.100000000093","51.19","img/238/4.5/1.5/bw/001.png","","","interesting"
"","","","","","animation","303","1349069","0.0-303.0","1920x1080","","2828.899999999907","84.39","img/117/5.5/0.5/bw/001.png","","","interesting"
"","","","","","animation","304","1351405","0.0-304.0","1920x1080","","2334.8000000002794","3.17","img/238/3.5/0.5/bw/001.png","","","interesting"
"","","","","","animation","305","1353559","0.0-305.0","1920x1080","","2120.8000000002794","7.54","img/314/3.5/0.66667/bw/001.png","","","interesting"
"","","","","","animation","306","1355407","0.0-306.0","1920x1080","","1844.8000000002794","8.07","img/117/4/0.66667/bw/001.png","","","interesting"
"","","","","","animation","307","1357375","0.0-307.0","1920x1080","","1967","13.62","img/117/4/1/bw/001.png","","","interesting"
"","","","","","animation","308","1359936","0.0-308.0","1920x1080","","2559.600000000093","-1.59","img/117/2.5/0.5/bw/001.png","","","interesting"
"","","","","","animation","309","1363552","0.0-309.0","1920x1080","","3615.0999999996275","88.62","img/314/5.5/2/bw/001.png","","","interesting"
"","","","","","animation","310","1367007","0.0-310.0","1920x1080","","3453.2000000001863","0.13","img/238/2.5/0.5/bw/001.png","","","interesting"
"","","","","","animation","311","1370255","0.0-311.0","1920x1080","","3246.2000000001863","1.32","img/238/2.5/1.5/bw/001.png","","","interesting"
"","","","","","animation","312","1373408","0.0-312.0","1920x1080","","3151.100000000093","6.88","img/238/4/0.66667/bw/001.png","","","interesting"
"","","","","","html-button-response","313","1395251","0.0-313.0","1920x1080","","21832.399999999907","","<div class=""intro"">You are about to view a new series of animations.<br><br></div><div class=""intro"">You will evaluate them based on a different descriptor.<br><br></div><div class=""intro"">Move the slider to indicate how <strong style=""text-transform:capitalize"">RELAXING</strong> you find each animation.<br><br></div><div class=""intro"">0 = Least Relaxing<br></div><div class=""intro"">1 = Most Relaxing<br><br></div><div class=""intro"">Remember to use the <strong><em>entire range</em></strong> of the slider to make your ratings.<br></div><div class=""intro"">Please <strong><em>take your time</em></strong> and carefully consider each rating you make.<br><br></div>","0","",""
"","","","","","call-function","314","1395254","0.0-314.0","1920x1080","","","","","","",""
"","","","","","animation","315","1398185","0.0-315.0","1920x1080","","2928.5","-0.93","img/314/3.5/1/bw/001.png","","","relaxing"
"","","","","","animation","316","1400314","0.0-316.0","1920x1080","","2127.5","-6.75","img/238/3.5/0.5/bw/001.png","","","relaxing"
"","","","","","animation","317","1402548","0.0-317.0","1920x1080","","2232.8000000002794","0","img/117/4.5/0.66667/bw/001.png","","","relaxing"
"","","","","","animation","318","1405162","0.0-318.0","1920x1080","","2612.5","0.00","img/238/4/1.5/bw/001.png","","","relaxing"
"","","","","","animation","319","1406745","0.0-319.0","1920x1080","","1582.3999999999069","0","img/117/3.5/1.5/bw/001.png","","","relaxing"
"","","","","","animation","320","1409012","0.0-320.0","1920x1080","","2265.7999999998137","4.37","img/238/3.5/0.66667/bw/001.png","","","relaxing"
"","","","","","animation","321","1412122","0.0-321.0","1920x1080","","3108.399999999907","10","img/314/5.5/0.66667/bw/001.png","","","relaxing"
"","","","","","animation","322","1414267","0.0-322.0","1920x1080","","2144.2999999998137","0.53","img/117/4/0.5/bw/001.png","","","relaxing"
"","","","","","animation","323","1418169","0.0-323.0","1920x1080","","3900","0","img/238/4/0.66667/bw/001.png","","","relaxing"
"","","","","","animation","324","1420280","0.0-324.0","1920x1080","","2110","4.23","img/238/4.5/1.5/bw/001.png","","","relaxing"
"","","","","","animation","325","1422617","0.0-325.0","1920x1080","","2335","0.79","img/314/4/1.5/bw/001.png","","","relaxing"
"","","","","","animation","326","1424446","0.0-326.0","1920x1080","","1827.6000000000931","4.50","img/314/4.5/1.5/bw/001.png","","","relaxing"
"","","","","","animation","327","1426378","0.0-327.0","1920x1080","","1931.5","0.00","img/117/2.5/1.5/bw/001.png","","","relaxing"
"","","","","","animation","328","1429435","0.0-328.0","1920x1080","","3056","15.48","img/117/5.5/0.5/bw/001.png","","","relaxing"
"","","","","","animation","329","1431817","0.0-329.0","1920x1080","","2380.100000000093","22.49","img/117/5.5/1/bw/001.png","","","relaxing"
"","","","","","animation","330","1433912","0.0-330.0","1920x1080","","2094.399999999907","10.71","img/314/5.5/0.5/bw/001.png","","","relaxing"
"","","","","","animation","331","1435962","0.0-331.0","1920x1080","","2048.600000000093","0.93","img/238/4/0.5/bw/001.png","","","relaxing"
"","","","","","animation","332","1440313","0.0-332.0","1920x1080","","4349.5","32","img/314/5.5/1/bw/001.png","","","relaxing"
"","","","","","animation","333","1443024","0.0-333.0","1920x1080","","2718.7000000001863","0.13","img/117/2.5/2/bw/001.png","","","relaxing"
"","","","","","animation","334","1445519","0.0-334.0","1920x1080","","2494.7000000001863","3.17","img/117/4.5/1/bw/001.png","","","relaxing"
"","","","","","animation","335","1448653","0.0-335.0","1920x1080","","3132.5999999996275","0.00","img/238/2.5/0.5/bw/001.png","","","relaxing"
"","","","","","animation","336","1452053","0.0-336.0","1920x1080","","3398.399999999907","3.31","img/238/4/1/bw/001.png","","","relaxing"
"","","","","","animation","337","1454653","0.0-337.0","1920x1080","","2598.7000000001863","0.13","img/314/2.5/0.66667/bw/001.png","","","relaxing"
"","","","","","animation","338","1459424","0.0-338.0","1920x1080","","4769.600000000093","1.72","img/314/4/2/bw/001.png","","","relaxing"
"","","","","","animation","339","1463736","0.0-339.0","1920x1080","","4310.899999999907","0.93","img/117/3.5/0.5/bw/001.png","","","relaxing"
"","","","","","animation","340","1465856","0.0-340.0","1920x1080","","2117.399999999907","1.32","img/314/4.5/0.66667/bw/001.png","","","relaxing"
"","","","","","animation","341","1468791","0.0-341.0","1920x1080","","2934.7000000001863","2.91","img/238/3.5/1.5/bw/001.png","","","relaxing"
"","","","","","animation","342","1472939","0.0-342.0","1920x1080","","4146.799999999814","40.34","img/238/5.5/0.66667/bw/001.png","","","relaxing"
"","","","","","animation","343","1477976","0.0-343.0","1920x1080","","5034.899999999907","71.83","img/238/5.5/1.5/bw/001.png","","","relaxing"
"","","","","","animation","344","1481162","0.0-344.0","1920x1080","","3184.2999999998137","0","img/117/3.5/1/bw/001.png","","","relaxing"
"","","","","","animation","345","1486141","0.0-345.0","1920x1080","","4977.200000000186","0","img/117/4/0.66667/bw/001.png","","","relaxing"
"","","","","","animation","346","1488440","0.0-346.0","1920x1080","","2297.600000000093","0.13","img/117/4/1.5/bw/001.png","","","relaxing"
"","","","","","animation","347","1491020","0.0-347.0","1920x1080","","2579.1999999997206","2.12","img/314/3.5/0.5/bw/001.png","","","relaxing"
"","","","","","animation","348","1494085","0.0-348.0","1920x1080","","3063.7000000001863","1.19","img/117/4.5/1.5/bw/001.png","","","relaxing"
"","","","","","animation","349","1495863","0.0-349.0","1920x1080","","1776.2000000001863","2.25","img/238/4.5/0.5/bw/001.png","","","relaxing"
"","","","","","animation","350","1498290","0.0-350.0","1920x1080","","2425.7000000001863","39.81","img/238/5.5/1/bw/001.png","","","relaxing"
"","","","","","animation","351","1500688","0.0-351.0","1920x1080","","2397.100000000093","70.50","img/117/5.5/1.5/bw/001.png","","","relaxing"
"","","","","","animation","352","1503162","0.0-352.0","1920x1080","","2463.8000000002794","0.79","img/314/2.5/2/bw/001.png","","","relaxing"
"","","","","","animation","353","1506116","0.0-353.0","1920x1080","","2952.2999999998137","0.53","img/238/4.5/0.66667/bw/001.png","","","relaxing"
"","","","","","animation","354","1510764","0.0-354.0","1920x1080","","4646.0999999996275","0","img/314/4/0.5/bw/001.png","","","relaxing"
"","","","","","animation","355","1513321","0.0-355.0","1920x1080","","2555.7999999998137","1.59","img/238/3.5/2/bw/001.png","","","relaxing"
"","","","","","animation","356","1515179","0.0-356.0","1920x1080","","1856.9000000003725","4.23","img/117/4/2/bw/001.png","","","relaxing"
"","","","","","animation","357","1518513","0.0-357.0","1920x1080","","3332.2000000001863","5.03","img/117/4.5/2/bw/001.png","","","relaxing"
"","","","","","animation","358","1520913","0.0-358.0","1920x1080","","2398.4000000003725","7.01","img/314/3.5/0.66667/bw/001.png","","","relaxing"
"","","","","","animation","359","1523763","0.0-359.0","1920x1080","","2848.899999999907","63.23","img/314/5.5/1.5/bw/001.png","","","relaxing"
"","","","","","animation","360","1528056","0.0-360.0","1920x1080","","4292","1.19","img/238/2.5/1/bw/001.png","","","relaxing"
"","","","","","animation","361","1530700","0.0-361.0","1920x1080","","2640.899999999907","5.95","img/117/4/1/bw/001.png","","","relaxing"
"","","","","","animation","362","1532880","0.0-362.0","1920x1080","","2179.1999999997206","0.53","img/117/2.5/1/bw/001.png","","","relaxing"
"","","","","","animation","363","1535653","0.0-363.0","1920x1080","","2771.399999999907","6.75","img/314/4.5/1/bw/001.png","","","relaxing"
"","","","","","animation","364","1538600","0.0-364.0","1920x1080","","2945.100000000093","0","img/238/2.5/2/bw/001.png","","","relaxing"
"","","","","","animation","365","1540549","0.0-365.0","1920x1080","","1947.7000000001863","0","img/238/4/2/bw/001.png","","","relaxing"
"","","","","","animation","366","1543098","0.0-366.0","1920x1080","","2547.0999999996275","64.55","img/238/5.5/2/bw/001.png","","","relaxing"
"","","","","","animation","367","1546430","0.0-367.0","1920x1080","","3330.7999999998137","0.53","img/314/2.5/0.5/bw/001.png","","","relaxing"
"","","","","","animation","368","1548729","0.0-368.0","1920x1080","","2298.100000000093","0","img/314/2.5/1/bw/001.png","","","relaxing"
"","","","","","animation","369","1551980","0.0-369.0","1920x1080","","3249.3000000002794","32.80","img/238/4.5/2/bw/001.png","","","relaxing"
"","","","","","animation","370","1555362","0.0-370.0","1920x1080","","3379","0.40","img/238/2.5/0.66667/bw/001.png","","","relaxing"
"","","","","","animation","371","1559362","0.0-371.0","1920x1080","","3998.2999999998137","8.60","img/238/5.5/0.5/bw/001.png","","","relaxing"
"","","","","","animation","372","1562049","0.0-372.0","1920x1080","","2685","58.86","img/117/5.5/2/bw/001.png","","","relaxing"
"","","","","","animation","373","1564497","0.0-373.0","1920x1080","","2446.7999999998137","76.46","img/314/5.5/2/bw/001.png","","","relaxing"
"","","","","","animation","374","1566881","0.0-374.0","1920x1080","","2382.6999999997206","10.05","img/238/4.5/1/bw/001.png","","","relaxing"
"","","","","","animation","375","1569030","0.0-375.0","1920x1080","","2147.7999999998137","0.40","img/314/4.5/0.5/bw/001.png","","","relaxing"
"","","","","","animation","376","1571563","0.0-376.0","1920x1080","","2531.100000000093","5.03","img/117/3.5/0.66667/bw/001.png","","","relaxing"
"","","","","","animation","377","1574214","0.0-377.0","1920x1080","","2649.7000000001863","0.79","img/117/2.5/0.5/bw/001.png","","","relaxing"
"","","","","","animation","378","1576585","0.0-378.0","1920x1080","","2369.899999999907","0.13","img/238/2.5/1.5/bw/001.png","","","relaxing"
"","","","","","animation","379","1578338","0.0-379.0","1920x1080","","1750.8999999999069","3.17","img/314/3.5/2/bw/001.png","","","relaxing"
"","","","","","animation","380","1580930","0.0-380.0","1920x1080","","2590.7999999998137","6.88","img/314/4/0.66667/bw/001.png","","","relaxing"
"","","","","","animation","381","1583332","0.0-381.0","1920x1080","","2400.7999999998137","4.37","img/314/4/1/bw/001.png","","","relaxing"
"","","","","","animation","382","1585914","0.0-382.0","1920x1080","","2580.6999999997206","11.51","img/314/4.5/2/bw/001.png","","","relaxing"
"","","","","","animation","383","1588429","0.0-383.0","1920x1080","","2513.600000000093","0.79","img/314/2.5/1.5/bw/001.png","","","relaxing"
"","","","","","animation","384","1591440","0.0-384.0","1920x1080","","3009","31.61","img/117/5.5/0.66667/bw/001.png","","","relaxing"
"","","","","","animation","385","1593314","0.0-385.0","1920x1080","","1871.3999999999069","15.08","img/117/3.5/2/bw/001.png","","","relaxing"
"","","","","","animation","386","1595633","0.0-386.0","1920x1080","","2316.399999999907","6.88","img/314/3.5/1.5/bw/001.png","","","relaxing"
"","","","","","animation","387","1600097","0.0-387.0","1920x1080","","4462.799999999814","4.10","img/117/4.5/0.5/bw/001.png","","","relaxing"
"","","","","","animation","388","1603081","0.0-388.0","1920x1080","","2981.6999999997206","0","img/117/2.5/0.66667/bw/001.png","","","relaxing"
"","","","","","animation","389","1606047","0.0-389.0","1920x1080","","2964.5","6.22","img/238/3.5/1/bw/001.png","","","relaxing"
"","","","","","html-button-response","390","1634586","0.0-390.0","1920x1080","","28536.80000000028","","<strong>Study Debriefing</strong><br><p class=""debrief""><strong>Background:</strong> The patterns you rated are called <em>fractals</em>. The term fractal describes a class of irregular curves or shapes for which any suitably chosen part is similar in shape to a given larger or smaller part when magnified or reduced to the same size. Fractal properties are found throughout the natural and manmade world. The series of animations you saw today displayed animated fractal patterns of a varying complexity.</p><p class=""debrief""><strong>Purpose of this study:</strong> We hope to better understand how the perception of static fractals differs from the perception of animated fractals, and how the speed of the animated patterns influences people&apos;s perception of them. Fractals allow us to study the perception of aesthetic properties (e.g. the perceived level of beauty in an image) without using recognizable content, which makes them an excellent tool for studying abstract aesthetic judgement.</p><p class=""debrief""><strong>Your part:</strong> Your participation has helped us to further understand how humans perceive these patterns across different levels of speed and complexity. This research with allow us to better understand how the visual system and brain process our ever-changing visual environments.<p class=""debrief""><strong>Feedback and Further information:</strong> If you have additional questions about this study, please feel free to ask the researcher, Nathan Gonzales-Hess at nhess @ uoregon.edu. If you have any questions concerning your rights as a research participant, please contact Research Compliance Services, 5237 University of Oregon, Eugene, OR 97403, 541-346-2510, or email researchCompliance @ uoregon.edu. You can also email the Human Subjects Coordinator for psychology and linguistics research at hscoord @ uoregon.edu. ","0","",""
"","","","","","html-button-response","391","1642133","0.0-391.0","1920x1080","","7541.899999999907","","Thank you for participating in this study. <br>Please click below to finish the experiment and submit your responses.<br><br>","0","",""
"true","","","","","fullscreen","392","1643157","0.0-392.0","1920x1080","16:8 19/10/2022","","","","","",""
