"success","timeout","failed_images","failed_audio","failed_video","trial_type","trial_index","time_elapsed","internal_node_id","resolution","timeStamp","rt","response","stimulus","button_pressed","value","descriptor"
"true","false","[]","[]","[]","preload","0","5960","0.0-0.0","1920x1080","","","","","","",""
"true","false","[]","[]","[]","preload","1","12115","0.0-1.0","1920x1080","","","","","","",""
"true","false","[]","[]","[]","preload","2","18262","0.0-2.0","1920x1080","","","","","","",""
"true","","","","","fullscreen","3","268453","0.0-3.0","1920x1080","12:25 28/10/2022","","","","","",""
"","","","","","survey-html-form","4","278147","0.0-4.0","1920x1080","","9691.100000000559","{""age"":""19"",""gender"":""female""}","","","",""
"","","","","","html-button-response","5","337556","0.0-5.0","1920x1080","","59407.799999999814","","<div class=""complex"">You are going to see a series of animations.<br><br></div><div class=""complex"">Move the slider to indicate how <strong style=""text-transform:capitalize"">COMPLEX</strong> you find each animation.<br><br></div><div class=""complex"">0 = Least Complex<br></div><div class=""complex"">1 = Most Complex<br><br></div><div class=""complex"">Remember to use the <strong><em>entire range</em></strong> of the slider to make your ratings.<br></div><div class=""complex"">Please <strong><em>take your time</em></strong> and carefully consider each rating you make.<br><br></div><div class=""complex"">The study has five sections and will take about 45 minutes to complete.<br><br></div>","0","",""
"","","","","","call-function","6","337557","0.0-6.0","1920x1080","","","","","","",""
"","","","","","animation","7","353140","0.0-7.0","1920x1080","","15582.099999999627","57.28","img/238/2.5/0.66667/bw/001.png","","","complex"
"","","","","","animation","8","371700","0.0-8.0","1920x1080","","18558.800000000745","33.47","img/238/3.5/1.5/bw/001.png","","","complex"
"","","","","","animation","9","376435","0.0-9.0","1920x1080","","4734.899999999441","26.32","img/314/4/2/bw/001.png","","","complex"
"","","","","","animation","10","382468","0.0-10.0","1920x1080","","6031.299999999814","43.92","img/314/3.5/2/bw/001.png","","","complex"
"","","","","","animation","11","387835","0.0-11.0","1920x1080","","5367","50.00","img/238/3.5/0.66667/bw/001.png","","","complex"
"","","","","","animation","12","393796","0.0-12.0","1920x1080","","5959.600000000559","52.78","img/117/3.5/1/bw/001.png","","","complex"
"","","","","","animation","13","397173","0.0-13.0","1920x1080","","3374.9000000003725","28.84","img/117/4/2/bw/001.png","","","complex"
"","","","","","animation","14","402677","0.0-14.0","1920x1080","","5503.0999999996275","91.01","img/314/2.5/1.5/bw/001.png","","","complex"
"","","","","","animation","15","409916","0.0-15.0","1920x1080","","7239.100000000559","94.58","img/117/2.5/0.5/bw/001.png","","","complex"
"","","","","","animation","16","414068","0.0-16.0","1920x1080","","4151","99","img/238/2.5/0.5/bw/001.png","","","complex"
"","","","","","animation","17","418709","0.0-17.0","1920x1080","","4639.799999999814","9.92","img/117/4.5/1/bw/001.png","","","complex"
"","","","","","animation","18","422612","0.0-18.0","1920x1080","","3902.9000000003725","2.12","img/238/5.5/2/bw/001.png","","","complex"
"","","","","","animation","19","427613","0.0-19.0","1920x1080","","4999.5","7.54","img/117/5.5/1.5/bw/001.png","","","complex"
"","","","","","animation","20","433740","0.0-20.0","1920x1080","","6126.5999999996275","97","img/117/2.5/1/bw/001.png","","","complex"
"","","","","","animation","21","442645","0.0-21.0","1920x1080","","8903.399999999441","22","img/117/4.5/0.66667/bw/001.png","","","complex"
"","","","","","animation","22","447892","0.0-22.0","1920x1080","","5246.5","99","img/314/2.5/0.66667/bw/001.png","","","complex"
"","","","","","animation","23","452077","0.0-23.0","1920x1080","","4183.799999999814","84.79","img/238/2.5/2/bw/001.png","","","complex"
"","","","","","animation","24","454964","0.0-24.0","1920x1080","","2887","94","img/314/2.5/2/bw/001.png","","","complex"
"","","","","","animation","25","459298","0.0-25.0","1920x1080","","4335.5","33.86","img/238/4/0.5/bw/001.png","","","complex"
"","","","","","animation","26","464289","0.0-26.0","1920x1080","","4990.9000000003725","46.30","img/117/3.5/1.5/bw/001.png","","","complex"
"","","","","","animation","27","468547","0.0-27.0","1920x1080","","4256.9000000003725","30.82","img/117/4.5/0.5/bw/001.png","","","complex"
"","","","","","animation","28","474057","0.0-28.0","1920x1080","","5509.700000000186","61.90","img/117/3.5/0.5/bw/001.png","","","complex"
"","","","","","animation","29","489273","0.0-29.0","1920x1080","","15215","29","img/238/4.5/1/bw/001.png","","","complex"
"","","","","","animation","30","492649","0.0-30.0","1920x1080","","3375","34.92","img/238/4/1.5/bw/001.png","","","complex"
"","","","","","animation","31","500578","0.0-31.0","1920x1080","","7927.9000000003725","38.23","img/314/4/1/bw/001.png","","","complex"
"","","","","","animation","32","520749","0.0-32.0","1920x1080","","20174.900000000373","20","img/314/5.5/1/bw/001.png","","","complex"
"","","","","","animation","33","531373","0.0-33.0","1920x1080","","10623.5","93.65","img/117/2.5/0.66667/bw/001.png","","","complex"
"","","","","","animation","34","537101","0.0-34.0","1920x1080","","5726.700000000186","84.92","img/314/3.5/0.66667/bw/001.png","","","complex"
"","","","","","animation","35","540132","0.0-35.0","1920x1080","","3031","33.33","img/238/4.5/0.66667/bw/001.png","","","complex"
"","","","","","animation","36","543359","0.0-36.0","1920x1080","","3225.600000000559","15.74","img/238/5.5/1.5/bw/001.png","","","complex"
"","","","","","animation","37","548309","0.0-37.0","1920x1080","","4949.799999999814","60.98","img/117/4/0.5/bw/001.png","","","complex"
"","","","","","animation","38","553244","0.0-38.0","1920x1080","","4934.299999999814","67.46","img/314/3.5/0.5/bw/001.png","","","complex"
"","","","","","animation","39","557389","0.0-39.0","1920x1080","","4143.4000000003725","54.76","img/314/4.5/0.66667/bw/001.png","","","complex"
"","","","","","animation","40","565828","0.0-40.0","1920x1080","","8438.699999999255","39.81","img/117/4.5/2/bw/001.png","","","complex"
"","","","","","animation","41","571685","0.0-41.0","1920x1080","","5855.5999999996275","7.01","img/314/5.5/1.5/bw/001.png","","","complex"
"","","","","","animation","42","575101","0.0-42.0","1920x1080","","3414.899999999441","19.31","img/238/4.5/0.5/bw/001.png","","","complex"
"","","","","","animation","43","585676","0.0-43.0","1920x1080","","10567.400000000373","58.47","img/238/3.5/1/bw/001.png","","","complex"
"","","","","","animation","44","588228","0.0-44.0","1920x1080","","2551.100000000559","69.05","img/238/3.5/0.5/bw/001.png","","","complex"
"","","","","","animation","45","592908","0.0-45.0","1920x1080","","4679.200000000186","67.33","img/314/4/0.66667/bw/001.png","","","complex"
"","","","","","animation","46","596868","0.0-46.0","1920x1080","","3958.699999999255","76.59","img/117/3.5/2/bw/001.png","","","complex"
"","","","","","animation","47","602750","0.0-47.0","1920x1080","","5880.899999999441","5.69","img/314/5.5/0.66667/bw/001.png","","","complex"
"","","","","","animation","48","606766","0.0-48.0","1920x1080","","4015.7000000001863","1.98","img/238/5.5/0.66667/bw/001.png","","","complex"
"","","","","","animation","49","612492","0.0-49.0","1920x1080","","5725","47","img/238/4/0.66667/bw/001.png","","","complex"
"","","","","","animation","50","618612","0.0-50.0","1920x1080","","6119.200000000186","10.45","img/314/5.5/2/bw/001.png","","","complex"
"","","","","","animation","51","623588","0.0-51.0","1920x1080","","4974.899999999441","53.70","img/314/4/0.5/bw/001.png","","","complex"
"","","","","","animation","52","628156","0.0-52.0","1920x1080","","4567.0999999996275","42.06","img/238/4.5/2/bw/001.png","","","complex"
"","","","","","animation","53","633412","0.0-53.0","1920x1080","","5255.200000000186","53.17","img/117/4/1.5/bw/001.png","","","complex"
"","","","","","animation","54","636789","0.0-54.0","1920x1080","","3374.7000000001863","39.15","img/117/4.5/1.5/bw/001.png","","","complex"
"","","","","","animation","55","642614","0.0-55.0","1920x1080","","5823.5999999996275","34.13","img/314/4.5/2/bw/001.png","","","complex"
"","","","","","animation","56","654053","0.0-56.0","1920x1080","","11438.300000000745","99","img/117/2.5/1.5/bw/001.png","","","complex"
"","","","","","animation","57","670669","0.0-57.0","1920x1080","","16615","19","img/238/5.5/0.5/bw/001.png","","","complex"
"","","","","","animation","58","677637","0.0-58.0","1920x1080","","6967.299999999814","40.34","img/314/4.5/1.5/bw/001.png","","","complex"
"","","","","","animation","59","680773","0.0-59.0","1920x1080","","3135.2999999998137","19.58","img/314/5.5/0.5/bw/001.png","","","complex"
"","","","","","animation","60","684974","0.0-60.0","1920x1080","","4199.200000000186","55.95","img/314/3.5/1.5/bw/001.png","","","complex"
"","","","","","animation","61","690710","0.0-61.0","1920x1080","","5735.100000000559","86.11","img/117/2.5/2/bw/001.png","","","complex"
"","","","","","animation","62","696689","0.0-62.0","1920x1080","","5983.299999999814","99","img/314/2.5/0.5/bw/001.png","","","complex"
"","","","","","animation","63","708363","0.0-63.0","1920x1080","","11672.5","41","img/238/4/2/bw/001.png","","","complex"
"","","","","","animation","64","711449","0.0-64.0","1920x1080","","3084.800000000745","45.37","img/314/4/1.5/bw/001.png","","","complex"
"","","","","","animation","65","713801","0.0-65.0","1920x1080","","2351","32.14","img/238/4.5/1.5/bw/001.png","","","complex"
"","","","","","animation","66","717281","0.0-66.0","1920x1080","","3479.100000000559","57.01","img/314/4.5/0.5/bw/001.png","","","complex"
"","","","","","animation","67","720496","0.0-67.0","1920x1080","","3214.899999999441","19.31","img/117/5.5/2/bw/001.png","","","complex"
"","","","","","animation","68","725801","0.0-68.0","1920x1080","","5303.4000000003725","65.48","img/117/3.5/0.66667/bw/001.png","","","complex"
"","","","","","animation","69","731185","0.0-69.0","1920x1080","","5383","21.69","img/117/5.5/0.66667/bw/001.png","","","complex"
"","","","","","animation","70","734737","0.0-70.0","1920x1080","","3551.300000000745","14.55","img/117/5.5/1/bw/001.png","","","complex"
"","","","","","animation","71","737682","0.0-71.0","1920x1080","","2943.7999999998137","79.76","img/238/2.5/1.5/bw/001.png","","","complex"
"","","","","","animation","72","744796","0.0-72.0","1920x1080","","7113.5999999996275","32.67","img/314/4.5/1/bw/001.png","","","complex"
"","","","","","animation","73","748169","0.0-73.0","1920x1080","","3371.699999999255","80.69","img/238/2.5/1/bw/001.png","","","complex"
"","","","","","animation","74","756441","0.0-74.0","1920x1080","","8271.299999999814","85","img/314/2.5/1/bw/001.png","","","complex"
"","","","","","animation","75","763404","0.0-75.0","1920x1080","","6958.4000000003725","49.07","img/238/3.5/2/bw/001.png","","","complex"
"","","","","","animation","76","774388","0.0-76.0","1920x1080","","10983","31","img/238/4/1/bw/001.png","","","complex"
"","","","","","animation","77","779844","0.0-77.0","1920x1080","","5453.799999999814","55.03","img/117/4/0.66667/bw/001.png","","","complex"
"","","","","","animation","78","782372","0.0-78.0","1920x1080","","2526.7999999998137","57.80","img/117/4/1/bw/001.png","","","complex"
"","","","","","animation","79","786076","0.0-79.0","1920x1080","","3703.0999999996275","60.19","img/314/3.5/1/bw/001.png","","","complex"
"","","","","","animation","80","794181","0.0-80.0","1920x1080","","8104.799999999814","20.37","img/238/5.5/1/bw/001.png","","","complex"
"","","","","","animation","81","796972","0.0-81.0","1920x1080","","2789.4000000003725","24.87","img/117/5.5/0.5/bw/001.png","","","complex"
"","","","","","html-button-response","82","817952","0.0-82.0","1920x1080","","20976.800000000745","","<div class=""intro"">You are about to view a new series of animations.<br><br></div><div class=""intro"">You will evaluate them based on a different descriptor.<br><br></div><div class=""intro"">Move the slider to indicate how <strong style=""text-transform:capitalize"">RELAXING</strong> you find each animation.<br><br></div><div class=""intro"">0 = Least Relaxing<br></div><div class=""intro"">1 = Most Relaxing<br><br></div><div class=""intro"">Remember to use the <strong><em>entire range</em></strong> of the slider to make your ratings.<br></div><div class=""intro"">Please <strong><em>take your time</em></strong> and carefully consider each rating you make.<br><br></div>","0","",""
"","","","","","call-function","83","817953","0.0-83.0","1920x1080","","","","","","",""
"","","","","","animation","84","826966","0.0-84.0","1920x1080","","9012.200000000186","8.60","img/238/2.5/1.5/bw/001.png","","","relaxing"
"","","","","","animation","85","831285","0.0-85.0","1920x1080","","4318.299999999814","33.99","img/238/4.5/1.5/bw/001.png","","","relaxing"
"","","","","","animation","86","834901","0.0-86.0","1920x1080","","3615","32.41","img/238/4/1.5/bw/001.png","","","relaxing"
"","","","","","animation","87","839125","0.0-87.0","1920x1080","","4223.799999999814","17.59","img/238/4.5/0.66667/bw/001.png","","","relaxing"
"","","","","","animation","88","843167","0.0-88.0","1920x1080","","4040.4000000003725","41.80","img/238/4/2/bw/001.png","","","relaxing"
"","","","","","animation","89","846189","0.0-89.0","1920x1080","","3021.100000000559","32.80","img/117/4/1.5/bw/001.png","","","relaxing"
"","","","","","animation","90","851709","0.0-90.0","1920x1080","","5519","4.89","img/117/2.5/2/bw/001.png","","","relaxing"
"","","","","","animation","91","855033","0.0-91.0","1920x1080","","3322","0.53","img/314/2.5/0.66667/bw/001.png","","","relaxing"
"","","","","","animation","92","857493","0.0-92.0","1920x1080","","2459.2999999998137","14.55","img/117/3.5/1.5/bw/001.png","","","relaxing"
"","","","","","animation","93","861005","0.0-93.0","1920x1080","","3510.7999999998137","54.76","img/314/4.5/2/bw/001.png","","","relaxing"
"","","","","","animation","94","869389","0.0-94.0","1920x1080","","8382.799999999814","80.69","img/314/5.5/1.5/bw/001.png","","","relaxing"
"","","","","","animation","95","872821","0.0-95.0","1920x1080","","3430.7999999998137","45.11","img/117/5.5/0.5/bw/001.png","","","relaxing"
"","","","","","animation","96","875221","0.0-96.0","1920x1080","","2399.2000000001863","28.17","img/238/4.5/0.5/bw/001.png","","","relaxing"
"","","","","","animation","97","877945","0.0-97.0","1920x1080","","2726.7999999998137","12.17","img/314/4/0.66667/bw/001.png","","","relaxing"
"","","","","","animation","98","880441","0.0-98.0","1920x1080","","2495.2999999998137","18.52","img/117/4.5/0.5/bw/001.png","","","relaxing"
"","","","","","animation","99","883028","0.0-99.0","1920x1080","","2586.4000000003725","10.05","img/238/3.5/1/bw/001.png","","","relaxing"
"","","","","","animation","100","885817","0.0-100.0","1920x1080","","2787.7000000001863","7.41","img/314/3.5/0.66667/bw/001.png","","","relaxing"
"","","","","","animation","101","887873","0.0-101.0","1920x1080","","2055.2000000001863","18.78","img/314/4.5/1.5/bw/001.png","","","relaxing"
"","","","","","animation","102","892121","0.0-102.0","1920x1080","","4247.100000000559","60.58","img/117/5.5/0.66667/bw/001.png","","","relaxing"
"","","","","","animation","103","896097","0.0-103.0","1920x1080","","3973.7999999998137","53.04","img/314/5.5/0.5/bw/001.png","","","relaxing"
"","","","","","animation","104","898841","0.0-104.0","1920x1080","","2743.5","2.65","img/238/2.5/1/bw/001.png","","","relaxing"
"","","","","","animation","105","902913","0.0-105.0","1920x1080","","4071.0999999996275","64.55","img/314/5.5/0.66667/bw/001.png","","","relaxing"
"","","","","","animation","106","908401","0.0-106.0","1920x1080","","5486.5999999996275","16","img/314/4.5/1/bw/001.png","","","relaxing"
"","","","","","animation","107","911241","0.0-107.0","1920x1080","","2839","0","img/238/2.5/2/bw/001.png","","","relaxing"
"","","","","","animation","108","918313","0.0-108.0","1920x1080","","7070.5999999996275","85.32","img/238/5.5/0.5/bw/001.png","","","relaxing"
"","","","","","animation","109","922112","0.0-109.0","1920x1080","","3799.0999999996275","0.53","img/117/2.5/1.5/bw/001.png","","","relaxing"
"","","","","","animation","110","931179","0.0-110.0","1920x1080","","9065.600000000559","48","img/117/4/2/bw/001.png","","","relaxing"
"","","","","","animation","111","934321","0.0-111.0","1920x1080","","3140.7999999998137","5.95","img/314/3.5/0.5/bw/001.png","","","relaxing"
"","","","","","animation","112","940311","0.0-112.0","1920x1080","","5991","97","img/117/5.5/1.5/bw/001.png","","","relaxing"
"","","","","","animation","113","944879","0.0-113.0","1920x1080","","4566.4000000003725","20.63","img/314/3.5/2/bw/001.png","","","relaxing"
"","","","","","animation","114","948827","0.0-114.0","1920x1080","","3946.399999999441","98","img/117/5.5/2/bw/001.png","","","relaxing"
"","","","","","animation","115","957528","0.0-115.0","1920x1080","","8700.900000000373","100","img/314/5.5/1/bw/001.png","","","relaxing"
"","","","","","animation","116","967395","0.0-116.0","1920x1080","","9864","0","img/238/2.5/0.5/bw/001.png","","","relaxing"
"","","","","","animation","117","972135","0.0-117.0","1920x1080","","4738.0999999996275","7.94","img/238/4/0.66667/bw/001.png","","","relaxing"
"","","","","","animation","118","976631","0.0-118.0","1920x1080","","4494.700000000186","15.48","img/314/3.5/1.5/bw/001.png","","","relaxing"
"","","","","","animation","119","981735","0.0-119.0","1920x1080","","5103","21.96","img/117/4.5/1/bw/001.png","","","relaxing"
"","","","","","animation","120","985527","0.0-120.0","1920x1080","","3790.9000000003725","32.67","img/238/3.5/2/bw/001.png","","","relaxing"
"","","","","","animation","121","991643","0.0-121.0","1920x1080","","6115","0","img/117/3.5/0.5/bw/001.png","","","relaxing"
"","","","","","animation","122","995162","0.0-122.0","1920x1080","","3517.5","57.01","img/117/4.5/2/bw/001.png","","","relaxing"
"","","","","","animation","123","1004813","0.0-123.0","1920x1080","","9652.200000000186","28.84","img/314/4/1.5/bw/001.png","","","relaxing"
"","","","","","animation","124","1011117","0.0-124.0","1920x1080","","6303.299999999814","30.29","img/314/4.5/0.66667/bw/001.png","","","relaxing"
"","","","","","animation","125","1015518","0.0-125.0","1920x1080","","4398.200000000186","35.85","img/238/4/1/bw/001.png","","","relaxing"
"","","","","","animation","126","1019558","0.0-126.0","1920x1080","","4039.4000000003725","87.57","img/238/5.5/0.66667/bw/001.png","","","relaxing"
"","","","","","animation","127","1023286","0.0-127.0","1920x1080","","3726.7999999998137","-0.93","img/117/2.5/0.66667/bw/001.png","","","relaxing"
"","","","","","animation","128","1028877","0.0-128.0","1920x1080","","5590.299999999814","39.68","img/238/4.5/1/bw/001.png","","","relaxing"
"","","","","","animation","129","1035502","0.0-129.0","1920x1080","","6622.899999999441","0","img/314/2.5/2/bw/001.png","","","relaxing"
"","","","","","animation","130","1042061","0.0-130.0","1920x1080","","6557.799999999814","16.80","img/238/3.5/0.66667/bw/001.png","","","relaxing"
"","","","","","animation","131","1045642","0.0-131.0","1920x1080","","3579.2999999998137","37.57","img/117/4.5/1.5/bw/001.png","","","relaxing"
"","","","","","animation","132","1050442","0.0-132.0","1920x1080","","4799","0","img/117/2.5/1/bw/001.png","","","relaxing"
"","","","","","animation","133","1054486","0.0-133.0","1920x1080","","4042.5999999996275","0","img/314/2.5/1.5/bw/001.png","","","relaxing"
"","","","","","animation","134","1057675","0.0-134.0","1920x1080","","3190.100000000559","41.80","img/314/4/2/bw/001.png","","","relaxing"
"","","","","","animation","135","1062640","0.0-135.0","1920x1080","","4963.300000000745","8.47","img/117/4/0.5/bw/001.png","","","relaxing"
"","","","","","animation","136","1069075","0.0-136.0","1920x1080","","6434.700000000186","50.66","img/238/4.5/2/bw/001.png","","","relaxing"
"","","","","","animation","137","1076358","0.0-137.0","1920x1080","","7281.299999999814","2","img/117/4.5/0.66667/bw/001.png","","","relaxing"
"","","","","","animation","138","1080179","0.0-138.0","1920x1080","","3820.5","0","img/117/3.5/0.66667/bw/001.png","","","relaxing"
"","","","","","animation","139","1088475","0.0-139.0","1920x1080","","8294.600000000559","0","img/117/2.5/0.5/bw/001.png","","","relaxing"
"","","","","","animation","140","1100973","0.0-140.0","1920x1080","","12496.199999999255","3.97","img/238/3.5/0.5/bw/001.png","","","relaxing"
"","","","","","animation","141","1104456","0.0-141.0","1920x1080","","3482.199999999255","5.95","img/314/4/0.5/bw/001.png","","","relaxing"
"","","","","","animation","142","1107457","0.0-142.0","1920x1080","","2999.2999999998137","5.29","img/117/4/0.66667/bw/001.png","","","relaxing"
"","","","","","animation","143","1114859","0.0-143.0","1920x1080","","7401.800000000745","0","img/314/2.5/0.5/bw/001.png","","","relaxing"
"","","","","","animation","144","1117414","0.0-144.0","1920x1080","","2550.7999999998137","6.08","img/238/3.5/1.5/bw/001.png","","","relaxing"
"","","","","","animation","145","1123792","0.0-145.0","1920x1080","","6376.800000000745","2","img/117/3.5/1/bw/001.png","","","relaxing"
"","","","","","animation","146","1132799","0.0-146.0","1920x1080","","9005.5","26.06","img/117/4/1/bw/001.png","","","relaxing"
"","","","","","animation","147","1135459","0.0-147.0","1920x1080","","2659.2000000001863","1.59","img/238/2.5/0.66667/bw/001.png","","","relaxing"
"","","","","","animation","148","1139861","0.0-148.0","1920x1080","","4401.0999999996275","92","img/314/5.5/2/bw/001.png","","","relaxing"
"","","","","","animation","149","1144678","0.0-149.0","1920x1080","","4815.300000000745","97","img/238/5.5/1/bw/001.png","","","relaxing"
"","","","","","animation","150","1147527","0.0-150.0","1920x1080","","2847.5","0.53","img/314/2.5/1/bw/001.png","","","relaxing"
"","","","","","animation","151","1150376","0.0-151.0","1920x1080","","2848","83.33","img/238/5.5/2/bw/001.png","","","relaxing"
"","","","","","animation","152","1153959","0.0-152.0","1920x1080","","3581.4000000003725","87.17","img/117/5.5/1/bw/001.png","","","relaxing"
"","","","","","animation","153","1160427","0.0-153.0","1920x1080","","6467.4000000003725","100","img/238/5.5/1.5/bw/001.png","","","relaxing"
"","","","","","animation","154","1163887","0.0-154.0","1920x1080","","3458.399999999441","14.29","img/117/3.5/2/bw/001.png","","","relaxing"
"","","","","","animation","155","1166926","0.0-155.0","1920x1080","","3038.2999999998137","11.64","img/314/3.5/1/bw/001.png","","","relaxing"
"","","","","","animation","156","1169875","0.0-156.0","1920x1080","","2948.0999999996275","5","img/314/4.5/0.5/bw/001.png","","","relaxing"
"","","","","","animation","157","1174967","0.0-157.0","1920x1080","","5090.5","1.32","img/238/4/0.5/bw/001.png","","","relaxing"
"","","","","","animation","158","1178109","0.0-158.0","1920x1080","","3142.5","5.16","img/314/4/1/bw/001.png","","","relaxing"
"","","","","","html-button-response","159","1197665","0.0-159.0","1920x1080","","19553.799999999814","","<div class=""intro"">You are about to view a new series of animations.<br><br></div><div class=""intro"">You will evaluate them based on a different descriptor.<br><br></div><div class=""intro"">Move the slider to indicate how <strong style=""text-transform:capitalize"">INTERESTING</strong> you find each animation.<br><br></div><div class=""intro"">0 = Least Interesting<br></div><div class=""intro"">1 = Most Interesting<br><br></div><div class=""intro"">Remember to use the <strong><em>entire range</em></strong> of the slider to make your ratings.<br></div><div class=""intro"">Please <strong><em>take your time</em></strong> and carefully consider each rating you make.<br><br></div>","0","",""
"","","","","","call-function","160","1197666","0.0-160.0","1920x1080","","","","","","",""
"","","","","","animation","161","1203125","0.0-161.0","1920x1080","","5458.200000000186","37.17","img/238/4.5/0.66667/bw/001.png","","","interesting"
"","","","","","animation","162","1209613","0.0-162.0","1920x1080","","6487.399999999441","63.36","img/117/5.5/2/bw/001.png","","","interesting"
"","","","","","animation","163","1212493","0.0-163.0","1920x1080","","2878.5","46.69","img/238/4/2/bw/001.png","","","interesting"
"","","","","","animation","164","1216858","0.0-164.0","1920x1080","","4363.700000000186","54.89","img/314/4.5/1/bw/001.png","","","interesting"
"","","","","","animation","165","1220461","0.0-165.0","1920x1080","","3602.2000000001863","63.62","img/314/4.5/1.5/bw/001.png","","","interesting"
"","","","","","animation","166","1223576","0.0-166.0","1920x1080","","3114.100000000559","41.53","img/314/3.5/0.66667/bw/001.png","","","interesting"
"","","","","","animation","167","1230741","0.0-167.0","1920x1080","","7164","42.72","img/238/4/0.5/bw/001.png","","","interesting"
"","","","","","animation","168","1233861","0.0-168.0","1920x1080","","3116.600000000559","28.97","img/117/3.5/0.66667/bw/001.png","","","interesting"
"","","","","","animation","169","1236058","0.0-169.0","1920x1080","","2195.7000000001863","28.17","img/314/3.5/1.5/bw/001.png","","","interesting"
"","","","","","animation","170","1240491","0.0-170.0","1920x1080","","4434.4000000003725","25.13","img/314/3.5/0.5/bw/001.png","","","interesting"
"","","","","","animation","171","1243275","0.0-171.0","1920x1080","","2783.300000000745","34.66","img/238/4/1/bw/001.png","","","interesting"
"","","","","","animation","172","1246875","0.0-172.0","1920x1080","","3598.7999999998137","0","img/117/2.5/1.5/bw/001.png","","","interesting"
"","","","","","animation","173","1250539","0.0-173.0","1920x1080","","3662.9000000003725","59.92","img/238/4.5/1/bw/001.png","","","interesting"
"","","","","","animation","174","1254243","0.0-174.0","1920x1080","","3703","66.93","img/238/4.5/1.5/bw/001.png","","","interesting"
"","","","","","animation","175","1256715","0.0-175.0","1920x1080","","2471.2000000001863","18.39","img/238/3.5/0.5/bw/001.png","","","interesting"
"","","","","","animation","176","1261363","0.0-176.0","1920x1080","","4647","3","img/238/2.5/2/bw/001.png","","","interesting"
"","","","","","animation","177","1266091","0.0-177.0","1920x1080","","4726.200000000186","61","img/238/4/1.5/bw/001.png","","","interesting"
"","","","","","animation","178","1269811","0.0-178.0","1920x1080","","3719.5","62.30","img/314/4/0.66667/bw/001.png","","","interesting"
"","","","","","animation","179","1272643","0.0-179.0","1920x1080","","2830.7999999998137","24.07","img/238/3.5/1/bw/001.png","","","interesting"
"","","","","","animation","180","1279259","0.0-180.0","1920x1080","","6615.0999999996275","82.67","img/117/4.5/0.5/bw/001.png","","","interesting"
"","","","","","animation","181","1282889","0.0-181.0","1920x1080","","3627.7999999998137","95","img/314/5.5/1/bw/001.png","","","interesting"
"","","","","","animation","182","1288506","0.0-182.0","1920x1080","","5616.399999999441","5.42","img/238/4.5/2/bw/001.png","","","interesting"
"","","","","","animation","183","1292988","0.0-183.0","1920x1080","","4480.300000000745","2.38","img/117/3.5/1.5/bw/001.png","","","interesting"
"","","","","","animation","184","1296421","0.0-184.0","1920x1080","","3431.800000000745","0.40","img/314/2.5/0.66667/bw/001.png","","","interesting"
"","","","","","animation","185","1299596","0.0-185.0","1920x1080","","3172.5","79.23","img/314/5.5/2/bw/001.png","","","interesting"
"","","","","","animation","186","1303692","0.0-186.0","1920x1080","","4094.2999999998137","86.11","img/238/5.5/0.5/bw/001.png","","","interesting"
"","","","","","animation","187","1306924","0.0-187.0","1920x1080","","3230.100000000559","64.68","img/117/4.5/2/bw/001.png","","","interesting"
"","","","","","animation","188","1309612","0.0-188.0","1920x1080","","2687.5","37.30","img/314/4/1/bw/001.png","","","interesting"
"","","","","","animation","189","1312828","0.0-189.0","1920x1080","","3214.5999999996275","27.25","img/117/4/0.66667/bw/001.png","","","interesting"
"","","","","","animation","190","1317164","0.0-190.0","1920x1080","","4334.799999999814","17.20","img/314/3.5/2/bw/001.png","","","interesting"
"","","","","","animation","191","1330257","0.0-191.0","1920x1080","","13091.900000000373","30","img/117/4.5/1/bw/001.png","","","interesting"
"","","","","","animation","192","1332532","0.0-192.0","1920x1080","","2273.7000000001863","17.72","img/117/4.5/0.66667/bw/001.png","","","interesting"
"","","","","","animation","193","1335660","0.0-193.0","1920x1080","","3126.7999999998137","70.50","img/314/5.5/1.5/bw/001.png","","","interesting"
"","","","","","animation","194","1337974","0.0-194.0","1920x1080","","2313","52.78","img/314/4.5/0.66667/bw/001.png","","","interesting"
"","","","","","animation","195","1341844","0.0-195.0","1920x1080","","3868.7999999998137","16.40","img/238/4/0.66667/bw/001.png","","","interesting"
"","","","","","animation","196","1346580","0.0-196.0","1920x1080","","4735.0999999996275","12.83","img/314/4/0.5/bw/001.png","","","interesting"
"","","","","","animation","197","1349123","0.0-197.0","1920x1080","","2541.399999999441","6.48","img/238/3.5/1.5/bw/001.png","","","interesting"
"","","","","","animation","198","1351707","0.0-198.0","1920x1080","","2582.5","29.37","img/117/4.5/1.5/bw/001.png","","","interesting"
"","","","","","animation","199","1357306","0.0-199.0","1920x1080","","5599.299999999814","40.87","img/314/4.5/2/bw/001.png","","","interesting"
"","","","","","animation","200","1360130","0.0-200.0","1920x1080","","2823.2000000001863","2.65","img/238/2.5/0.5/bw/001.png","","","interesting"
"","","","","","animation","201","1363239","0.0-201.0","1920x1080","","3107.7000000001863","19.44","img/117/4/2/bw/001.png","","","interesting"
"","","","","","animation","202","1368255","0.0-202.0","1920x1080","","5013.799999999814","30.95","img/238/3.5/2/bw/001.png","","","interesting"
"","","","","","animation","203","1371058","0.0-203.0","1920x1080","","2802.4000000003725","0","img/238/2.5/0.66667/bw/001.png","","","interesting"
"","","","","","animation","204","1374322","0.0-204.0","1920x1080","","3262.5999999996275","1.72","img/117/2.5/1/bw/001.png","","","interesting"
"","","","","","animation","205","1377146","0.0-205.0","1920x1080","","2823.0999999996275","10.58","img/314/3.5/1/bw/001.png","","","interesting"
"","","","","","animation","206","1380372","0.0-206.0","1920x1080","","3224.100000000559","74.34","img/117/5.5/1.5/bw/001.png","","","interesting"
"","","","","","animation","207","1383826","0.0-207.0","1920x1080","","3453.5","27.91","img/117/4/1/bw/001.png","","","interesting"
"","","","","","animation","208","1388906","0.0-208.0","1920x1080","","5078.5","0","img/117/2.5/0.66667/bw/001.png","","","interesting"
"","","","","","animation","209","1392472","0.0-209.0","1920x1080","","3564.399999999441","20","img/314/4.5/0.5/bw/001.png","","","interesting"
"","","","","","animation","210","1396426","0.0-210.0","1920x1080","","3953.4000000003725","50.79","img/314/5.5/0.5/bw/001.png","","","interesting"
"","","","","","animation","211","1399378","0.0-211.0","1920x1080","","2951.0999999996275","35.32","img/238/4.5/0.5/bw/001.png","","","interesting"
"","","","","","animation","212","1402426","0.0-212.0","1920x1080","","3046.600000000559","23","img/314/4/2/bw/001.png","","","interesting"
"","","","","","animation","213","1407290","0.0-213.0","1920x1080","","4862.600000000559","77.91","img/117/5.5/1/bw/001.png","","","interesting"
"","","","","","animation","214","1410410","0.0-214.0","1920x1080","","3119","4.10","img/238/2.5/1.5/bw/001.png","","","interesting"
"","","","","","animation","215","1412772","0.0-215.0","1920x1080","","2360.2999999998137","10.71","img/238/2.5/1/bw/001.png","","","interesting"
"","","","","","animation","216","1418008","0.0-216.0","1920x1080","","5236.899999999441","19.31","img/238/3.5/0.66667/bw/001.png","","","interesting"
"","","","","","animation","217","1421088","0.0-217.0","1920x1080","","3078.2999999998137","25.40","img/314/4/1.5/bw/001.png","","","interesting"
"","","","","","animation","218","1423672","0.0-218.0","1920x1080","","2582.5999999996275","39.29","img/117/5.5/0.5/bw/001.png","","","interesting"
"","","","","","animation","219","1430625","0.0-219.0","1920x1080","","6951.100000000559","76.19","img/238/5.5/2/bw/001.png","","","interesting"
"","","","","","animation","220","1433743","0.0-220.0","1920x1080","","3116.800000000745","0.00","img/314/2.5/0.5/bw/001.png","","","interesting"
"","","","","","animation","221","1440977","0.0-221.0","1920x1080","","7232.700000000186","0","img/117/2.5/0.5/bw/001.png","","","interesting"
"","","","","","animation","222","1448137","0.0-222.0","1920x1080","","7158.5999999996275","80.03","img/117/5.5/0.66667/bw/001.png","","","interesting"
"","","","","","animation","223","1450937","0.0-223.0","1920x1080","","2798.0999999996275","27.78","img/117/3.5/1/bw/001.png","","","interesting"
"","","","","","animation","224","1454161","0.0-224.0","1920x1080","","3223","1.59","img/314/2.5/1.5/bw/001.png","","","interesting"
"","","","","","animation","225","1457469","0.0-225.0","1920x1080","","3307.2999999998137","0.13","img/314/2.5/2/bw/001.png","","","interesting"
"","","","","","animation","226","1461053","0.0-226.0","1920x1080","","3582.2000000001863","0","img/314/2.5/1/bw/001.png","","","interesting"
"","","","","","animation","227","1463161","0.0-227.0","1920x1080","","2106.4000000003725","15.48","img/117/3.5/2/bw/001.png","","","interesting"
"","","","","","animation","228","1466236","0.0-228.0","1920x1080","","3074.2999999998137","26.72","img/117/4/0.5/bw/001.png","","","interesting"
"","","","","","animation","229","1468792","0.0-229.0","1920x1080","","2555","15.34","img/117/3.5/0.5/bw/001.png","","","interesting"
"","","","","","animation","230","1475369","0.0-230.0","1920x1080","","6575.9000000003725","65","img/314/5.5/0.66667/bw/001.png","","","interesting"
"","","","","","animation","231","1480455","0.0-231.0","1920x1080","","5085.5999999996275","5.16","img/117/2.5/2/bw/001.png","","","interesting"
"","","","","","animation","232","1484305","0.0-232.0","1920x1080","","3846.800000000745","64.42","img/238/5.5/1.5/bw/001.png","","","interesting"
"","","","","","animation","233","1488135","0.0-233.0","1920x1080","","3828.5999999996275","82.67","img/238/5.5/0.66667/bw/001.png","","","interesting"
"","","","","","animation","234","1501935","0.0-234.0","1920x1080","","13798.599999999627","88.23","img/238/5.5/1/bw/001.png","","","interesting"
"","","","","","animation","235","1504202","0.0-235.0","1920x1080","","2264.5","32.54","img/117/4/1.5/bw/001.png","","","interesting"
"","","","","","html-button-response","236","1524840","0.0-236.0","1920x1080","","20636.700000000186","","<div class=""intro"">You are about to view a new series of animations.<br><br></div><div class=""intro"">You will evaluate them based on a different descriptor.<br><br></div><div class=""intro"">Move the slider to indicate how <strong style=""text-transform:capitalize"">NATURAL</strong> you find each animation.<br><br></div><div class=""intro"">0 = Least Natural<br></div><div class=""intro"">1 = Most Natural<br><br></div><div class=""intro"">Remember to use the <strong><em>entire range</em></strong> of the slider to make your ratings.<br></div><div class=""intro"">Please <strong><em>take your time</em></strong> and carefully consider each rating you make.<br><br></div>","0","",""
"","","","","","call-function","237","1524841","0.0-237.0","1920x1080","","","","","","",""
"","","","","","animation","238","1545664","0.0-238.0","1920x1080","","20811.700000000186","17.99","img/238/3.5/1/bw/001.png","","","natural"
"","","","","","animation","239","1548528","0.0-239.0","1920x1080","","2862.100000000559","51.59","img/314/4.5/0.5/bw/001.png","","","natural"
"","","","","","animation","240","1553496","0.0-240.0","1920x1080","","4966.899999999441","27.78","img/238/4.5/1.5/bw/001.png","","","natural"
"","","","","","animation","241","1558777","0.0-241.0","1920x1080","","5279.5","15.74","img/117/3.5/0.66667/bw/001.png","","","natural"
"","","","","","animation","242","1562043","0.0-242.0","1920x1080","","3265.5","47","img/117/4.5/1.5/bw/001.png","","","natural"
"","","","","","animation","243","1565294","0.0-243.0","1920x1080","","3248.7999999998137","62.43","img/314/4.5/2/bw/001.png","","","natural"
"","","","","","animation","244","1568952","0.0-244.0","1920x1080","","3657.2000000001863","29.10","img/314/4/2/bw/001.png","","","natural"
"","","","","","animation","245","1572896","0.0-245.0","1920x1080","","3942.2000000001863","15.34","img/117/4/0.66667/bw/001.png","","","natural"
"","","","","","animation","246","1575893","0.0-246.0","1920x1080","","2996.300000000745","63.89","img/117/5.5/0.5/bw/001.png","","","natural"
"","","","","","animation","247","1579410","0.0-247.0","1920x1080","","3515.2999999998137","11.24","img/117/2.5/0.66667/bw/001.png","","","natural"
"","","","","","animation","248","1582076","0.0-248.0","1920x1080","","2665.399999999441","57.94","img/117/5.5/1/bw/001.png","","","natural"
"","","","","","animation","249","1586126","0.0-249.0","1920x1080","","4048.7999999998137","72.62","img/314/5.5/1/bw/001.png","","","natural"
"","","","","","animation","250","1590544","0.0-250.0","1920x1080","","4415.399999999441","39","img/238/4.5/2/bw/001.png","","","natural"
"","","","","","animation","251","1596670","0.0-251.0","1920x1080","","6132","20.37","img/117/4/0.5/bw/001.png","","","natural"
"","","","","","animation","252","1600705","0.0-252.0","1920x1080","","4033.5","18.78","img/314/4/0.5/bw/001.png","","","natural"
"","","","","","animation","253","1604137","0.0-253.0","1920x1080","","3430.100000000559","11.64","img/314/3.5/2/bw/001.png","","","natural"
"","","","","","animation","254","1607489","0.0-254.0","1920x1080","","3351.300000000745","5.69","img/238/4/0.5/bw/001.png","","","natural"
"","","","","","animation","255","1610620","0.0-255.0","1920x1080","","3129.5","41.80","img/238/5.5/0.5/bw/001.png","","","natural"
"","","","","","animation","256","1614842","0.0-256.0","1920x1080","","4220.5","14.81","img/238/3.5/0.5/bw/001.png","","","natural"
"","","","","","animation","257","1619353","0.0-257.0","1920x1080","","4510.4000000003725","63.10","img/238/5.5/1/bw/001.png","","","natural"
"","","","","","animation","258","1622737","0.0-258.0","1920x1080","","3382.5999999996275","30.42","img/314/4.5/1/bw/001.png","","","natural"
"","","","","","animation","259","1625103","0.0-259.0","1920x1080","","2365","20.63","img/314/4/0.66667/bw/001.png","","","natural"
"","","","","","animation","260","1628962","0.0-260.0","1920x1080","","3857","5","img/314/2.5/0.5/bw/001.png","","","natural"
"","","","","","animation","261","1632657","0.0-261.0","1920x1080","","3694.2999999998137","45.37","img/238/4.5/1/bw/001.png","","","natural"
"","","","","","animation","262","1637104","0.0-262.0","1920x1080","","4442.600000000559","47","img/238/4.5/0.66667/bw/001.png","","","natural"
"","","","","","animation","263","1640121","0.0-263.0","1920x1080","","3016.2999999998137","25.40","img/117/3.5/1.5/bw/001.png","","","natural"
"","","","","","animation","264","1643270","0.0-264.0","1920x1080","","3147.5999999996275","16.01","img/238/3.5/2/bw/001.png","","","natural"
"","","","","","animation","265","1645794","0.0-265.0","1920x1080","","2521.9000000003725","2.91","img/117/2.5/1.5/bw/001.png","","","natural"
"","","","","","animation","266","1649487","0.0-266.0","1920x1080","","3691.800000000745","87","img/314/5.5/2/bw/001.png","","","natural"
"","","","","","animation","267","1657417","0.0-267.0","1920x1080","","7932.200000000186","1.19","img/117/2.5/2/bw/001.png","","","natural"
"","","","","","animation","268","1666318","0.0-268.0","1920x1080","","8899.5","56.35","img/117/4.5/2/bw/001.png","","","natural"
"","","","","","animation","269","1668518","0.0-269.0","1920x1080","","2198.7999999998137","29.50","img/117/3.5/1/bw/001.png","","","natural"
"","","","","","animation","270","1671502","0.0-270.0","1920x1080","","2982.7999999998137","5.03","img/314/2.5/1.5/bw/001.png","","","natural"
"","","","","","animation","271","1674071","0.0-271.0","1920x1080","","2567.2000000001863","18.52","img/314/4.5/0.66667/bw/001.png","","","natural"
"","","","","","animation","272","1679607","0.0-272.0","1920x1080","","5534.700000000186","96","img/238/5.5/2/bw/001.png","","","natural"
"","","","","","animation","273","1682702","0.0-273.0","1920x1080","","3094.2999999998137","100","img/238/5.5/1.5/bw/001.png","","","natural"
"","","","","","animation","274","1685950","0.0-274.0","1920x1080","","3246.300000000745","90.87","img/314/5.5/0.5/bw/001.png","","","natural"
"","","","","","animation","275","1689218","0.0-275.0","1920x1080","","3265.7999999998137","25.40","img/238/3.5/0.66667/bw/001.png","","","natural"
"","","","","","animation","276","1694367","0.0-276.0","1920x1080","","5148","80","img/314/5.5/1.5/bw/001.png","","","natural"
"","","","","","animation","277","1701855","0.0-277.0","1920x1080","","7486.0999999996275","23","img/238/4.5/0.5/bw/001.png","","","natural"
"","","","","","animation","278","1704991","0.0-278.0","1920x1080","","3134.9000000003725","25.79","img/314/4.5/1.5/bw/001.png","","","natural"
"","","","","","animation","279","1707817","0.0-279.0","1920x1080","","2825.399999999441","3.84","img/238/2.5/0.5/bw/001.png","","","natural"
"","","","","","animation","280","1711639","0.0-280.0","1920x1080","","3820","73.28","img/117/5.5/2/bw/001.png","","","natural"
"","","","","","animation","281","1714034","0.0-281.0","1920x1080","","2394.2000000001863","84","img/117/5.5/1.5/bw/001.png","","","natural"
"","","","","","animation","282","1716318","0.0-282.0","1920x1080","","2283.100000000559","87.70","img/117/5.5/0.66667/bw/001.png","","","natural"
"","","","","","animation","283","1722666","0.0-283.0","1920x1080","","6347.5","15.48","img/314/3.5/1/bw/001.png","","","natural"
"","","","","","animation","284","1725685","0.0-284.0","1920x1080","","3018","7.94","img/314/3.5/0.5/bw/001.png","","","natural"
"","","","","","animation","285","1730433","0.0-285.0","1920x1080","","4746.699999999255","63.89","img/314/5.5/0.66667/bw/001.png","","","natural"
"","","","","","animation","286","1733733","0.0-286.0","1920x1080","","3298.5","30.56","img/117/4.5/0.5/bw/001.png","","","natural"
"","","","","","animation","287","1735750","0.0-287.0","1920x1080","","2016","19.44","img/238/3.5/1.5/bw/001.png","","","natural"
"","","","","","animation","288","1738006","0.0-288.0","1920x1080","","2252.2999999998137","17.59","img/238/4/1/bw/001.png","","","natural"
"","","","","","animation","289","1742303","0.0-289.0","1920x1080","","4295.9000000003725","27.65","img/314/4/1.5/bw/001.png","","","natural"
"","","","","","animation","290","1745291","0.0-290.0","1920x1080","","2985.600000000559","16.67","img/117/4/2/bw/001.png","","","natural"
"","","","","","animation","291","1747933","0.0-291.0","1920x1080","","2641.2000000001863","9.13","img/314/3.5/1.5/bw/001.png","","","natural"
"","","","","","animation","292","1749990","0.0-292.0","1920x1080","","2055.600000000559","4.10","img/238/2.5/0.66667/bw/001.png","","","natural"
"","","","","","animation","293","1752267","0.0-293.0","1920x1080","","2275.399999999441","17.86","img/117/4/1/bw/001.png","","","natural"
"","","","","","animation","294","1756038","0.0-294.0","1920x1080","","3769.5999999996275","0","img/238/2.5/1/bw/001.png","","","natural"
"","","","","","animation","295","1760190","0.0-295.0","1920x1080","","4150.699999999255","0.79","img/314/2.5/0.66667/bw/001.png","","","natural"
"","","","","","animation","296","1762749","0.0-296.0","1920x1080","","2557.4000000003725","3.70","img/238/2.5/2/bw/001.png","","","natural"
"","","","","","animation","297","1766805","0.0-297.0","1920x1080","","4055.2000000001863","68.65","img/238/5.5/0.66667/bw/001.png","","","natural"
"","","","","","animation","298","1771190","0.0-298.0","1920x1080","","4383.0999999996275","23.15","img/117/3.5/2/bw/001.png","","","natural"
"","","","","","animation","299","1774083","0.0-299.0","1920x1080","","2889","3.04","img/117/2.5/0.5/bw/001.png","","","natural"
"","","","","","animation","300","1776787","0.0-300.0","1920x1080","","2705.2999999998137","26.46","img/117/4.5/0.66667/bw/001.png","","","natural"
"","","","","","animation","301","1785603","0.0-301.0","1920x1080","","8814.599999999627","14.68","img/314/4/1/bw/001.png","","","natural"
"","","","","","animation","302","1788464","0.0-302.0","1920x1080","","2857.100000000559","11.77","img/117/3.5/0.5/bw/001.png","","","natural"
"","","","","","animation","303","1792315","0.0-303.0","1920x1080","","3849.7000000001863","30.56","img/117/4.5/1/bw/001.png","","","natural"
"","","","","","animation","304","1795030","0.0-304.0","1920x1080","","2714.2000000001863","1.59","img/117/2.5/1/bw/001.png","","","natural"
"","","","","","animation","305","1801464","0.0-305.0","1920x1080","","6432.299999999814","11.90","img/314/3.5/0.66667/bw/001.png","","","natural"
"","","","","","animation","306","1807203","0.0-306.0","1920x1080","","5737.9000000003725","29.63","img/238/4/1.5/bw/001.png","","","natural"
"","","","","","animation","307","1812485","0.0-307.0","1920x1080","","5280.100000000559","0","img/314/2.5/2/bw/001.png","","","natural"
"","","","","","animation","308","1816264","0.0-308.0","1920x1080","","3774.899999999441","22.22","img/238/4/0.66667/bw/001.png","","","natural"
"","","","","","animation","309","1819064","0.0-309.0","1920x1080","","2798.0999999996275","0","img/238/2.5/1.5/bw/001.png","","","natural"
"","","","","","animation","310","1821883","0.0-310.0","1920x1080","","2817.7999999998137","0.13","img/314/2.5/1/bw/001.png","","","natural"
"","","","","","animation","311","1825515","0.0-311.0","1920x1080","","3630.5999999996275","24","img/238/4/2/bw/001.png","","","natural"
"","","","","","animation","312","1828220","0.0-312.0","1920x1080","","2703.7000000001863","19.84","img/117/4/1.5/bw/001.png","","","natural"
"","","","","","html-button-response","313","1848031","0.0-313.0","1920x1080","","19797.799999999814","","<div class=""intro"">You are about to view a new series of animations.<br><br></div><div class=""intro"">You will evaluate them based on a different descriptor.<br><br></div><div class=""intro"">Move the slider to indicate how <strong style=""text-transform:capitalize"">APPEALING</strong> you find each animation.<br><br></div><div class=""intro"">0 = Least Appealing<br></div><div class=""intro"">1 = Most Appealing<br><br></div><div class=""intro"">Remember to use the <strong><em>entire range</em></strong> of the slider to make your ratings.<br></div><div class=""intro"">Please <strong><em>take your time</em></strong> and carefully consider each rating you make.<br><br></div>","0","",""
"","","","","","call-function","314","1848033","0.0-314.0","1920x1080","","","","","","",""
"","","","","","animation","315","1853159","0.0-315.0","1920x1080","","5125.5","88","img/117/5.5/1/bw/001.png","","","appealing"
"","","","","","animation","316","1856814","0.0-316.0","1920x1080","","3653.800000000745","90.34","img/117/5.5/2/bw/001.png","","","appealing"
"","","","","","animation","317","1859175","0.0-317.0","1920x1080","","2359.7000000001863","92.99","img/117/5.5/1.5/bw/001.png","","","appealing"
"","","","","","animation","318","1870855","0.0-318.0","1920x1080","","11678.799999999814","21.03","img/238/3.5/1.5/bw/001.png","","","appealing"
"","","","","","animation","319","1873143","0.0-319.0","1920x1080","","2286.0999999996275","5.03","img/117/2.5/1/bw/001.png","","","appealing"
"","","","","","animation","320","1877459","0.0-320.0","1920x1080","","4315","8.47","img/314/4/0.66667/bw/001.png","","","appealing"
"","","","","","animation","321","1879511","0.0-321.0","1920x1080","","2050.5","9.26","img/238/4/0.66667/bw/001.png","","","appealing"
"","","","","","animation","322","1882863","0.0-322.0","1920x1080","","3350.4000000003725","78.84","img/238/5.5/2/bw/001.png","","","appealing"
"","","","","","animation","323","1889303","0.0-323.0","1920x1080","","6439","0.40","img/314/2.5/0.66667/bw/001.png","","","appealing"
"","","","","","animation","324","1894195","0.0-324.0","1920x1080","","4889.5","97","img/238/5.5/1.5/bw/001.png","","","appealing"
"","","","","","animation","325","1897311","0.0-325.0","1920x1080","","3114.2000000001863","21.43","img/238/4/0.5/bw/001.png","","","appealing"
"","","","","","animation","326","1900552","0.0-326.0","1920x1080","","3239.600000000559","0","img/117/2.5/2/bw/001.png","","","appealing"
"","","","","","animation","327","1903528","0.0-327.0","1920x1080","","2974.100000000559","31.75","img/238/4.5/0.5/bw/001.png","","","appealing"
"","","","","","animation","328","1905864","0.0-328.0","1920x1080","","2334","41.67","img/238/4.5/1.5/bw/001.png","","","appealing"
"","","","","","animation","329","1908109","0.0-329.0","1920x1080","","2244.399999999441","5.29","img/117/2.5/0.5/bw/001.png","","","appealing"
"","","","","","animation","330","1912788","0.0-330.0","1920x1080","","4677.299999999814","79.23","img/314/5.5/0.66667/bw/001.png","","","appealing"
"","","","","","animation","331","1915449","0.0-331.0","1920x1080","","2659.2000000001863","1.19","img/314/2.5/0.5/bw/001.png","","","appealing"
"","","","","","animation","332","1922495","0.0-332.0","1920x1080","","7045.299999999814","30.82","img/314/4.5/1.5/bw/001.png","","","appealing"
"","","","","","animation","333","1925056","0.0-333.0","1920x1080","","2558.9000000003725","31.61","img/314/4.5/0.5/bw/001.png","","","appealing"
"","","","","","animation","334","1931633","0.0-334.0","1920x1080","","6576.299999999814","28.84","img/117/4.5/0.5/bw/001.png","","","appealing"
"","","","","","animation","335","1939898","0.0-335.0","1920x1080","","8263.399999999441","17.46","img/117/4/1.5/bw/001.png","","","appealing"
"","","","","","animation","336","1942833","0.0-336.0","1920x1080","","2934.0999999996275","9.13","img/117/3.5/0.66667/bw/001.png","","","appealing"
"","","","","","animation","337","1949097","0.0-337.0","1920x1080","","6262","0.93","img/117/2.5/1.5/bw/001.png","","","appealing"
"","","","","","animation","338","1951515","0.0-338.0","1920x1080","","2416","8.99","img/238/3.5/1/bw/001.png","","","appealing"
"","","","","","animation","339","1954315","0.0-339.0","1920x1080","","2798.5","52.91","img/117/5.5/0.5/bw/001.png","","","appealing"
"","","","","","animation","340","1959014","0.0-340.0","1920x1080","","4697.799999999814","19.18","img/117/3.5/0.5/bw/001.png","","","appealing"
"","","","","","animation","341","1963542","0.0-341.0","1920x1080","","4526.5","25.79","img/117/4/2/bw/001.png","","","appealing"
"","","","","","animation","342","1965914","0.0-342.0","1920x1080","","2370.800000000745","5.69","img/238/2.5/1.5/bw/001.png","","","appealing"
"","","","","","animation","343","1968431","0.0-343.0","1920x1080","","2515.7999999988824","11.51","img/314/3.5/1/bw/001.png","","","appealing"
"","","","","","animation","344","1971545","0.0-344.0","1920x1080","","3112.9000000003725","4.10","img/314/3.5/0.5/bw/001.png","","","appealing"
"","","","","","animation","345","1974159","0.0-345.0","1920x1080","","2612.0999999996275","3.70","img/117/3.5/2/bw/001.png","","","appealing"
"","","","","","animation","346","1977192","0.0-346.0","1920x1080","","3031.699999999255","52.25","img/238/5.5/0.5/bw/001.png","","","appealing"
"","","","","","animation","347","1982847","0.0-347.0","1920x1080","","5653.200000001118","28.17","img/117/4.5/1.5/bw/001.png","","","appealing"
"","","","","","animation","348","1988162","0.0-348.0","1920x1080","","5313","20.37","img/117/4/1/bw/001.png","","","appealing"
"","","","","","animation","349","1991908","0.0-349.0","1920x1080","","3745.4000000003725","16.01","img/314/3.5/2/bw/001.png","","","appealing"
"","","","","","animation","350","1994578","0.0-350.0","1920x1080","","2668.4000000003725","30.16","img/238/4/1/bw/001.png","","","appealing"
"","","","","","animation","351","1998185","0.0-351.0","1920x1080","","3605.0999999996275","37.04","img/117/4.5/0.66667/bw/001.png","","","appealing"
"","","","","","animation","352","2000825","0.0-352.0","1920x1080","","2639","10.71","img/238/3.5/2/bw/001.png","","","appealing"
"","","","","","animation","353","2006519","0.0-353.0","1920x1080","","5691.89999999851","62.30","img/314/5.5/2/bw/001.png","","","appealing"
"","","","","","animation","354","2011327","0.0-354.0","1920x1080","","4806.0999999996275","22.49","img/314/4/2/bw/001.png","","","appealing"
"","","","","","animation","355","2014795","0.0-355.0","1920x1080","","3466.5","0","img/117/2.5/0.66667/bw/001.png","","","appealing"
"","","","","","animation","356","2019459","0.0-356.0","1920x1080","","4661.9000000003725","21.03","img/314/4/1/bw/001.png","","","appealing"
"","","","","","animation","357","2021759","0.0-357.0","1920x1080","","2298.2000000011176","9.52","img/314/4/0.5/bw/001.png","","","appealing"
"","","","","","animation","358","2026293","0.0-358.0","1920x1080","","4532.800000000745","43.78","img/238/5.5/0.66667/bw/001.png","","","appealing"
"","","","","","animation","359","2029331","0.0-359.0","1920x1080","","3029.800000000745","50.26","img/117/5.5/0.66667/bw/001.png","","","appealing"
"","","","","","animation","360","2032492","0.0-360.0","1920x1080","","3159.2999999988824","20.37","img/314/4.5/1/bw/001.png","","","appealing"
"","","","","","animation","361","2035936","0.0-361.0","1920x1080","","3442.5999999996275","2.38","img/314/2.5/2/bw/001.png","","","appealing"
"","","","","","animation","362","2039419","0.0-362.0","1920x1080","","3480.2999999988824","17.86","img/314/4.5/2/bw/001.png","","","appealing"
"","","","","","animation","363","2042126","0.0-363.0","1920x1080","","2706.4000000003725","27.78","img/238/4.5/0.66667/bw/001.png","","","appealing"
"","","","","","animation","364","2046995","0.0-364.0","1920x1080","","4866.60000000149","3.17","img/314/4/1.5/bw/001.png","","","appealing"
"","","","","","animation","365","2050291","0.0-365.0","1920x1080","","3294.9000000003725","69.44","img/238/5.5/1/bw/001.png","","","appealing"
"","","","","","animation","366","2054392","0.0-366.0","1920x1080","","4099","2.38","img/238/2.5/0.66667/bw/001.png","","","appealing"
"","","","","","animation","367","2058294","0.0-367.0","1920x1080","","3900.5","15.21","img/117/4.5/1/bw/001.png","","","appealing"
"","","","","","animation","368","2061158","0.0-368.0","1920x1080","","2862.10000000149","75.26","img/314/5.5/1.5/bw/001.png","","","appealing"
"","","","","","animation","369","2066542","0.0-369.0","1920x1080","","5382.5","99","img/314/5.5/0.5/bw/001.png","","","appealing"
"","","","","","animation","370","2074678","0.0-370.0","1920x1080","","8135.10000000149","17.46","img/314/4.5/0.66667/bw/001.png","","","appealing"
"","","","","","animation","371","2084430","0.0-371.0","1920x1080","","9761.800000000745","0.93","img/314/2.5/1.5/bw/001.png","","","appealing"
"","","","","","animation","372","2087124","0.0-372.0","1920x1080","","2690.60000000149","14.02","img/238/4/2/bw/001.png","","","appealing"
"","","","","","animation","373","2089480","0.0-373.0","1920x1080","","2354","13.62","img/238/3.5/0.66667/bw/001.png","","","appealing"
"","","","","","animation","374","2092615","0.0-374.0","1920x1080","","3133.9000000003725","0.79","img/238/2.5/0.5/bw/001.png","","","appealing"
"","","","","","animation","375","2096563","0.0-375.0","1920x1080","","3946.699999999255","0.13","img/238/3.5/0.5/bw/001.png","","","appealing"
"","","","","","animation","376","2099852","0.0-376.0","1920x1080","","3287","-1.06","img/238/2.5/2/bw/001.png","","","appealing"
"","","","","","animation","377","2105917","0.0-377.0","1920x1080","","6063.699999999255","0.93","img/238/2.5/1/bw/001.png","","","appealing"
"","","","","","animation","378","2109949","0.0-378.0","1920x1080","","4028.800000000745","6.22","img/117/3.5/1/bw/001.png","","","appealing"
"","","","","","animation","379","2112667","0.0-379.0","1920x1080","","2716","30.95","img/238/4.5/2/bw/001.png","","","appealing"
"","","","","","animation","380","2116412","0.0-380.0","1920x1080","","3744","51.46","img/117/4.5/2/bw/001.png","","","appealing"
"","","","","","animation","381","2119037","0.0-381.0","1920x1080","","2623.300000000745","24.87","img/117/4/0.5/bw/001.png","","","appealing"
"","","","","","animation","382","2121289","0.0-382.0","1920x1080","","2249.699999999255","11.90","img/314/3.5/0.66667/bw/001.png","","","appealing"
"","","","","","animation","383","2123899","0.0-383.0","1920x1080","","2608.800000000745","0","img/314/2.5/1/bw/001.png","","","appealing"
"","","","","","animation","384","2129499","0.0-384.0","1920x1080","","5598.300000000745","10","img/238/4.5/1/bw/001.png","","","appealing"
"","","","","","animation","385","2131774","0.0-385.0","1920x1080","","2274.2000000011176","9.39","img/238/4/1.5/bw/001.png","","","appealing"
"","","","","","animation","386","2134396","0.0-386.0","1920x1080","","2620.5","3.04","img/117/3.5/1.5/bw/001.png","","","appealing"
"","","","","","animation","387","2140887","0.0-387.0","1920x1080","","6477.799999998882","6","img/314/3.5/1.5/bw/001.png","","","appealing"
"","","","","","animation","388","2145742","0.0-388.0","1920x1080","","4852.300000000745","67.59","img/314/5.5/1/bw/001.png","","","appealing"
"","","","","","animation","389","2151441","0.0-389.0","1920x1080","","5697.5","20.50","img/117/4/0.66667/bw/001.png","","","appealing"
"","","","","","html-button-response","390","2178041","0.0-390.0","1920x1080","","26597.700000001118","","<strong>Study Debriefing</strong><br><p class=""debrief""><strong>Background:</strong> The patterns you rated are called <em>fractals</em>. The term fractal describes a class of irregular curves or shapes for which any suitably chosen part is similar in shape to a given larger or smaller part when magnified or reduced to the same size. Fractal properties are found throughout the natural and manmade world. The series of animations you saw today displayed animated fractal patterns of a varying complexity.</p><p class=""debrief""><strong>Purpose of this study:</strong> We hope to better understand how the perception of static fractals differs from the perception of animated fractals, and how the speed of the animated patterns influences people&apos;s perception of them. Fractals allow us to study the perception of aesthetic properties (e.g. the perceived level of beauty in an image) without using recognizable content, which makes them an excellent tool for studying abstract aesthetic judgement.</p><p class=""debrief""><strong>Your part:</strong> Your participation has helped us to further understand how humans perceive these patterns across different levels of speed and complexity. This research with allow us to better understand how the visual system and brain process our ever-changing visual environments.<p class=""debrief""><strong>Feedback and Further information:</strong> If you have additional questions about this study, please feel free to ask the researcher, Nathan Gonzales-Hess at nhess @ uoregon.edu. If you have any questions concerning your rights as a research participant, please contact Research Compliance Services, 5237 University of Oregon, Eugene, OR 97403, 541-346-2510, or email researchCompliance @ uoregon.edu. You can also email the Human Subjects Coordinator for psychology and linguistics research at hscoord @ uoregon.edu. ","0","",""
"","","","","","html-button-response","391","2182149","0.0-391.0","1920x1080","","4104.10000000149","","Thank you for participating in this study. <br>Please click below to finish the experiment and submit your responses.<br><br>","0","",""
"true","","","","","fullscreen","392","2183165","0.0-392.0","1920x1080","13:1 28/10/2022","","","","","",""
