"success","timeout","failed_images","failed_audio","failed_video","trial_type","trial_index","time_elapsed","internal_node_id","resolution","timeStamp","rt","response","stimulus","button_pressed","value","descriptor"
"true","false","[]","[]","[]","preload","0","5813","0.0-0.0","1920x1080","","","","","","",""
"true","false","[]","[]","[]","preload","1","11822","0.0-1.0","1920x1080","","","","","","",""
"true","false","[]","[]","[]","preload","2","17703","0.0-2.0","1920x1080","","","","","","",""
"true","","","","","fullscreen","3","997027","0.0-3.0","1920x1080","13:19 6/10/2022","","","","","",""
"","","","","","survey-html-form","4","1006349","0.0-4.0","1920x1080","","9318.5","{""age"":""20"",""gender"":""Female""}","","","",""
"","","","","","html-button-response","5","1089366","0.0-5.0","1920x1080","","83015.19999998808","","<div class=""complex"">You are going to see a series of animations.<br><br></div><div class=""complex"">Move the slider to indicate how <strong style=""text-transform:capitalize"">COMPLEX</strong> you find each animation.<br><br></div><div class=""complex"">0 = Least Complex<br></div><div class=""complex"">1 = Most Complex<br><br></div><div class=""complex"">Remember to use the <strong><em>entire range</em></strong> of the slider to make your ratings.<br></div><div class=""complex"">Please <strong><em>take your time</em></strong> and carefully consider each rating you make.<br><br></div><div class=""complex"">The study has five sections and will take about 45 minutes to complete.<br><br></div>","0","",""
"","","","","","call-function","6","1089366","0.0-6.0","1920x1080","","","","","","",""
"","","","","","animation","7","1103069","0.0-7.0","1920x1080","","13701.799999982119","22.09","img/314/2.5/1/bw/001.png","","","complex"
"","","","","","animation","8","1113773","0.0-8.0","1920x1080","","10703","32.14","img/314/4/1.5/bw/001.png","","","complex"
"","","","","","animation","9","1119509","0.0-9.0","1920x1080","","5735.0999999940395","3.84","img/117/5.5/1.5/bw/001.png","","","complex"
"","","","","","animation","10","1126749","0.0-10.0","1920x1080","","7239.5","43.65","img/314/4.5/0.5/bw/001.png","","","complex"
"","","","","","animation","11","1134269","0.0-11.0","1920x1080","","7518.699999988079","61.77","img/314/3.5/1/bw/001.png","","","complex"
"","","","","","animation","12","1142109","0.0-12.0","1920x1080","","7839.5999999940395","3.97","img/117/5.5/0.66667/bw/001.png","","","complex"
"","","","","","animation","13","1154605","0.0-13.0","1920x1080","","12494.699999988079","75.93","img/238/3.5/2/bw/001.png","","","complex"
"","","","","","animation","14","1168453","0.0-14.0","1920x1080","","13847","81","img/117/4/1/bw/001.png","","","complex"
"","","","","","animation","15","1176661","0.0-15.0","1920x1080","","8207.59999999404","90.48","img/117/2.5/2/bw/001.png","","","complex"
"","","","","","animation","16","1182909","0.0-16.0","1920x1080","","6247.199999988079","0.13","img/238/5.5/0.5/bw/001.png","","","complex"
"","","","","","animation","17","1188862","0.0-17.0","1920x1080","","5951.0999999940395","100","img/117/3.5/0.5/bw/001.png","","","complex"
"","","","","","animation","18","1193541","0.0-18.0","1920x1080","","4678.899999976158","100","img/314/2.5/1.5/bw/001.png","","","complex"
"","","","","","animation","19","1197909","0.0-19.0","1920x1080","","4367.5999999940395","51.72","img/238/4/0.5/bw/001.png","","","complex"
"","","","","","animation","20","1204884","0.0-20.0","1920x1080","","6974.699999988079","91.93","img/117/2.5/1.5/bw/001.png","","","complex"
"","","","","","animation","21","1208565","0.0-21.0","1920x1080","","3679.899999976158","20.90","img/314/5.5/0.66667/bw/001.png","","","complex"
"","","","","","animation","22","1219172","0.0-22.0","1920x1080","","10606.799999982119","31.35","img/117/4.5/1/bw/001.png","","","complex"
"","","","","","animation","23","1223989","0.0-23.0","1920x1080","","4815.5","58.99","img/314/3.5/0.66667/bw/001.png","","","complex"
"","","","","","animation","24","1228733","0.0-24.0","1920x1080","","4743.0999999940395","10.19","img/314/5.5/2/bw/001.png","","","complex"
"","","","","","animation","25","1237284","0.0-25.0","1920x1080","","8550.399999976158","90.34","img/314/2.5/2/bw/001.png","","","complex"
"","","","","","animation","26","1240573","0.0-26.0","1920x1080","","3287.5","97","img/117/2.5/1/bw/001.png","","","complex"
"","","","","","animation","27","1248300","0.0-27.0","1920x1080","","7727","41.93","img/314/4.5/0.66667/bw/001.png","","","complex"
"","","","","","animation","28","1251598","0.0-28.0","1920x1080","","3296.5999999940395","58.33","img/238/3.5/0.66667/bw/001.png","","","complex"
"","","","","","animation","29","1256445","0.0-29.0","1920x1080","","4846.5","62.83","img/314/3.5/0.5/bw/001.png","","","complex"
"","","","","","animation","30","1267554","0.0-30.0","1920x1080","","11110.799999982119","66.93","img/117/3.5/1/bw/001.png","","","complex"
"","","","","","animation","31","1275730","0.0-31.0","1920x1080","","8175.199999988079","50.40","img/238/4/2/bw/001.png","","","complex"
"","","","","","animation","32","1281130","0.0-32.0","1920x1080","","5398.699999988079","39","img/238/4.5/1/bw/001.png","","","complex"
"","","","","","animation","33","1285866","0.0-33.0","1920x1080","","4735.5","71.43","img/314/4/0.66667/bw/001.png","","","complex"
"","","","","","animation","34","1295922","0.0-34.0","1920x1080","","10055.59999999404","100","img/314/2.5/0.5/bw/001.png","","","complex"
"","","","","","animation","35","1302930","0.0-35.0","1920x1080","","7006.799999982119","36","img/314/4/0.5/bw/001.png","","","complex"
"","","","","","animation","36","1307754","0.0-36.0","1920x1080","","4823.300000011921","44.84","img/117/3.5/2/bw/001.png","","","complex"
"","","","","","animation","37","1313074","0.0-37.0","1920x1080","","5319.199999988079","28.57","img/238/4.5/1.5/bw/001.png","","","complex"
"","","","","","animation","38","1320370","0.0-38.0","1920x1080","","7295.0999999940395","94","img/238/2.5/0.66667/bw/001.png","","","complex"
"","","","","","animation","39","1329021","0.0-39.0","1920x1080","","8647","29.10","img/117/4/2/bw/001.png","","","complex"
"","","","","","animation","40","1332869","0.0-40.0","1920x1080","","3847","31.22","img/117/4.5/0.5/bw/001.png","","","complex"
"","","","","","animation","41","1338477","0.0-41.0","1920x1080","","5607.5","19.84","img/238/4/1.5/bw/001.png","","","complex"
"","","","","","animation","42","1346549","0.0-42.0","1920x1080","","8070.5","11.90","img/117/4.5/2/bw/001.png","","","complex"
"","","","","","animation","43","1351117","0.0-43.0","1920x1080","","4566.699999988079","99","img/117/2.5/0.5/bw/001.png","","","complex"
"","","","","","animation","44","1356366","0.0-44.0","1920x1080","","5248.5","0.13","img/314/5.5/0.5/bw/001.png","","","complex"
"","","","","","animation","45","1363125","0.0-45.0","1920x1080","","6758.199999988079","21.56","img/117/4.5/0.66667/bw/001.png","","","complex"
"","","","","","animation","46","1375149","0.0-46.0","1920x1080","","12023","8","img/117/4.5/1.5/bw/001.png","","","complex"
"","","","","","animation","47","1380461","0.0-47.0","1920x1080","","5311","15.87","img/238/4/1/bw/001.png","","","complex"
"","","","","","animation","48","1387475","0.0-48.0","1920x1080","","7014.899999976158","1","img/238/5.5/1/bw/001.png","","","complex"
"","","","","","animation","49","1394397","0.0-49.0","1920x1080","","6920.600000023842","17","img/314/4/1/bw/001.png","","","complex"
"","","","","","animation","50","1398491","0.0-50.0","1920x1080","","4093.2999999821186","86.64","img/117/2.5/0.66667/bw/001.png","","","complex"
"","","","","","animation","51","1404347","0.0-51.0","1920x1080","","5855.0999999940395","20.50","img/314/4.5/1/bw/001.png","","","complex"
"","","","","","animation","52","1412348","0.0-52.0","1920x1080","","7999.5999999940395","11","img/238/5.5/2/bw/001.png","","","complex"
"","","","","","animation","53","1417196","0.0-53.0","1920x1080","","4847.4000000059605","93.39","img/238/2.5/1/bw/001.png","","","complex"
"","","","","","animation","54","1422307","0.0-54.0","1920x1080","","5110.200000017881","5.82","img/238/5.5/0.66667/bw/001.png","","","complex"
"","","","","","animation","55","1434363","0.0-55.0","1920x1080","","12054.899999976158","100","img/238/3.5/1/bw/001.png","","","complex"
"","","","","","animation","56","1442139","0.0-56.0","1920x1080","","7775.299999982119","87.04","img/238/2.5/0.5/bw/001.png","","","complex"
"","","","","","animation","57","1449735","0.0-57.0","1920x1080","","7599.0999999940395","78","img/117/4/0.5/bw/001.png","","","complex"
"","","","","","animation","58","1453983","0.0-58.0","1920x1080","","4246.0999999940395","75.00","img/117/4/0.66667/bw/001.png","","","complex"
"","","","","","animation","59","1461193","0.0-59.0","1920x1080","","7208.9000000059605","68.52","img/117/3.5/0.66667/bw/001.png","","","complex"
"","","","","","animation","60","1468640","0.0-60.0","1920x1080","","7445.9000000059605","55.29","img/238/4.5/0.5/bw/001.png","","","complex"
"","","","","","animation","61","1473951","0.0-61.0","1920x1080","","5310.9000000059605","88.10","img/238/2.5/1.5/bw/001.png","","","complex"
"","","","","","animation","62","1478903","0.0-62.0","1920x1080","","4951","71.83","img/314/3.5/1.5/bw/001.png","","","complex"
"","","","","","animation","63","1488527","0.0-63.0","1920x1080","","9622.799999982119","67","img/238/3.5/0.5/bw/001.png","","","complex"
"","","","","","animation","64","1492177","0.0-64.0","1920x1080","","3648.7000000178814","62.57","img/238/3.5/1.5/bw/001.png","","","complex"
"","","","","","animation","65","1503599","0.0-65.0","1920x1080","","11421","10","img/314/5.5/1.5/bw/001.png","","","complex"
"","","","","","animation","66","1508972","0.0-66.0","1920x1080","","5366.800000011921","3.84","img/117/5.5/1/bw/001.png","","","complex"
"","","","","","animation","67","1534214","0.0-67.0","1920x1080","","25241.59999999404","25","img/314/4/2/bw/001.png","","","complex"
"","","","","","animation","68","1540492","0.0-68.0","1920x1080","","6276.799999982119","21.43","img/314/4.5/1.5/bw/001.png","","","complex"
"","","","","","animation","69","1547436","0.0-69.0","1920x1080","","6942.5","35.32","img/314/3.5/2/bw/001.png","","","complex"
"","","","","","animation","70","1558798","0.0-70.0","1920x1080","","11361.09999999404","0","img/238/5.5/1.5/bw/001.png","","","complex"
"","","","","","animation","71","1562188","0.0-71.0","1920x1080","","3388.2000000178814","35.05","img/238/4.5/0.66667/bw/001.png","","","complex"
"","","","","","animation","72","1569434","0.0-72.0","1920x1080","","7247.300000011921","35","img/238/4/0.66667/bw/001.png","","","complex"
"","","","","","animation","73","1573106","0.0-73.0","1920x1080","","3671.199999988079","23.94","img/314/5.5/1/bw/001.png","","","complex"
"","","","","","animation","74","1577866","0.0-74.0","1920x1080","","4758.5999999940395","43.12","img/117/4/1.5/bw/001.png","","","complex"
"","","","","","animation","75","1580674","0.0-75.0","1920x1080","","2807.199999988079","49.60","img/238/4.5/2/bw/001.png","","","complex"
"","","","","","animation","76","1587434","0.0-76.0","1920x1080","","6759","82.94","img/238/2.5/2/bw/001.png","","","complex"
"","","","","","animation","77","1592850","0.0-77.0","1920x1080","","5414.799999982119","0.13","img/117/5.5/2/bw/001.png","","","complex"
"","","","","","animation","78","1596770","0.0-78.0","1920x1080","","3919.300000011921","4.23","img/117/5.5/0.5/bw/001.png","","","complex"
"","","","","","animation","79","1603154","0.0-79.0","1920x1080","","6379.9000000059605","8.86","img/314/4.5/2/bw/001.png","","","complex"
"","","","","","animation","80","1606890","0.0-80.0","1920x1080","","3735.199999988079","92.46","img/314/2.5/0.66667/bw/001.png","","","complex"
"","","","","","animation","81","1613370","0.0-81.0","1920x1080","","6478.800000011921","82.41","img/117/3.5/1.5/bw/001.png","","","complex"
"","","","","","html-button-response","82","1634559","0.0-82.0","1920x1080","","21182.70000001788","","<div class=""intro"">You are about to view a new series of animations.<br><br></div><div class=""intro"">You will evaluate them based on a different descriptor.<br><br></div><div class=""intro"">Move the slider to indicate how <strong style=""text-transform:capitalize"">INTERESTING</strong> you find each animation.<br><br></div><div class=""intro"">0 = Least Interesting<br></div><div class=""intro"">1 = Most Interesting<br><br></div><div class=""intro"">Remember to use the <strong><em>entire range</em></strong> of the slider to make your ratings.<br></div><div class=""intro"">Please <strong><em>take your time</em></strong> and carefully consider each rating you make.<br><br></div>","0","",""
"","","","","","call-function","83","1634560","0.0-83.0","1920x1080","","","","","","",""
"","","","","","animation","84","1659255","0.0-84.0","1920x1080","","24693.79999998212","75.93","img/314/4.5/1/bw/001.png","","","interesting"
"","","","","","animation","85","1669854","0.0-85.0","1920x1080","","10598.399999976158","68.92","img/117/3.5/1/bw/001.png","","","interesting"
"","","","","","animation","86","1679865","0.0-86.0","1920x1080","","10009.300000011921","5.69","img/238/5.5/1.5/bw/001.png","","","interesting"
"","","","","","animation","87","1684969","0.0-87.0","1920x1080","","5108.699999988079","81.08","img/117/4.5/0.66667/bw/001.png","","","interesting"
"","","","","","animation","88","1691428","0.0-88.0","1920x1080","","6457.699999988079","83.33","img/238/2.5/1/bw/001.png","","","interesting"
"","","","","","animation","89","1696889","0.0-89.0","1920x1080","","5460.5999999940395","84.52","img/117/2.5/1/bw/001.png","","","interesting"
"","","","","","animation","90","1707761","0.0-90.0","1920x1080","","10869.90000000596","0.00","img/314/5.5/1.5/bw/001.png","","","interesting"
"","","","","","animation","91","1716881","0.0-91.0","1920x1080","","9119.300000011921","69.97","img/117/2.5/0.5/bw/001.png","","","interesting"
"","","","","","animation","92","1724129","0.0-92.0","1920x1080","","7246.9000000059605","100","img/117/3.5/0.66667/bw/001.png","","","interesting"
"","","","","","animation","93","1729626","0.0-93.0","1920x1080","","5496.5","87.17","img/238/4.5/1.5/bw/001.png","","","interesting"
"","","","","","animation","94","1735465","0.0-94.0","1920x1080","","5837.699999988079","84.92","img/117/4.5/2/bw/001.png","","","interesting"
"","","","","","animation","95","1744356","0.0-95.0","1920x1080","","8887.199999988079","91.14","img/117/3.5/2/bw/001.png","","","interesting"
"","","","","","animation","96","1784864","0.0-96.0","1920x1080","","40505.40000000596","84.92","img/238/4.5/2/bw/001.png","","","interesting"
"","","","","","animation","97","1788364","0.0-97.0","1920x1080","","3499","78.04","img/117/2.5/1.5/bw/001.png","","","interesting"
"","","","","","animation","98","1792436","0.0-98.0","1920x1080","","4071.4000000059605","98","img/238/4.5/0.5/bw/001.png","","","interesting"
"","","","","","animation","99","1795852","0.0-99.0","1920x1080","","3414.800000011921","90.87","img/238/4/0.5/bw/001.png","","","interesting"
"","","","","","animation","100","1800280","0.0-100.0","1920x1080","","4426.100000023842","80.42","img/314/4.5/2/bw/001.png","","","interesting"
"","","","","","animation","101","1802997","0.0-101.0","1920x1080","","2716.0999999940395","77.12","img/314/2.5/0.66667/bw/001.png","","","interesting"
"","","","","","animation","102","1809402","0.0-102.0","1920x1080","","6406.699999988079","46.03","img/238/5.5/0.66667/bw/001.png","","","interesting"
"","","","","","animation","103","1812094","0.0-103.0","1920x1080","","2690.4000000059605","75.26","img/314/2.5/1.5/bw/001.png","","","interesting"
"","","","","","animation","104","1824180","0.0-104.0","1920x1080","","12085.40000000596","78.70","img/314/4/1/bw/001.png","","","interesting"
"","","","","","animation","105","1832730","0.0-105.0","1920x1080","","8548.699999988079","35","img/117/5.5/2/bw/001.png","","","interesting"
"","","","","","animation","106","1848330","0.0-106.0","1920x1080","","15599","86.11","img/238/4/2/bw/001.png","","","interesting"
"","","","","","animation","107","1854562","0.0-107.0","1920x1080","","6230.699999988079","82.94","img/314/3.5/0.66667/bw/001.png","","","interesting"
"","","","","","animation","108","1865077","0.0-108.0","1920x1080","","10515.5","83.99","img/117/2.5/0.66667/bw/001.png","","","interesting"
"","","","","","animation","109","1868810","0.0-109.0","1920x1080","","3730.9000000059605","73.68","img/238/2.5/1.5/bw/001.png","","","interesting"
"","","","","","animation","110","1878081","0.0-110.0","1920x1080","","9270.59999999404","89","img/314/4.5/0.5/bw/001.png","","","interesting"
"","","","","","animation","111","1885129","0.0-111.0","1920x1080","","7046.799999982119","95","img/314/4/0.5/bw/001.png","","","interesting"
"","","","","","animation","112","1893226","0.0-112.0","1920x1080","","8095.5","100","img/238/3.5/2/bw/001.png","","","interesting"
"","","","","","animation","113","1896893","0.0-113.0","1920x1080","","3665.800000011921","83.86","img/117/2.5/2/bw/001.png","","","interesting"
"","","","","","animation","114","1909033","0.0-114.0","1920x1080","","12139.09999999404","37.57","img/314/5.5/0.5/bw/001.png","","","interesting"
"","","","","","animation","115","1915009","0.0-115.0","1920x1080","","5974.799999982119","100","img/117/3.5/1.5/bw/001.png","","","interesting"
"","","","","","animation","116","1920426","0.0-116.0","1920x1080","","5416.199999988079","93.25","img/238/3.5/0.66667/bw/001.png","","","interesting"
"","","","","","animation","117","1923843","0.0-117.0","1920x1080","","3415.699999988079","96","img/238/4/0.66667/bw/001.png","","","interesting"
"","","","","","animation","118","1929717","0.0-118.0","1920x1080","","5868.700000017881","71.56","img/314/3.5/0.5/bw/001.png","","","interesting"
"","","","","","animation","119","1935949","0.0-119.0","1920x1080","","6230.299999982119","26.19","img/117/5.5/1.5/bw/001.png","","","interesting"
"","","","","","animation","120","1945389","0.0-120.0","1920x1080","","9439.299999982119","52.38","img/314/5.5/0.66667/bw/001.png","","","interesting"
"","","","","","animation","121","1953230","0.0-121.0","1920x1080","","7838.5999999940395","68.52","img/117/4/1/bw/001.png","","","interesting"
"","","","","","animation","122","1956264","0.0-122.0","1920x1080","","3033.7999999821186","71.69","img/314/2.5/0.5/bw/001.png","","","interesting"
"","","","","","animation","123","1963013","0.0-123.0","1920x1080","","6747.5","90","img/117/4.5/0.5/bw/001.png","","","interesting"
"","","","","","animation","124","1967048","0.0-124.0","1920x1080","","4033.5","69.84","img/314/2.5/2/bw/001.png","","","interesting"
"","","","","","animation","125","1972605","0.0-125.0","1920x1080","","5556.799999982119","92.46","img/238/3.5/1/bw/001.png","","","interesting"
"","","","","","animation","126","1985512","0.0-126.0","1920x1080","","12907.299999982119","67.99","img/314/3.5/1.5/bw/001.png","","","interesting"
"","","","","","animation","127","1992478","0.0-127.0","1920x1080","","6964.300000011921","58.33","img/314/2.5/1/bw/001.png","","","interesting"
"","","","","","animation","128","2008695","0.0-128.0","1920x1080","","16215.90000000596","45","img/314/5.5/1/bw/001.png","","","interesting"
"","","","","","animation","129","2015611","0.0-129.0","1920x1080","","6915","41.40","img/238/5.5/0.5/bw/001.png","","","interesting"
"","","","","","animation","130","2020061","0.0-130.0","1920x1080","","4449","55.03","img/238/3.5/1.5/bw/001.png","","","interesting"
"","","","","","animation","131","2023279","0.0-131.0","1920x1080","","3216.9000000059605","62.43","img/117/4/0.5/bw/001.png","","","interesting"
"","","","","","animation","132","2028635","0.0-132.0","1920x1080","","5355.199999988079","60.85","img/117/4/0.66667/bw/001.png","","","interesting"
"","","","","","animation","133","2035363","0.0-133.0","1920x1080","","6725.399999976158","50.40","img/117/4/2/bw/001.png","","","interesting"
"","","","","","animation","134","2045378","0.0-134.0","1920x1080","","10014.90000000596","71.16","img/314/4.5/0.66667/bw/001.png","","","interesting"
"","","","","","animation","135","2061803","0.0-135.0","1920x1080","","16423.29999998212","99","img/314/4.5/1.5/bw/001.png","","","interesting"
"","","","","","animation","136","2077171","0.0-136.0","1920x1080","","15366.5","74.87","img/238/2.5/0.66667/bw/001.png","","","interesting"
"","","","","","animation","137","2089899","0.0-137.0","1920x1080","","12722.5","80.56","img/314/4/0.66667/bw/001.png","","","interesting"
"","","","","","animation","138","2094563","0.0-138.0","1920x1080","","4662.600000023842","40.48","img/238/5.5/1/bw/001.png","","","interesting"
"","","","","","animation","139","2111865","0.0-139.0","1920x1080","","17301.899999976158","35.32","img/314/5.5/2/bw/001.png","","","interesting"
"","","","","","animation","140","2119314","0.0-140.0","1920x1080","","7447.199999988079","91.93","img/238/3.5/0.5/bw/001.png","","","interesting"
"","","","","","animation","141","2124202","0.0-141.0","1920x1080","","4887","75.26","img/238/2.5/0.5/bw/001.png","","","interesting"
"","","","","","animation","142","2127754","0.0-142.0","1920x1080","","3550.5999999940395","63.76","img/314/4/1.5/bw/001.png","","","interesting"
"","","","","","animation","143","2134602","0.0-143.0","1920x1080","","6846.899999976158","64","img/117/3.5/0.5/bw/001.png","","","interesting"
"","","","","","animation","144","2142562","0.0-144.0","1920x1080","","7958.100000023842","26.46","img/117/5.5/1/bw/001.png","","","interesting"
"","","","","","animation","145","2150561","0.0-145.0","1920x1080","","7999","58.86","img/314/4/2/bw/001.png","","","interesting"
"","","","","","animation","146","2172533","0.0-146.0","1920x1080","","21966.79999998212","69.05","img/117/4.5/1/bw/001.png","","","interesting"
"","","","","","animation","147","2182663","0.0-147.0","1920x1080","","10127.59999999404","32.80","img/117/5.5/0.5/bw/001.png","","","interesting"
"","","","","","animation","148","2189496","0.0-148.0","1920x1080","","6832.100000023842","43.65","img/238/4.5/1/bw/001.png","","","interesting"
"","","","","","animation","149","2194685","0.0-149.0","1920x1080","","5187.5","75.26","img/238/4/1.5/bw/001.png","","","interesting"
"","","","","","animation","150","2200949","0.0-150.0","1920x1080","","6262.300000011921","95","img/238/4/1/bw/001.png","","","interesting"
"","","","","","animation","151","2203685","0.0-151.0","1920x1080","","2735","87.30","img/117/4/1.5/bw/001.png","","","interesting"
"","","","","","animation","152","2209789","0.0-152.0","1920x1080","","6103.0999999940395","64.95","img/314/3.5/1/bw/001.png","","","interesting"
"","","","","","animation","153","2214813","0.0-153.0","1920x1080","","5022.5","62.96","img/314/3.5/2/bw/001.png","","","interesting"
"","","","","","animation","154","2219165","0.0-154.0","1920x1080","","4347.799999982119","62.30","img/117/5.5/0.66667/bw/001.png","","","interesting"
"","","","","","animation","155","2224201","0.0-155.0","1920x1080","","5030.799999982119","58.99","img/117/4.5/1.5/bw/001.png","","","interesting"
"","","","","","animation","156","2228769","0.0-156.0","1920x1080","","4567.100000023842","20.24","img/238/5.5/2/bw/001.png","","","interesting"
"","","","","","animation","157","2245033","0.0-157.0","1920x1080","","16263.199999988079","62.17","img/238/4.5/0.66667/bw/001.png","","","interesting"
"","","","","","animation","158","2249809","0.0-158.0","1920x1080","","4775.0999999940395","76.98","img/238/2.5/2/bw/001.png","","","interesting"
"","","","","","html-button-response","159","2270994","0.0-159.0","1920x1080","","21183.09999999404","","<div class=""intro"">You are about to view a new series of animations.<br><br></div><div class=""intro"">You will evaluate them based on a different descriptor.<br><br></div><div class=""intro"">Move the slider to indicate how <strong style=""text-transform:capitalize"">RELAXING</strong> you find each animation.<br><br></div><div class=""intro"">0 = Least Relaxing<br></div><div class=""intro"">1 = Most Relaxing<br><br></div><div class=""intro"">Remember to use the <strong><em>entire range</em></strong> of the slider to make your ratings.<br></div><div class=""intro"">Please <strong><em>take your time</em></strong> and carefully consider each rating you make.<br><br></div>","0","",""
"","","","","","call-function","160","2270996","0.0-160.0","1920x1080","","","","","","",""
"","","","","","animation","161","2292021","0.0-161.0","1920x1080","","21028.79999998212","33.99","img/238/3.5/1.5/bw/001.png","","","relaxing"
"","","","","","animation","162","2296913","0.0-162.0","1920x1080","","4890.700000017881","25.93","img/314/4/1/bw/001.png","","","relaxing"
"","","","","","animation","163","2301013","0.0-163.0","1920x1080","","4098","19.31","img/314/4.5/0.5/bw/001.png","","","relaxing"
"","","","","","animation","164","2304945","0.0-164.0","1920x1080","","3931.2999999821186","13.62","img/238/2.5/2/bw/001.png","","","relaxing"
"","","","","","animation","165","2308979","0.0-165.0","1920x1080","","4032.5999999940395","40.34","img/314/4/1.5/bw/001.png","","","relaxing"
"","","","","","animation","166","2313161","0.0-166.0","1920x1080","","4181.299999982119","13","img/117/2.5/0.5/bw/001.png","","","relaxing"
"","","","","","animation","167","2319517","0.0-167.0","1920x1080","","6354.800000011921","19.31","img/238/4/0.66667/bw/001.png","","","relaxing"
"","","","","","animation","168","2325180","0.0-168.0","1920x1080","","5661.4000000059605","35.71","img/117/4/1.5/bw/001.png","","","relaxing"
"","","","","","animation","169","2331805","0.0-169.0","1920x1080","","6624.0999999940395","100","img/117/5.5/1.5/bw/001.png","","","relaxing"
"","","","","","animation","170","2336549","0.0-170.0","1920x1080","","4742","11.90","img/117/3.5/0.66667/bw/001.png","","","relaxing"
"","","","","","animation","171","2342245","0.0-171.0","1920x1080","","5694.800000011921","35.32","img/117/4.5/0.5/bw/001.png","","","relaxing"
"","","","","","animation","172","2347143","0.0-172.0","1920x1080","","4898.699999988079","94.18","img/238/5.5/1/bw/001.png","","","relaxing"
"","","","","","animation","173","2354315","0.0-173.0","1920x1080","","7171.0999999940395","43","img/314/4/2/bw/001.png","","","relaxing"
"","","","","","animation","174","2359419","0.0-174.0","1920x1080","","5102.799999982119","31.88","img/314/4/0.66667/bw/001.png","","","relaxing"
"","","","","","animation","175","2370363","0.0-175.0","1920x1080","","10942.699999988079","99","img/117/5.5/2/bw/001.png","","","relaxing"
"","","","","","animation","176","2380531","0.0-176.0","1920x1080","","10166.799999982119","45.77","img/314/4.5/1.5/bw/001.png","","","relaxing"
"","","","","","animation","177","2386667","0.0-177.0","1920x1080","","6135.0999999940395","27.78","img/238/4.5/1/bw/001.png","","","relaxing"
"","","","","","animation","178","2390943","0.0-178.0","1920x1080","","4273.399999976158","20.24","img/314/3.5/2/bw/001.png","","","relaxing"
"","","","","","animation","179","2393515","0.0-179.0","1920x1080","","2571.5999999940395","15.74","img/117/3.5/2/bw/001.png","","","relaxing"
"","","","","","animation","180","2396915","0.0-180.0","1920x1080","","3398.9000000059605","14.55","img/117/3.5/1/bw/001.png","","","relaxing"
"","","","","","animation","181","2436946","0.0-181.0","1920x1080","","40030.90000000596","48","img/117/4.5/2/bw/001.png","","","relaxing"
"","","","","","animation","182","2443594","0.0-182.0","1920x1080","","6645.5","57.54","img/314/5.5/2/bw/001.png","","","relaxing"
"","","","","","animation","183","2448976","0.0-183.0","1920x1080","","5380.9000000059605","25.26","img/314/4.5/0.66667/bw/001.png","","","relaxing"
"","","","","","animation","184","2454608","0.0-184.0","1920x1080","","5630.699999988079","53","img/314/5.5/0.66667/bw/001.png","","","relaxing"
"","","","","","animation","185","2460730","0.0-185.0","1920x1080","","6121.299999982119","11","img/238/4/0.5/bw/001.png","","","relaxing"
"","","","","","animation","186","2468930","0.0-186.0","1920x1080","","8198.899999976158","65.48","img/238/5.5/1.5/bw/001.png","","","relaxing"
"","","","","","animation","187","2473714","0.0-187.0","1920x1080","","4781.799999982119","9.79","img/314/3.5/1.5/bw/001.png","","","relaxing"
"","","","","","animation","188","2477082","0.0-188.0","1920x1080","","3366.7999999821186","0.00","img/314/2.5/0.5/bw/001.png","","","relaxing"
"","","","","","animation","189","2491607","0.0-189.0","1920x1080","","14524.5","43","img/314/5.5/0.5/bw/001.png","","","relaxing"
"","","","","","animation","190","2498009","0.0-190.0","1920x1080","","6401","15.87","img/314/4/0.5/bw/001.png","","","relaxing"
"","","","","","animation","191","2505141","0.0-191.0","1920x1080","","7130.200000017881","21.56","img/238/4.5/1.5/bw/001.png","","","relaxing"
"","","","","","animation","192","2508114","0.0-192.0","1920x1080","","2971.9000000059605","0.79","img/117/2.5/0.66667/bw/001.png","","","relaxing"
"","","","","","animation","193","2512914","0.0-193.0","1920x1080","","4799","3","img/314/3.5/0.66667/bw/001.png","","","relaxing"
"","","","","","animation","194","2517607","0.0-194.0","1920x1080","","4692.5","11.51","img/117/4/0.66667/bw/001.png","","","relaxing"
"","","","","","animation","195","2525025","0.0-195.0","1920x1080","","7413","4.23","img/117/2.5/1/bw/001.png","","","relaxing"
"","","","","","animation","196","2532795","0.0-196.0","1920x1080","","7765.5999999940395","0.13","img/314/2.5/2/bw/001.png","","","relaxing"
"","","","","","animation","197","2566494","0.0-197.0","1920x1080","","33698","46.16","img/314/4.5/1/bw/001.png","","","relaxing"
"","","","","","animation","198","2571245","0.0-198.0","1920x1080","","4749.799999982119","34.92","img/117/3.5/1.5/bw/001.png","","","relaxing"
"","","","","","animation","199","2581933","0.0-199.0","1920x1080","","10687.09999999404","70.37","img/314/5.5/1/bw/001.png","","","relaxing"
"","","","","","animation","200","2587527","0.0-200.0","1920x1080","","5593.4000000059605","8.86","img/238/2.5/1/bw/001.png","","","relaxing"
"","","","","","animation","201","2593126","0.0-201.0","1920x1080","","5597.799999982119","40.87","img/117/5.5/0.5/bw/001.png","","","relaxing"
"","","","","","animation","202","2603133","0.0-202.0","1920x1080","","10005.200000017881","39.29","img/238/4/2/bw/001.png","","","relaxing"
"","","","","","animation","203","2610410","0.0-203.0","1920x1080","","7275.9000000059605","73.54","img/117/5.5/1/bw/001.png","","","relaxing"
"","","","","","animation","204","2616180","0.0-204.0","1920x1080","","5767.699999988079","24.47","img/238/4.5/0.66667/bw/001.png","","","relaxing"
"","","","","","animation","205","2621443","0.0-205.0","1920x1080","","5260.800000011921","28.44","img/238/3.5/2/bw/001.png","","","relaxing"
"","","","","","animation","206","2626227","0.0-206.0","1920x1080","","4783","22.75","img/117/4.5/0.66667/bw/001.png","","","relaxing"
"","","","","","animation","207","2632101","0.0-207.0","1920x1080","","5872","15","img/314/2.5/1/bw/001.png","","","relaxing"
"","","","","","animation","208","2640811","0.0-208.0","1920x1080","","8709.09999999404","32.28","img/117/4.5/1/bw/001.png","","","relaxing"
"","","","","","animation","209","2646175","0.0-209.0","1920x1080","","5362","25.93","img/238/4.5/0.5/bw/001.png","","","relaxing"
"","","","","","animation","210","2653425","0.0-210.0","1920x1080","","7247","71.69","img/117/5.5/0.66667/bw/001.png","","","relaxing"
"","","","","","animation","211","2664108","0.0-211.0","1920x1080","","10681.700000017881","6","img/117/4/0.5/bw/001.png","","","relaxing"
"","","","","","animation","212","2672483","0.0-212.0","1920x1080","","8373.699999988079","43.39","img/238/5.5/0.5/bw/001.png","","","relaxing"
"","","","","","animation","213","2680592","0.0-213.0","1920x1080","","8107.5","41.27","img/117/4/2/bw/001.png","","","relaxing"
"","","","","","animation","214","2688283","0.0-214.0","1920x1080","","7690.0999999940395","38.23","img/238/4/1.5/bw/001.png","","","relaxing"
"","","","","","animation","215","2697483","0.0-215.0","1920x1080","","9199","17.72","img/238/3.5/0.66667/bw/001.png","","","relaxing"
"","","","","","animation","216","2700725","0.0-216.0","1920x1080","","3240.4000000059605","2.38","img/238/2.5/0.5/bw/001.png","","","relaxing"
"","","","","","animation","217","2706714","0.0-217.0","1920x1080","","5989.300000011921","32.01","img/238/3.5/1/bw/001.png","","","relaxing"
"","","","","","animation","218","2709962","0.0-218.0","1920x1080","","3246.899999976158","26.98","img/117/3.5/0.5/bw/001.png","","","relaxing"
"","","","","","animation","219","2714042","0.0-219.0","1920x1080","","4078.5999999940395","2.65","img/314/2.5/0.66667/bw/001.png","","","relaxing"
"","","","","","animation","220","2731330","0.0-220.0","1920x1080","","17286.80000001192","100","img/314/5.5/1.5/bw/001.png","","","relaxing"
"","","","","","animation","221","2736746","0.0-221.0","1920x1080","","5414.4000000059605","0.93","img/238/2.5/0.66667/bw/001.png","","","relaxing"
"","","","","","animation","222","2753190","0.0-222.0","1920x1080","","16443","80.95","img/238/5.5/0.66667/bw/001.png","","","relaxing"
"","","","","","animation","223","2776701","0.0-223.0","1920x1080","","23503.5","37.04","img/314/4.5/2/bw/001.png","","","relaxing"
"","","","","","animation","224","2806981","0.0-224.0","1920x1080","","30278.399999976158","11.24","img/238/3.5/0.5/bw/001.png","","","relaxing"
"","","","","","animation","225","2811226","0.0-225.0","1920x1080","","4241.300000011921","6.88","img/117/2.5/2/bw/001.png","","","relaxing"
"","","","","","animation","226","2815197","0.0-226.0","1920x1080","","3969.4000000059605","15.21","img/314/3.5/1/bw/001.png","","","relaxing"
"","","","","","animation","227","2819565","0.0-227.0","1920x1080","","4367.100000023842","0.13","img/117/2.5/1.5/bw/001.png","","","relaxing"
"","","","","","animation","228","2822791","0.0-228.0","1920x1080","","3225.2999999821186","5.56","img/314/3.5/0.5/bw/001.png","","","relaxing"
"","","","","","animation","229","2826825","0.0-229.0","1920x1080","","4033.2999999821186","12","img/117/4/1/bw/001.png","","","relaxing"
"","","","","","animation","230","2831732","0.0-230.0","1920x1080","","4905.4000000059605","5.56","img/314/2.5/1.5/bw/001.png","","","relaxing"
"","","","","","animation","231","2843027","0.0-231.0","1920x1080","","11294.300000011921","83.07","img/238/5.5/2/bw/001.png","","","relaxing"
"","","","","","animation","232","2863164","0.0-232.0","1920x1080","","20134.600000023842","49.60","img/238/4.5/2/bw/001.png","","","relaxing"
"","","","","","animation","233","2868196","0.0-233.0","1920x1080","","5030.9000000059605","57.80","img/117/4.5/1.5/bw/001.png","","","relaxing"
"","","","","","animation","234","2871092","0.0-234.0","1920x1080","","2894.9000000059605","6.75","img/238/2.5/1.5/bw/001.png","","","relaxing"
"","","","","","animation","235","2876980","0.0-235.0","1920x1080","","5886.600000023842","33.47","img/238/4/1/bw/001.png","","","relaxing"
"","","","","","html-button-response","236","2909955","0.0-236.0","1920x1080","","32966.80000001192","","<div class=""intro"">You are about to view a new series of animations.<br><br></div><div class=""intro"">You will evaluate them based on a different descriptor.<br><br></div><div class=""intro"">Move the slider to indicate how <strong style=""text-transform:capitalize"">APPEALING</strong> you find each animation.<br><br></div><div class=""intro"">0 = Least Appealing<br></div><div class=""intro"">1 = Most Appealing<br><br></div><div class=""intro"">Remember to use the <strong><em>entire range</em></strong> of the slider to make your ratings.<br></div><div class=""intro"">Please <strong><em>take your time</em></strong> and carefully consider each rating you make.<br><br></div>","0","",""
"","","","","","call-function","237","2909959","0.0-237.0","1920x1080","","","","","","",""
"","","","","","animation","238","2919699","0.0-238.0","1920x1080","","9738.800000011921","100","img/117/5.5/2/bw/001.png","","","appealing"
"","","","","","animation","239","2927115","0.0-239.0","1920x1080","","7414.5","62.96","img/238/3.5/1.5/bw/001.png","","","appealing"
"","","","","","animation","240","2931132","0.0-240.0","1920x1080","","4015.9000000059605","56.48","img/117/4/1/bw/001.png","","","appealing"
"","","","","","animation","241","2937523","0.0-241.0","1920x1080","","6390.5","66.01","img/314/4.5/0.66667/bw/001.png","","","appealing"
"","","","","","animation","242","2943782","0.0-242.0","1920x1080","","6257.700000017881","45.37","img/238/4/0.66667/bw/001.png","","","appealing"
"","","","","","animation","243","2948301","0.0-243.0","1920x1080","","4523.300000011921","41.40","img/238/3.5/2/bw/001.png","","","appealing"
"","","","","","animation","244","2951926","0.0-244.0","1920x1080","","3623.2000000178814","38.10","img/117/4/0.66667/bw/001.png","","","appealing"
"","","","","","animation","245","2957126","0.0-245.0","1920x1080","","5198.5999999940395","0.13","img/314/2.5/0.5/bw/001.png","","","appealing"
"","","","","","animation","246","2968717","0.0-246.0","1920x1080","","11590.300000011921","96","img/238/4.5/0.66667/bw/001.png","","","appealing"
"","","","","","animation","247","2974842","0.0-247.0","1920x1080","","6123.0999999940395","83.20","img/117/4.5/1/bw/001.png","","","appealing"
"","","","","","animation","248","2978209","0.0-248.0","1920x1080","","3365","5.42","img/117/2.5/0.5/bw/001.png","","","appealing"
"","","","","","animation","249","2982181","0.0-249.0","1920x1080","","3971.2000000178814","89.81","img/117/5.5/1.5/bw/001.png","","","appealing"
"","","","","","animation","250","2998509","0.0-250.0","1920x1080","","16326.299999982119","72.62","img/117/4.5/2/bw/001.png","","","appealing"
"","","","","","animation","251","3012579","0.0-251.0","1920x1080","","14070.59999999404","20.50","img/117/3.5/2/bw/001.png","","","appealing"
"","","","","","animation","252","3019840","0.0-252.0","1920x1080","","7256.5999999940395","31.48","img/238/4/1/bw/001.png","","","appealing"
"","","","","","animation","253","3022579","0.0-253.0","1920x1080","","2737.9000000059605","12.70","img/238/2.5/2/bw/001.png","","","appealing"
"","","","","","animation","254","3026340","0.0-254.0","1920x1080","","3759.800000011921","46.96","img/238/4.5/2/bw/001.png","","","appealing"
"","","","","","animation","255","3048673","0.0-255.0","1920x1080","","22332","54","img/238/3.5/1/bw/001.png","","","appealing"
"","","","","","animation","256","3059323","0.0-256.0","1920x1080","","10648.09999999404","86.64","img/238/4.5/1/bw/001.png","","","appealing"
"","","","","","animation","257","3063979","0.0-257.0","1920x1080","","4654.600000023842","56.88","img/238/3.5/0.66667/bw/001.png","","","appealing"
"","","","","","animation","258","3066844","0.0-258.0","1920x1080","","2862.699999988079","61.38","img/314/4/0.66667/bw/001.png","","","appealing"
"","","","","","animation","259","3070813","0.0-259.0","1920x1080","","3966.800000011921","99","img/117/5.5/1/bw/001.png","","","appealing"
"","","","","","animation","260","3075375","0.0-260.0","1920x1080","","4559.9000000059605","41.80","img/117/4/2/bw/001.png","","","appealing"
"","","","","","animation","261","3079965","0.0-261.0","1920x1080","","4588.600000023842","38.62","img/238/3.5/0.5/bw/001.png","","","appealing"
"","","","","","animation","262","3085709","0.0-262.0","1920x1080","","5742.300000011921","70.50","img/314/5.5/2/bw/001.png","","","appealing"
"","","","","","animation","263","3097981","0.0-263.0","1920x1080","","12271.100000023842","6.08","img/117/2.5/2/bw/001.png","","","appealing"
"","","","","","animation","264","3101629","0.0-264.0","1920x1080","","3646.300000011921","3.97","img/117/2.5/0.66667/bw/001.png","","","appealing"
"","","","","","animation","265","3104958","0.0-265.0","1920x1080","","3328.600000023842","21.03","img/314/3.5/0.66667/bw/001.png","","","appealing"
"","","","","","animation","266","3129256","0.0-266.0","1920x1080","","24298.40000000596","60","img/238/4/2/bw/001.png","","","appealing"
"","","","","","animation","267","3132323","0.0-267.0","1920x1080","","3064.7000000178814","62.96","img/117/4.5/1.5/bw/001.png","","","appealing"
"","","","","","animation","268","3142090","0.0-268.0","1920x1080","","9765.5","70.90","img/238/5.5/1.5/bw/001.png","","","appealing"
"","","","","","animation","269","3148973","0.0-269.0","1920x1080","","6882.200000017881","66","img/314/4/1/bw/001.png","","","appealing"
"","","","","","animation","270","3152579","0.0-270.0","1920x1080","","3604.7000000178814","2.78","img/117/2.5/1/bw/001.png","","","appealing"
"","","","","","animation","271","3173595","0.0-271.0","1920x1080","","21014.70000001788","80.82","img/238/5.5/1/bw/001.png","","","appealing"
"","","","","","animation","272","3178443","0.0-272.0","1920x1080","","4845.5","85.98","img/117/4.5/0.66667/bw/001.png","","","appealing"
"","","","","","animation","273","3182731","0.0-273.0","1920x1080","","4287.199999988079","70.24","img/314/4.5/2/bw/001.png","","","appealing"
"","","","","","animation","274","3191556","0.0-274.0","1920x1080","","8826.5","19.97","img/314/3.5/1.5/bw/001.png","","","appealing"
"","","","","","animation","275","3202024","0.0-275.0","1920x1080","","10464.5","53.44","img/314/4.5/1.5/bw/001.png","","","appealing"
"","","","","","animation","276","3225353","0.0-276.0","1920x1080","","23327.5","42.20","img/314/4/2/bw/001.png","","","appealing"
"","","","","","animation","277","3240160","0.0-277.0","1920x1080","","14803.40000000596","26.32","img/314/3.5/2/bw/001.png","","","appealing"
"","","","","","animation","278","3245141","0.0-278.0","1920x1080","","4974.700000017881","82.80","img/314/5.5/1/bw/001.png","","","appealing"
"","","","","","animation","279","3248677","0.0-279.0","1920x1080","","3534.5","62.04","img/238/4/1.5/bw/001.png","","","appealing"
"","","","","","animation","280","3252341","0.0-280.0","1920x1080","","3662.699999988079","1.19","img/314/2.5/0.66667/bw/001.png","","","appealing"
"","","","","","animation","281","3263213","0.0-281.0","1920x1080","","10870.59999999404","91.53","img/238/5.5/0.5/bw/001.png","","","appealing"
"","","","","","animation","282","3275376","0.0-282.0","1920x1080","","12161.700000017881","0","img/238/2.5/1/bw/001.png","","","appealing"
"","","","","","animation","283","3310190","0.0-283.0","1920x1080","","34812.90000000596","61.64","img/314/3.5/1/bw/001.png","","","appealing"
"","","","","","animation","284","3312990","0.0-284.0","1920x1080","","2798.699999988079","60.71","img/117/4/1.5/bw/001.png","","","appealing"
"","","","","","animation","285","3317124","0.0-285.0","1920x1080","","4132.199999988079","12.83","img/314/2.5/2/bw/001.png","","","appealing"
"","","","","","animation","286","3322324","0.0-286.0","1920x1080","","5199.300000011921","62.17","img/314/5.5/0.5/bw/001.png","","","appealing"
"","","","","","animation","287","3326107","0.0-287.0","1920x1080","","3781.2999999821186","0","img/117/2.5/1.5/bw/001.png","","","appealing"
"","","","","","animation","288","3331580","0.0-288.0","1920x1080","","5471.699999988079","57.41","img/314/4.5/0.5/bw/001.png","","","appealing"
"","","","","","animation","289","3337140","0.0-289.0","1920x1080","","5557.899999976158","53.97","img/314/4.5/1/bw/001.png","","","appealing"
"","","","","","animation","290","3341564","0.0-290.0","1920x1080","","4421.800000011921","74.21","img/117/5.5/0.66667/bw/001.png","","","appealing"
"","","","","","animation","291","3365498","0.0-291.0","1920x1080","","23924.09999999404","73","img/117/3.5/0.66667/bw/001.png","","","appealing"
"","","","","","animation","292","3370165","0.0-292.0","1920x1080","","4665.0999999940395","65.74","img/238/4/0.5/bw/001.png","","","appealing"
"","","","","","animation","293","3374432","0.0-293.0","1920x1080","","4265.100000023842","11.51","img/238/2.5/0.66667/bw/001.png","","","appealing"
"","","","","","animation","294","3378598","0.0-294.0","1920x1080","","4165.300000011921","89.55","img/117/5.5/0.5/bw/001.png","","","appealing"
"","","","","","animation","295","3386665","0.0-295.0","1920x1080","","8065.4000000059605","38","img/314/3.5/0.5/bw/001.png","","","appealing"
"","","","","","animation","296","3398165","0.0-296.0","1920x1080","","11497","96","img/238/4.5/0.5/bw/001.png","","","appealing"
"","","","","","animation","297","3417548","0.0-297.0","1920x1080","","19381.30000001192","5.95","img/238/2.5/0.5/bw/001.png","","","appealing"
"","","","","","animation","298","3422381","0.0-298.0","1920x1080","","4831.100000023842","3.57","img/314/2.5/1/bw/001.png","","","appealing"
"","","","","","animation","299","3425845","0.0-299.0","1920x1080","","3469.800000011921","88.49","img/314/5.5/1.5/bw/001.png","","","appealing"
"","","","","","animation","300","3431473","0.0-300.0","1920x1080","","5627.5999999940395","8.47","img/117/3.5/0.5/bw/001.png","","","appealing"
"","","","","","animation","301","3436390","0.0-301.0","1920x1080","","4915.399999976158","11.64","img/117/3.5/1.5/bw/001.png","","","appealing"
"","","","","","animation","302","3454857","0.0-302.0","1920x1080","","18464.69999998808","72.88","img/314/4/1.5/bw/001.png","","","appealing"
"","","","","","animation","303","3458781","0.0-303.0","1920x1080","","3921.9000000059605","80.16","img/314/5.5/0.66667/bw/001.png","","","appealing"
"","","","","","animation","304","3461740","0.0-304.0","1920x1080","","2957.9000000059605","22.09","img/117/3.5/1/bw/001.png","","","appealing"
"","","","","","animation","305","3464629","0.0-305.0","1920x1080","","2886.5","8.60","img/314/2.5/1.5/bw/001.png","","","appealing"
"","","","","","animation","306","3472381","0.0-306.0","1920x1080","","7750.699999988079","77.38","img/238/4.5/1.5/bw/001.png","","","appealing"
"","","","","","animation","307","3476213","0.0-307.0","1920x1080","","3830.4000000059605","33.60","img/314/4/0.5/bw/001.png","","","appealing"
"","","","","","animation","308","3478597","0.0-308.0","1920x1080","","2383","28.84","img/117/4/0.5/bw/001.png","","","appealing"
"","","","","","animation","309","3483657","0.0-309.0","1920x1080","","5058.699999988079","3.31","img/238/2.5/1.5/bw/001.png","","","appealing"
"","","","","","animation","310","3487909","0.0-310.0","1920x1080","","4251.299999982119","65.34","img/117/4.5/0.5/bw/001.png","","","appealing"
"","","","","","animation","311","3502524","0.0-311.0","1920x1080","","14613.5","61.64","img/238/5.5/2/bw/001.png","","","appealing"
"","","","","","animation","312","3521815","0.0-312.0","1920x1080","","19289.5","79.37","img/238/5.5/0.66667/bw/001.png","","","appealing"
"","","","","","html-button-response","313","3542448","0.0-313.0","1920x1080","","20630.79999998212","","<div class=""intro"">You are about to view a new series of animations.<br><br></div><div class=""intro"">You will evaluate them based on a different descriptor.<br><br></div><div class=""intro"">Move the slider to indicate how <strong style=""text-transform:capitalize"">NATURAL</strong> you find each animation.<br><br></div><div class=""intro"">0 = Least Natural<br></div><div class=""intro"">1 = Most Natural<br><br></div><div class=""intro"">Remember to use the <strong><em>entire range</em></strong> of the slider to make your ratings.<br></div><div class=""intro"">Please <strong><em>take your time</em></strong> and carefully consider each rating you make.<br><br></div>","0","",""
"","","","","","call-function","314","3542450","0.0-314.0","1920x1080","","","","","","",""
"","","","","","animation","315","3552996","0.0-315.0","1920x1080","","10542.800000011921","5.82","img/314/3.5/0.66667/bw/001.png","","","natural"
"","","","","","animation","316","3555495","0.0-316.0","1920x1080","","2497.199999988079","2.78","img/314/2.5/1.5/bw/001.png","","","natural"
"","","","","","animation","317","3557758","0.0-317.0","1920x1080","","2262.699999988079","8.47","img/238/3.5/0.5/bw/001.png","","","natural"
"","","","","","animation","318","3561479","0.0-318.0","1920x1080","","3718.4000000059605","10.05","img/314/3.5/1/bw/001.png","","","natural"
"","","","","","animation","319","3569215","0.0-319.0","1920x1080","","7735.5","54.23","img/117/3.5/2/bw/001.png","","","natural"
"","","","","","animation","320","3576631","0.0-320.0","1920x1080","","7413.799999982119","15.74","img/238/4/1/bw/001.png","","","natural"
"","","","","","animation","321","3589325","0.0-321.0","1920x1080","","12687.200000017881","100","img/314/5.5/0.66667/bw/001.png","","","natural"
"","","","","","animation","322","3593630","0.0-322.0","1920x1080","","4302.9000000059605","100","img/314/5.5/0.5/bw/001.png","","","natural"
"","","","","","animation","323","3623589","0.0-323.0","1920x1080","","29959.09999999404","15","img/117/4.5/0.5/bw/001.png","","","natural"
"","","","","","animation","324","3652557","0.0-324.0","1920x1080","","28965.59999999404","33","img/117/4.5/1/bw/001.png","","","natural"
"","","","","","animation","325","3655589","0.0-325.0","1920x1080","","3030.5999999940395","82.67","img/314/5.5/1.5/bw/001.png","","","natural"
"","","","","","animation","326","3680949","0.0-326.0","1920x1080","","25350","13.49","img/238/3.5/1/bw/001.png","","","natural"
"","","","","","animation","327","3686797","0.0-327.0","1920x1080","","5846.5999999940395","15","img/238/4.5/0.5/bw/001.png","","","natural"
"","","","","","animation","328","3691416","0.0-328.0","1920x1080","","4617.799999982119","3.70","img/117/2.5/0.66667/bw/001.png","","","natural"
"","","","","","animation","329","3694770","0.0-329.0","1920x1080","","3347.800000011921","81.08","img/314/4.5/2/bw/001.png","","","natural"
"","","","","","animation","330","3699024","0.0-330.0","1920x1080","","4252.200000017881","26.46","img/238/4/1.5/bw/001.png","","","natural"
"","","","","","animation","331","3702781","0.0-331.0","1920x1080","","3754.5","16.67","img/314/4.5/1/bw/001.png","","","natural"
"","","","","","animation","332","3705514","0.0-332.0","1920x1080","","2731.699999988079","0.40","img/117/2.5/0.5/bw/001.png","","","natural"
"","","","","","animation","333","3709014","0.0-333.0","1920x1080","","3499.0999999940395","45.90","img/238/4.5/2/bw/001.png","","","natural"
"","","","","","animation","334","3714553","0.0-334.0","1920x1080","","5537.799999982119","93.25","img/117/5.5/0.5/bw/001.png","","","natural"
"","","","","","animation","335","3724350","0.0-335.0","1920x1080","","9793.09999999404","1.19","img/238/3.5/2/bw/001.png","","","natural"
"","","","","","animation","336","3803503","0.0-336.0","1920x1080","","79161.90000000596","21","img/314/4/0.5/bw/001.png","","","natural"
"","","","","","animation","337","3810972","0.0-337.0","1920x1080","","7464.5999999940395","18.12","img/238/3.5/0.66667/bw/001.png","","","natural"
"","","","","","animation","338","3822052","0.0-338.0","1920x1080","","11078.5","15.87","img/314/3.5/0.5/bw/001.png","","","natural"
"","","","","","animation","339","3828053","0.0-339.0","1920x1080","","5996","2.91","img/117/2.5/1.5/bw/001.png","","","natural"
"","","","","","animation","340","3831997","0.0-340.0","1920x1080","","3942.800000011921","2.51","img/238/2.5/0.5/bw/001.png","","","natural"
"","","","","","animation","341","3836104","0.0-341.0","1920x1080","","4104.0999999940395","7.94","img/314/2.5/1/bw/001.png","","","natural"
"","","","","","animation","342","3842404","0.0-342.0","1920x1080","","6299","26.32","img/238/4/0.5/bw/001.png","","","natural"
"","","","","","animation","343","3849908","0.0-343.0","1920x1080","","7502.5999999940395","93.65","img/117/4.5/1.5/bw/001.png","","","natural"
"","","","","","animation","344","3872414","0.0-344.0","1920x1080","","22504.29999998212","64.29","img/314/4/0.66667/bw/001.png","","","natural"
"","","","","","animation","345","3876156","0.0-345.0","1920x1080","","3740.600000023842","59.92","img/314/4.5/1.5/bw/001.png","","","natural"
"","","","","","animation","346","3882778","0.0-346.0","1920x1080","","6620.5999999940395","61","img/238/4/2/bw/001.png","","","natural"
"","","","","","animation","347","3904850","0.0-347.0","1920x1080","","22059.5","74.74","img/238/4.5/1/bw/001.png","","","natural"
"","","","","","animation","348","3909750","0.0-348.0","1920x1080","","4899","83.60","img/117/5.5/1.5/bw/001.png","","","natural"
"","","","","","animation","349","3915518","0.0-349.0","1920x1080","","5767","55.03","img/314/4.5/0.66667/bw/001.png","","","natural"
"","","","","","animation","350","3921336","0.0-350.0","1920x1080","","5816","79.76","img/117/5.5/0.66667/bw/001.png","","","natural"
"","","","","","animation","351","3924037","0.0-351.0","1920x1080","","2700.199999988079","46.69","img/117/4/0.66667/bw/001.png","","","natural"
"","","","","","animation","352","3931071","0.0-352.0","1920x1080","","7032.5","57.67","img/238/4.5/0.66667/bw/001.png","","","natural"
"","","","","","animation","353","3946038","0.0-353.0","1920x1080","","14965.5","34.79","img/117/4/0.5/bw/001.png","","","natural"
"","","","","","animation","354","3966819","0.0-354.0","1920x1080","","20789","12","img/314/4/1/bw/001.png","","","natural"
"","","","","","animation","355","3982170","0.0-355.0","1920x1080","","15350.300000011921","85","img/117/4.5/2/bw/001.png","","","natural"
"","","","","","animation","356","3988577","0.0-356.0","1920x1080","","6403.4000000059605","0.40","img/117/2.5/1/bw/001.png","","","natural"
"","","","","","animation","357","3993522","0.0-357.0","1920x1080","","4943.0999999940395","92.99","img/117/5.5/2/bw/001.png","","","natural"
"","","","","","animation","358","3996322","0.0-358.0","1920x1080","","2798.5999999940395","89.68","img/117/5.5/1/bw/001.png","","","natural"
"","","","","","animation","359","3999429","0.0-359.0","1920x1080","","3105.300000011921","63.49","img/314/4/1.5/bw/001.png","","","natural"
"","","","","","animation","360","4003846","0.0-360.0","1920x1080","","4415.300000011921","41.80","img/117/3.5/0.66667/bw/001.png","","","natural"
"","","","","","animation","361","4006660","0.0-361.0","1920x1080","","2812.4000000059605","17.20","img/238/2.5/2/bw/001.png","","","natural"
"","","","","","animation","362","4014555","0.0-362.0","1920x1080","","7893.299999982119","92.99","img/238/5.5/0.66667/bw/001.png","","","natural"
"","","","","","animation","363","4017886","0.0-363.0","1920x1080","","3330","10.71","img/238/2.5/0.66667/bw/001.png","","","natural"
"","","","","","animation","364","4020669","0.0-364.0","1920x1080","","2782.4000000059605","99","img/238/5.5/1/bw/001.png","","","natural"
"","","","","","animation","365","4023835","0.0-365.0","1920x1080","","3164.300000011921","94.58","img/314/5.5/2/bw/001.png","","","natural"
"","","","","","animation","366","4026895","0.0-366.0","1920x1080","","3048.5","15.74","img/117/3.5/1/bw/001.png","","","natural"
"","","","","","animation","367","4032596","0.0-367.0","1920x1080","","5699.4000000059605","15.48","img/314/3.5/1.5/bw/001.png","","","natural"
"","","","","","animation","368","4041245","0.0-368.0","1920x1080","","8647.5","7.14","img/314/2.5/0.5/bw/001.png","","","natural"
"","","","","","animation","369","4054262","0.0-369.0","1920x1080","","13015.199999988079","8.33","img/117/2.5/2/bw/001.png","","","natural"
"","","","","","animation","370","4074496","0.0-370.0","1920x1080","","20231.600000023842","48.02","img/238/3.5/1.5/bw/001.png","","","natural"
"","","","","","animation","371","4083007","0.0-371.0","1920x1080","","8508.800000011921","51.98","img/314/3.5/2/bw/001.png","","","natural"
"","","","","","animation","372","4090342","0.0-372.0","1920x1080","","7331","88","img/238/5.5/1.5/bw/001.png","","","natural"
"","","","","","animation","373","4096439","0.0-373.0","1920x1080","","6094.799999982119","11.90","img/314/4.5/0.5/bw/001.png","","","natural"
"","","","","","animation","374","4101654","0.0-374.0","1920x1080","","5214.299999982119","18.92","img/117/4/1/bw/001.png","","","natural"
"","","","","","animation","375","4106138","0.0-375.0","1920x1080","","4481","78.84","img/238/5.5/0.5/bw/001.png","","","natural"
"","","","","","animation","376","4116080","0.0-376.0","1920x1080","","9940.300000011921","42.86","img/238/5.5/2/bw/001.png","","","natural"
"","","","","","animation","377","4121455","0.0-377.0","1920x1080","","5373.600000023842","10.71","img/117/4/2/bw/001.png","","","natural"
"","","","","","animation","378","4130905","0.0-378.0","1920x1080","","9448.09999999404","33.33","img/238/4/0.66667/bw/001.png","","","natural"
"","","","","","animation","379","4133932","0.0-379.0","1920x1080","","3025.199999988079","26.19","img/117/3.5/1.5/bw/001.png","","","natural"
"","","","","","animation","380","4138440","0.0-380.0","1920x1080","","4504.199999988079","19.31","img/314/4/2/bw/001.png","","","natural"
"","","","","","animation","381","4146614","0.0-381.0","1920x1080","","8172.199999988079","24.47","img/117/3.5/0.5/bw/001.png","","","natural"
"","","","","","animation","382","4151813","0.0-382.0","1920x1080","","5195","74.74","img/117/4/1.5/bw/001.png","","","natural"
"","","","","","animation","383","4154250","0.0-383.0","1920x1080","","2435.699999988079","3.97","img/238/2.5/1.5/bw/001.png","","","natural"
"","","","","","animation","384","4158171","0.0-384.0","1920x1080","","3919","1.98","img/314/2.5/0.66667/bw/001.png","","","natural"
"","","","","","animation","385","4186380","0.0-385.0","1920x1080","","28207.40000000596","82.28","img/238/4.5/1.5/bw/001.png","","","natural"
"","","","","","animation","386","4191331","0.0-386.0","1920x1080","","4949.199999988079","32.67","img/117/4.5/0.66667/bw/001.png","","","natural"
"","","","","","animation","387","4197897","0.0-387.0","1920x1080","","6564.9000000059605","75","img/314/5.5/1/bw/001.png","","","natural"
"","","","","","animation","388","4202553","0.0-388.0","1920x1080","","4653.9000000059605","15.87","img/238/2.5/1/bw/001.png","","","natural"
"","","","","","animation","389","4208028","0.0-389.0","1920x1080","","5482.0999999940395","10.58","img/314/2.5/2/bw/001.png","","","natural"
"","","","","","html-button-response","390","4243415","0.0-390.0","1920x1080","","35383.5","","<strong>Study Debriefing</strong><br><p class=""debrief""><strong>Background:</strong> The patterns you rated are called <em>fractals</em>. The term fractal describes a class of irregular curves or shapes for which any suitably chosen part is similar in shape to a given larger or smaller part when magnified or reduced to the same size. Fractal properties are found throughout the natural and manmade world. The series of animations you saw today displayed animated fractal patterns of a varying complexity.</p><p class=""debrief""><strong>Purpose of this study:</strong> We hope to better understand how the perception of static fractals differs from the perception of animated fractals, and how the speed of the animated patterns influences people&apos;s perception of them. Fractals allow us to study the perception of aesthetic properties (e.g. the perceived level of beauty in an image) without using recognizable content, which makes them an excellent tool for studying abstract aesthetic judgement.</p><p class=""debrief""><strong>Your part:</strong> Your participation has helped us to further understand how humans perceive these patterns across different levels of speed and complexity. This research with allow us to better understand how the visual system and brain process our ever-changing visual environments.<p class=""debrief""><strong>Feedback and Further information:</strong> If you have additional questions about this study, please feel free to ask the researcher, Nathan Gonzales-Hess at nhess @ uoregon.edu. If you have any questions concerning your rights as a research participant, please contact Research Compliance Services, 5237 University of Oregon, Eugene, OR 97403, 541-346-2510, or email researchCompliance @ uoregon.edu. You can also email the Human Subjects Coordinator for psychology and linguistics research at hscoord @ uoregon.edu. ","0","",""
"","","","","","html-button-response","391","4248043","0.0-391.0","1920x1080","","4623.5","","Thank you for participating in this study. <br>Please click below to finish the experiment and submit your responses.<br><br>","0","",""
"true","","","","","fullscreen","392","4249047","0.0-392.0","1920x1080","14:29 6/10/2022","","","","","",""
