"success","timeout","failed_images","failed_audio","failed_video","trial_type","trial_index","time_elapsed","internal_node_id","resolution","timeStamp","rt","response","stimulus","button_pressed","value","descriptor"
"true","false","[]","[]","[]","preload","0","32012","0.0-0.0","1920x1080","","","","","","",""
"true","false","[]","[]","[]","preload","1","63781","0.0-1.0","1920x1080","","","","","","",""
"true","false","[]","[]","[]","preload","2","88610","0.0-2.0","1920x1080","","","","","","",""
"true","","","","","fullscreen","3","267208","0.0-3.0","1920x1080","12:48 24/10/2022","","","","","",""
"","","","","","survey-html-form","4","286051","0.0-4.0","1920x1080","","18840","{""age"":""18"",""gender"":""Female""}","","","",""
"","","","","","html-button-response","5","369764","0.0-5.0","1920x1080","","83710.79999999888","","<div class=""complex"">You are going to see a series of animations.<br><br></div><div class=""complex"">Move the slider to indicate how <strong style=""text-transform:capitalize"">COMPLEX</strong> you find each animation.<br><br></div><div class=""complex"">0 = Least Complex<br></div><div class=""complex"">1 = Most Complex<br><br></div><div class=""complex"">Remember to use the <strong><em>entire range</em></strong> of the slider to make your ratings.<br></div><div class=""complex"">Please <strong><em>take your time</em></strong> and carefully consider each rating you make.<br><br></div><div class=""complex"">The study has five sections and will take about 45 minutes to complete.<br><br></div>","0","",""
"","","","","","call-function","6","369764","0.0-6.0","1920x1080","","","","","","",""
"","","","","","animation","7","391212","0.0-7.0","1920x1080","","21445","84","img/117/4/0.66667/bw/001.png","","","complex"
"","","","","","animation","8","399267","0.0-8.0","1920x1080","","8053.9000000003725","81.08","img/314/3.5/1.5/bw/001.png","","","complex"
"","","","","","animation","9","428804","0.0-9.0","1920x1080","","29535.200000001118","56","img/314/2.5/0.5/bw/001.png","","","complex"
"","","","","","animation","10","453076","0.0-10.0","1920x1080","","24271.200000001118","17.86","img/314/5.5/1.5/bw/001.png","","","complex"
"","","","","","animation","11","468996","0.0-11.0","1920x1080","","15919.10000000149","73.81","img/117/4.5/0.66667/bw/001.png","","","complex"
"","","","","","animation","12","476388","0.0-12.0","1920x1080","","7390.699999999255","73.94","img/314/4/2/bw/001.png","","","complex"
"","","","","","animation","13","486338","0.0-13.0","1920x1080","","9950.900000000373","77.91","img/238/4.5/0.5/bw/001.png","","","complex"
"","","","","","animation","14","492250","0.0-14.0","1920x1080","","5910.89999999851","78.70","img/314/4/0.5/bw/001.png","","","complex"
"","","","","","animation","15","498378","0.0-15.0","1920x1080","","6127.299999998882","66.93","img/117/3.5/1.5/bw/001.png","","","complex"
"","","","","","animation","16","505874","0.0-16.0","1920x1080","","7495.299999998882","54.63","img/314/2.5/1/bw/001.png","","","complex"
"","","","","","animation","17","531786","0.0-17.0","1920x1080","","25910.900000000373","49.07","img/238/4.5/2/bw/001.png","","","complex"
"","","","","","animation","18","551212","0.0-18.0","1920x1080","","19423.099999999627","53.44","img/117/4.5/1.5/bw/001.png","","","complex"
"","","","","","animation","19","566076","0.0-19.0","1920x1080","","14863","50.00","img/314/3.5/1/bw/001.png","","","complex"
"","","","","","animation","20","580524","0.0-20.0","1920x1080","","14447.199999999255","28.17","img/314/2.5/0.66667/bw/001.png","","","complex"
"","","","","","animation","21","594100","0.0-21.0","1920x1080","","13574.700000001118","35.19","img/117/4/2/bw/001.png","","","complex"
"","","","","","animation","22","599165","0.0-22.0","1920x1080","","5064.200000001118","4.63","img/117/5.5/1/bw/001.png","","","complex"
"","","","","","animation","23","608283","0.0-23.0","1920x1080","","9117.900000000373","5.03","img/314/5.5/2/bw/001.png","","","complex"
"","","","","","animation","24","614964","0.0-24.0","1920x1080","","6680.700000001118","60.19","img/117/3.5/0.66667/bw/001.png","","","complex"
"","","","","","animation","25","624731","0.0-25.0","1920x1080","","9766.200000001118","62.17","img/238/3.5/1/bw/001.png","","","complex"
"","","","","","animation","26","638555","0.0-26.0","1920x1080","","13822.900000000373","45.50","img/238/2.5/0.66667/bw/001.png","","","complex"
"","","","","","animation","27","644066","0.0-27.0","1920x1080","","5510.5999999996275","44.71","img/117/2.5/0.66667/bw/001.png","","","complex"
"","","","","","animation","28","653411","0.0-28.0","1920x1080","","9343.599999999627","79.89","img/238/3.5/0.5/bw/001.png","","","complex"
"","","","","","animation","29","667279","0.0-29.0","1920x1080","","13870.599999999627","39.81","img/238/2.5/1/bw/001.png","","","complex"
"","","","","","animation","30","676256","0.0-30.0","1920x1080","","8975.5","39.68","img/117/2.5/1/bw/001.png","","","complex"
"","","","","","animation","31","691664","0.0-31.0","1920x1080","","15406.800000000745","49.60","img/238/5.5/1.5/bw/001.png","","","complex"
"","","","","","animation","32","698799","0.0-32.0","1920x1080","","7135.10000000149","70.24","img/238/4/1/bw/001.png","","","complex"
"","","","","","animation","33","706945","0.0-33.0","1920x1080","","8144.39999999851","79.63","img/314/4/1.5/bw/001.png","","","complex"
"","","","","","animation","34","716656","0.0-34.0","1920x1080","","9710.099999999627","30.56","img/117/2.5/2/bw/001.png","","","complex"
"","","","","","animation","35","734299","0.0-35.0","1920x1080","","17638.599999999627","39.81","img/238/5.5/1/bw/001.png","","","complex"
"","","","","","animation","36","751388","0.0-36.0","1920x1080","","17087.599999999627","19.58","img/314/2.5/1.5/bw/001.png","","","complex"
"","","","","","animation","37","763251","0.0-37.0","1920x1080","","11863","65.08","img/117/4/0.5/bw/001.png","","","complex"
"","","","","","animation","38","786067","0.0-38.0","1920x1080","","22815.099999999627","9.79","img/117/2.5/1.5/bw/001.png","","","complex"
"","","","","","animation","39","791875","0.0-39.0","1920x1080","","5807.199999999255","9.52","img/238/2.5/1.5/bw/001.png","","","complex"
"","","","","","animation","40","803123","0.0-40.0","1920x1080","","11247.299999998882","55.42","img/238/2.5/0.5/bw/001.png","","","complex"
"","","","","","animation","41","811275","0.0-41.0","1920x1080","","8150.9000000003725","92.46","img/314/3.5/0.5/bw/001.png","","","complex"
"","","","","","animation","42","825211","0.0-42.0","1920x1080","","13935.60000000149","30.29","img/314/5.5/0.66667/bw/001.png","","","complex"
"","","","","","animation","43","832555","0.0-43.0","1920x1080","","7342.799999998882","49.87","img/117/2.5/0.5/bw/001.png","","","complex"
"","","","","","animation","44","837867","0.0-44.0","1920x1080","","5310.300000000745","60.45","img/314/4/0.66667/bw/001.png","","","complex"
"","","","","","animation","45","846947","0.0-45.0","1920x1080","","9080.60000000149","24.60","img/238/5.5/0.5/bw/001.png","","","complex"
"","","","","","animation","46","855513","0.0-46.0","1920x1080","","8565.5","36.90","img/238/3.5/0.66667/bw/001.png","","","complex"
"","","","","","animation","47","864969","0.0-47.0","1920x1080","","9455.5","39.81","img/238/4/0.5/bw/001.png","","","complex"
"","","","","","animation","48","870906","0.0-48.0","1920x1080","","5935.199999999255","19.97","img/117/4.5/2/bw/001.png","","","complex"
"","","","","","animation","49","886722","0.0-49.0","1920x1080","","15815","76","img/117/3.5/0.5/bw/001.png","","","complex"
"","","","","","animation","50","902538","0.0-50.0","1920x1080","","15814.699999999255","31","img/117/5.5/0.5/bw/001.png","","","complex"
"","","","","","animation","51","912688","0.0-51.0","1920x1080","","10150.799999998882","32.67","img/238/3.5/1.5/bw/001.png","","","complex"
"","","","","","animation","52","921593","0.0-52.0","1920x1080","","8904.700000001118","42.99","img/238/4/0.66667/bw/001.png","","","complex"
"","","","","","animation","53","938088","0.0-53.0","1920x1080","","16493.5","35.05","img/117/4/1.5/bw/001.png","","","complex"
"","","","","","animation","54","955448","0.0-54.0","1920x1080","","17358.700000001118","60.85","img/238/4.5/0.66667/bw/001.png","","","complex"
"","","","","","animation","55","963056","0.0-55.0","1920x1080","","7607.39999999851","58.07","img/117/4.5/0.5/bw/001.png","","","complex"
"","","","","","animation","56","975188","0.0-56.0","1920x1080","","12136.900000000373","58.47","img/314/3.5/2/bw/001.png","","","complex"
"","","","","","animation","57","987474","0.0-57.0","1920x1080","","12285.300000000745","69.71","img/117/4.5/1/bw/001.png","","","complex"
"","","","","","animation","58","998594","0.0-58.0","1920x1080","","11118.800000000745","18.25","img/238/5.5/2/bw/001.png","","","complex"
"","","","","","animation","59","1010989","0.0-59.0","1920x1080","","12393.199999999255","60.05","img/314/4.5/0.5/bw/001.png","","","complex"
"","","","","","animation","60","1033537","0.0-60.0","1920x1080","","22540.299999998882","54.76","img/238/4/2/bw/001.png","","","complex"
"","","","","","animation","61","1048363","0.0-61.0","1920x1080","","14824.699999999255","0.40","img/314/2.5/2/bw/001.png","","","complex"
"","","","","","animation","62","1069953","0.0-62.0","1920x1080","","21589.400000000373","54.76","img/117/4/1/bw/001.png","","","complex"
"","","","","","animation","63","1077946","0.0-63.0","1920x1080","","7989.5","18.25","img/117/5.5/1.5/bw/001.png","","","complex"
"","","","","","animation","64","1091552","0.0-64.0","1920x1080","","13606.10000000149","20.90","img/314/5.5/0.5/bw/001.png","","","complex"
"","","","","","animation","65","1102584","0.0-65.0","1920x1080","","11030.5","17.86","img/314/5.5/1/bw/001.png","","","complex"
"","","","","","animation","66","1115161","0.0-66.0","1920x1080","","12576.200000001118","30.03","img/314/4.5/1/bw/001.png","","","complex"
"","","","","","animation","67","1135536","0.0-67.0","1920x1080","","20373.700000001118","36.11","img/238/3.5/2/bw/001.png","","","complex"
"","","","","","animation","68","1155708","0.0-68.0","1920x1080","","20174.300000000745","43","img/238/4/1.5/bw/001.png","","","complex"
"","","","","","animation","69","1175574","0.0-69.0","1920x1080","","19865.099999999627","37.57","img/314/4.5/1.5/bw/001.png","","","complex"
"","","","","","animation","70","1195260","0.0-70.0","1920x1080","","19684.599999999627","5.42","img/238/2.5/2/bw/001.png","","","complex"
"","","","","","animation","71","1203564","0.0-71.0","1920x1080","","8303","75.13","img/314/3.5/0.66667/bw/001.png","","","complex"
"","","","","","animation","72","1208665","0.0-72.0","1920x1080","","5094.10000000149","32.28","img/117/5.5/0.66667/bw/001.png","","","complex"
"","","","","","animation","73","1231979","0.0-73.0","1920x1080","","23313.5","75.00","img/238/4.5/1/bw/001.png","","","complex"
"","","","","","animation","74","1243649","0.0-74.0","1920x1080","","11668.599999999627","20.24","img/117/3.5/2/bw/001.png","","","complex"
"","","","","","animation","75","1255241","0.0-75.0","1920x1080","","11591.599999999627","14.81","img/117/5.5/2/bw/001.png","","","complex"
"","","","","","animation","76","1265889","0.0-76.0","1920x1080","","10646.800000000745","14.55","img/238/5.5/0.66667/bw/001.png","","","complex"
"","","","","","animation","77","1281832","0.0-77.0","1920x1080","","15941.5","20.24","img/117/3.5/1/bw/001.png","","","complex"
"","","","","","animation","78","1295864","0.0-78.0","1920x1080","","14031.099999999627","7.41","img/314/4.5/2/bw/001.png","","","complex"
"","","","","","animation","79","1307128","0.0-79.0","1920x1080","","11263.700000001118","6.48","img/314/4/1/bw/001.png","","","complex"
"","","","","","animation","80","1318416","0.0-80.0","1920x1080","","11285.599999999627","9.52","img/238/4.5/1.5/bw/001.png","","","complex"
"","","","","","animation","81","1328045","0.0-81.0","1920x1080","","9629.10000000149","12.04","img/314/4.5/0.66667/bw/001.png","","","complex"
"","","","","","html-button-response","82","1348478","0.0-82.0","1920x1080","","20431","","<div class=""intro"">You are about to view a new series of animations.<br><br></div><div class=""intro"">You will evaluate them based on a different descriptor.<br><br></div><div class=""intro"">Move the slider to indicate how <strong style=""text-transform:capitalize"">INTERESTING</strong> you find each animation.<br><br></div><div class=""intro"">0 = Least Interesting<br></div><div class=""intro"">1 = Most Interesting<br><br></div><div class=""intro"">Remember to use the <strong><em>entire range</em></strong> of the slider to make your ratings.<br></div><div class=""intro"">Please <strong><em>take your time</em></strong> and carefully consider each rating you make.<br><br></div>","0","",""
"","","","","","call-function","83","1348479","0.0-83.0","1920x1080","","","","","","",""
"","","","","","animation","84","1366197","0.0-84.0","1920x1080","","17717.699999999255","9.66","img/117/3.5/2/bw/001.png","","","interesting"
"","","","","","animation","85","1390148","0.0-85.0","1920x1080","","23943.699999999255","24.87","img/314/5.5/1.5/bw/001.png","","","interesting"
"","","","","","animation","86","1408099","0.0-86.0","1920x1080","","17950.099999999627","70.37","img/314/4.5/0.66667/bw/001.png","","","interesting"
"","","","","","animation","87","1420707","0.0-87.0","1920x1080","","12606.599999999627","79.89","img/238/4.5/0.5/bw/001.png","","","interesting"
"","","","","","animation","88","1434451","0.0-88.0","1920x1080","","13742.099999999627","32.94","img/117/3.5/0.5/bw/001.png","","","interesting"
"","","","","","animation","89","1448179","0.0-89.0","1920x1080","","13729.199999999255","23.02","img/117/4/0.66667/bw/001.png","","","interesting"
"","","","","","animation","90","1466354","0.0-90.0","1920x1080","","18173.099999999627","35","img/238/5.5/0.66667/bw/001.png","","","interesting"
"","","","","","animation","91","1489954","0.0-91.0","1920x1080","","23598.60000000149","76","img/238/3.5/0.66667/bw/001.png","","","interesting"
"","","","","","animation","92","1504645","0.0-92.0","1920x1080","","14690.099999999627","46","img/117/4.5/1.5/bw/001.png","","","interesting"
"","","","","","animation","93","1515128","0.0-93.0","1920x1080","","10483.199999999255","14.95","img/238/2.5/0.66667/bw/001.png","","","interesting"
"","","","","","animation","94","1530816","0.0-94.0","1920x1080","","15685.900000000373","22","img/314/4/2/bw/001.png","","","interesting"
"","","","","","animation","95","1546488","0.0-95.0","1920x1080","","15671.099999999627","63.23","img/238/3.5/0.5/bw/001.png","","","interesting"
"","","","","","animation","96","1558336","0.0-96.0","1920x1080","","11846","5.42","img/117/2.5/2/bw/001.png","","","interesting"
"","","","","","animation","97","1579739","0.0-97.0","1920x1080","","21396.400000000373","17.86","img/117/5.5/2/bw/001.png","","","interesting"
"","","","","","animation","98","1600298","0.0-98.0","1920x1080","","20557.900000000373","75.13","img/238/4/0.66667/bw/001.png","","","interesting"
"","","","","","animation","99","1617922","0.0-99.0","1920x1080","","17623.300000000745","50.40","img/314/4.5/1.5/bw/001.png","","","interesting"
"","","","","","animation","100","1629522","0.0-100.0","1920x1080","","11599.099999999627","64.95","img/238/3.5/2/bw/001.png","","","interesting"
"","","","","","animation","101","1644754","0.0-101.0","1920x1080","","15230.800000000745","2","img/314/2.5/2/bw/001.png","","","interesting"
"","","","","","animation","102","1653874","0.0-102.0","1920x1080","","9119.200000001118","7.94","img/117/2.5/0.5/bw/001.png","","","interesting"
"","","","","","animation","103","1670690","0.0-103.0","1920x1080","","16814.800000000745","35.05","img/117/4/2/bw/001.png","","","interesting"
"","","","","","animation","104","1683278","0.0-104.0","1920x1080","","12586.599999999627","0.53","img/238/2.5/2/bw/001.png","","","interesting"
"","","","","","animation","105","1698800","0.0-105.0","1920x1080","","15522.900000000373","27.65","img/314/3.5/2/bw/001.png","","","interesting"
"","","","","","animation","106","1709216","0.0-106.0","1920x1080","","10414.900000000373","45.11","img/314/4/0.5/bw/001.png","","","interesting"
"","","","","","animation","107","1721048","0.0-107.0","1920x1080","","11830.5","6.75","img/314/2.5/1/bw/001.png","","","interesting"
"","","","","","animation","108","1737152","0.0-108.0","1920x1080","","16103.10000000149","69.84","img/314/3.5/0.66667/bw/001.png","","","interesting"
"","","","","","animation","109","1746798","0.0-109.0","1920x1080","","9646.900000000373","8.47","img/238/2.5/0.5/bw/001.png","","","interesting"
"","","","","","animation","110","1759782","0.0-110.0","1920x1080","","12982.900000000373","0","img/314/2.5/1.5/bw/001.png","","","interesting"
"","","","","","animation","111","1773278","0.0-111.0","1920x1080","","13493.199999999255","52","img/314/4/1/bw/001.png","","","interesting"
"","","","","","animation","112","1785526","0.0-112.0","1920x1080","","12246.099999999627","17","img/314/5.5/2/bw/001.png","","","interesting"
"","","","","","animation","113","1795326","0.0-113.0","1920x1080","","9797.5","27.51","img/117/4.5/0.66667/bw/001.png","","","interesting"
"","","","","","animation","114","1813146","0.0-114.0","1920x1080","","17815","7","img/238/5.5/1.5/bw/001.png","","","interesting"
"","","","","","animation","115","1824082","0.0-115.0","1920x1080","","10933.900000000373","9.79","img/238/5.5/2/bw/001.png","","","interesting"
"","","","","","animation","116","1830284","0.0-116.0","1920x1080","","6200.60000000149","0","img/117/2.5/1.5/bw/001.png","","","interesting"
"","","","","","animation","117","1843354","0.0-117.0","1920x1080","","13039.300000000745","59.66","img/314/4.5/1/bw/001.png","","","interesting"
"","","","","","animation","118","1854494","0.0-118.0","1920x1080","","11138.599999999627","76.59","img/117/4/1/bw/001.png","","","interesting"
"","","","","","animation","119","1867505","0.0-119.0","1920x1080","","13010.5","35","img/314/5.5/0.5/bw/001.png","","","interesting"
"","","","","","animation","120","1881417","0.0-120.0","1920x1080","","13909.5","90.21","img/314/4.5/0.5/bw/001.png","","","interesting"
"","","","","","animation","121","1887478","0.0-121.0","1920x1080","","6059.60000000149","79.76","img/238/4/1.5/bw/001.png","","","interesting"
"","","","","","animation","122","1901480","0.0-122.0","1920x1080","","14001.199999999255","45","img/117/3.5/1.5/bw/001.png","","","interesting"
"","","","","","animation","123","1909928","0.0-123.0","1920x1080","","8446.599999999627","50.26","img/314/3.5/1.5/bw/001.png","","","interesting"
"","","","","","animation","124","1924064","0.0-124.0","1920x1080","","14134.5","55.29","img/117/4.5/2/bw/001.png","","","interesting"
"","","","","","animation","125","1938234","0.0-125.0","1920x1080","","14167","65.87","img/117/4/1.5/bw/001.png","","","interesting"
"","","","","","animation","126","1965478","0.0-126.0","1920x1080","","27242.5","85.45","img/117/4.5/1/bw/001.png","","","interesting"
"","","","","","animation","127","1983298","0.0-127.0","1920x1080","","17818","88.10","img/238/4/1/bw/001.png","","","interesting"
"","","","","","animation","128","1992994","0.0-128.0","1920x1080","","9697.199999999255","5.16","img/314/2.5/0.66667/bw/001.png","","","interesting"
"","","","","","animation","129","2004920","0.0-129.0","1920x1080","","11924.5","29.63","img/238/5.5/0.5/bw/001.png","","","interesting"
"","","","","","animation","130","2020892","0.0-130.0","1920x1080","","15969.800000000745","39.55","img/314/4.5/2/bw/001.png","","","interesting"
"","","","","","animation","131","2025692","0.0-131.0","1920x1080","","4799.0999999996275","3.17","img/117/2.5/1/bw/001.png","","","interesting"
"","","","","","animation","132","2038409","0.0-132.0","1920x1080","","12716.400000000373","76.46","img/238/4.5/0.66667/bw/001.png","","","interesting"
"","","","","","animation","133","2048111","0.0-133.0","1920x1080","","9701.699999999255","60.19","img/314/3.5/0.5/bw/001.png","","","interesting"
"","","","","","animation","134","2056975","0.0-134.0","1920x1080","","8862.700000001118","79.76","img/238/3.5/1/bw/001.png","","","interesting"
"","","","","","animation","135","2074015","0.0-135.0","1920x1080","","17039.5","90.34","img/117/4.5/0.5/bw/001.png","","","interesting"
"","","","","","animation","136","2085895","0.0-136.0","1920x1080","","11878.700000001118","82.54","img/117/3.5/0.66667/bw/001.png","","","interesting"
"","","","","","animation","137","2096247","0.0-137.0","1920x1080","","10351.099999999627","34.92","img/238/4.5/1.5/bw/001.png","","","interesting"
"","","","","","animation","138","2111111","0.0-138.0","1920x1080","","14859.300000000745","24","img/314/5.5/1/bw/001.png","","","interesting"
"","","","","","animation","139","2123787","0.0-139.0","1920x1080","","12674.400000000373","40.61","img/117/3.5/1/bw/001.png","","","interesting"
"","","","","","animation","140","2136444","0.0-140.0","1920x1080","","12656.200000001118","34.52","img/117/5.5/1.5/bw/001.png","","","interesting"
"","","","","","animation","141","2146394","0.0-141.0","1920x1080","","9948.5","24.60","img/314/5.5/0.66667/bw/001.png","","","interesting"
"","","","","","animation","142","2158362","0.0-142.0","1920x1080","","11966.400000000373","40","img/117/5.5/0.5/bw/001.png","","","interesting"
"","","","","","animation","143","2169394","0.0-143.0","1920x1080","","11031","39.68","img/117/5.5/0.66667/bw/001.png","","","interesting"
"","","","","","animation","144","2183194","0.0-144.0","1920x1080","","13799","34.52","img/238/5.5/1/bw/001.png","","","interesting"
"","","","","","animation","145","2189138","0.0-145.0","1920x1080","","5943.0999999996275","2.78","img/314/2.5/0.5/bw/001.png","","","interesting"
"","","","","","animation","146","2197714","0.0-146.0","1920x1080","","8574","75.26","img/238/4/0.5/bw/001.png","","","interesting"
"","","","","","animation","147","2211050","0.0-147.0","1920x1080","","13334.900000000373","84.79","img/314/4/0.66667/bw/001.png","","","interesting"
"","","","","","animation","148","2224434","0.0-148.0","1920x1080","","13383","42.06","img/117/5.5/1/bw/001.png","","","interesting"
"","","","","","animation","149","2234282","0.0-149.0","1920x1080","","9846.599999999627","0.53","img/238/2.5/1/bw/001.png","","","interesting"
"","","","","","animation","150","2244929","0.0-150.0","1920x1080","","10646.400000000373","0","img/238/2.5/1.5/bw/001.png","","","interesting"
"","","","","","animation","151","2260260","0.0-151.0","1920x1080","","15328.700000001118","56.48","img/238/4/2/bw/001.png","","","interesting"
"","","","","","animation","152","2269561","0.0-152.0","1920x1080","","9300.700000001118","65.34","img/238/3.5/1.5/bw/001.png","","","interesting"
"","","","","","animation","153","2281145","0.0-153.0","1920x1080","","11582.800000000745","73.15","img/314/3.5/1/bw/001.png","","","interesting"
"","","","","","animation","154","2290501","0.0-154.0","1920x1080","","9351.300000000745","69.84","img/238/4.5/1/bw/001.png","","","interesting"
"","","","","","animation","155","2308837","0.0-155.0","1920x1080","","18334.700000001118","63.76","img/314/4/1.5/bw/001.png","","","interesting"
"","","","","","animation","156","2318429","0.0-156.0","1920x1080","","9591.599999999627","0","img/117/2.5/0.66667/bw/001.png","","","interesting"
"","","","","","animation","157","2328741","0.0-157.0","1920x1080","","10310.300000000745","85.19","img/117/4/0.5/bw/001.png","","","interesting"
"","","","","","animation","158","2359356","0.0-158.0","1920x1080","","30614.5","39.68","img/238/4.5/2/bw/001.png","","","interesting"
"","","","","","html-button-response","159","2377957","0.0-159.0","1920x1080","","18598.900000000373","","<div class=""intro"">You are about to view a new series of animations.<br><br></div><div class=""intro"">You will evaluate them based on a different descriptor.<br><br></div><div class=""intro"">Move the slider to indicate how <strong style=""text-transform:capitalize"">RELAXING</strong> you find each animation.<br><br></div><div class=""intro"">0 = Least Relaxing<br></div><div class=""intro"">1 = Most Relaxing<br><br></div><div class=""intro"">Remember to use the <strong><em>entire range</em></strong> of the slider to make your ratings.<br></div><div class=""intro"">Please <strong><em>take your time</em></strong> and carefully consider each rating you make.<br><br></div>","0","",""
"","","","","","call-function","160","2377957","0.0-160.0","1920x1080","","","","","","",""
"","","","","","animation","161","2383804","0.0-161.0","1920x1080","","5846.699999999255","0.13","img/117/2.5/0.5/bw/001.png","","","relaxing"
"","","","","","animation","162","2398588","0.0-162.0","1920x1080","","14782.700000001118","14.95","img/238/4/2/bw/001.png","","","relaxing"
"","","","","","animation","163","2413711","0.0-163.0","1920x1080","","15123.39999999851","10.19","img/117/4/1/bw/001.png","","","relaxing"
"","","","","","animation","164","2420570","0.0-164.0","1920x1080","","6857.9000000003725","2.51","img/238/4/0.5/bw/001.png","","","relaxing"
"","","","","","animation","165","2426443","0.0-165.0","1920x1080","","5872.4000000003725","0.13","img/238/2.5/0.5/bw/001.png","","","relaxing"
"","","","","","animation","166","2437761","0.0-166.0","1920x1080","","11316.900000000373","25.13","img/117/4/2/bw/001.png","","","relaxing"
"","","","","","animation","167","2450177","0.0-167.0","1920x1080","","12414.800000000745","85.19","img/117/5.5/2/bw/001.png","","","relaxing"
"","","","","","animation","168","2460777","0.0-168.0","1920x1080","","10598.5","40.34","img/314/5.5/0.66667/bw/001.png","","","relaxing"
"","","","","","animation","169","2473630","0.0-169.0","1920x1080","","12846.400000000373","25.40","img/238/3.5/2/bw/001.png","","","relaxing"
"","","","","","animation","170","2480812","0.0-170.0","1920x1080","","7181.5","6.61","img/238/2.5/2/bw/001.png","","","relaxing"
"","","","","","animation","171","2504420","0.0-171.0","1920x1080","","23607","85","img/117/5.5/1.5/bw/001.png","","","relaxing"
"","","","","","animation","172","2518268","0.0-172.0","1920x1080","","13846.700000001118","50.26","img/117/5.5/0.66667/bw/001.png","","","relaxing"
"","","","","","animation","173","2527355","0.0-173.0","1920x1080","","9087","15.21","img/117/3.5/0.66667/bw/001.png","","","relaxing"
"","","","","","animation","174","2535194","0.0-174.0","1920x1080","","7838","15","img/314/3.5/0.66667/bw/001.png","","","relaxing"
"","","","","","animation","175","2542931","0.0-175.0","1920x1080","","7735.199999999255","4.76","img/238/2.5/1.5/bw/001.png","","","relaxing"
"","","","","","animation","176","2547143","0.0-176.0","1920x1080","","4211.199999999255","1.32","img/117/2.5/0.66667/bw/001.png","","","relaxing"
"","","","","","animation","177","2556067","0.0-177.0","1920x1080","","8922.599999999627","12.70","img/314/4/0.5/bw/001.png","","","relaxing"
"","","","","","animation","178","2567115","0.0-178.0","1920x1080","","11046.5","30.29","img/314/3.5/2/bw/001.png","","","relaxing"
"","","","","","animation","179","2576559","0.0-179.0","1920x1080","","9443.800000000745","75.40","img/314/5.5/1/bw/001.png","","","relaxing"
"","","","","","animation","180","2591036","0.0-180.0","1920x1080","","14474.099999999627","91","img/314/5.5/2/bw/001.png","","","relaxing"
"","","","","","animation","181","2599962","0.0-181.0","1920x1080","","8924.099999999627","34.39","img/117/3.5/1.5/bw/001.png","","","relaxing"
"","","","","","animation","182","2607780","0.0-182.0","1920x1080","","7816.9000000003725","4","img/314/2.5/1/bw/001.png","","","relaxing"
"","","","","","animation","183","2613262","0.0-183.0","1920x1080","","5480.5","3.84","img/238/2.5/1/bw/001.png","","","relaxing"
"","","","","","animation","184","2620996","0.0-184.0","1920x1080","","7733","3.84","img/117/2.5/1.5/bw/001.png","","","relaxing"
"","","","","","animation","185","2629412","0.0-185.0","1920x1080","","8413.699999999255","45.24","img/314/4.5/1.5/bw/001.png","","","relaxing"
"","","","","","animation","186","2638712","0.0-186.0","1920x1080","","9299.400000000373","40.34","img/117/4.5/1/bw/001.png","","","relaxing"
"","","","","","animation","187","2648382","0.0-187.0","1920x1080","","9674.900000000373","59.79","img/238/5.5/0.5/bw/001.png","","","relaxing"
"","","","","","animation","188","2656678","0.0-188.0","1920x1080","","8294.699999999255","31.88","img/238/4/0.66667/bw/001.png","","","relaxing"
"","","","","","animation","189","2663423","0.0-189.0","1920x1080","","6743.5999999996275","4.89","img/238/3.5/0.5/bw/001.png","","","relaxing"
"","","","","","animation","190","2681582","0.0-190.0","1920x1080","","18158.099999999627","94.97","img/238/5.5/1.5/bw/001.png","","","relaxing"
"","","","","","animation","191","2685710","0.0-191.0","1920x1080","","4126.5999999996275","4.89","img/117/3.5/0.5/bw/001.png","","","relaxing"
"","","","","","animation","192","2692758","0.0-192.0","1920x1080","","7046.4000000003725","30.29","img/117/4.5/1.5/bw/001.png","","","relaxing"
"","","","","","animation","193","2706988","0.0-193.0","1920x1080","","14223.199999999255","51","img/238/5.5/0.66667/bw/001.png","","","relaxing"
"","","","","","animation","194","2713604","0.0-194.0","1920x1080","","6614.5","30.56","img/314/4/1/bw/001.png","","","relaxing"
"","","","","","animation","195","2728252","0.0-195.0","1920x1080","","14646.599999999627","73","img/117/5.5/1/bw/001.png","","","relaxing"
"","","","","","animation","196","2734964","0.0-196.0","1920x1080","","6710.39999999851","34.66","img/117/4.5/0.5/bw/001.png","","","relaxing"
"","","","","","animation","197","2740711","0.0-197.0","1920x1080","","5746.299999998882","0.40","img/314/2.5/0.5/bw/001.png","","","relaxing"
"","","","","","animation","198","2745328","0.0-198.0","1920x1080","","4615.9000000003725","5.29","img/314/3.5/0.5/bw/001.png","","","relaxing"
"","","","","","animation","199","2751204","0.0-199.0","1920x1080","","5874.0999999996275","10.32","img/238/4.5/0.5/bw/001.png","","","relaxing"
"","","","","","animation","200","2757780","0.0-200.0","1920x1080","","6573.799999998882","7.67","img/117/2.5/1/bw/001.png","","","relaxing"
"","","","","","animation","201","2770376","0.0-201.0","1920x1080","","12596.699999999255","9","img/314/4.5/0.5/bw/001.png","","","relaxing"
"","","","","","animation","202","2777276","0.0-202.0","1920x1080","","6898.800000000745","8.20","img/238/3.5/0.66667/bw/001.png","","","relaxing"
"","","","","","animation","203","2783730","0.0-203.0","1920x1080","","6452.800000000745","12.70","img/314/3.5/1.5/bw/001.png","","","relaxing"
"","","","","","animation","204","2795346","0.0-204.0","1920x1080","","11614.5","28.17","img/314/4.5/1/bw/001.png","","","relaxing"
"","","","","","animation","205","2800176","0.0-205.0","1920x1080","","4828.89999999851","15.08","img/314/4.5/0.66667/bw/001.png","","","relaxing"
"","","","","","animation","206","2809682","0.0-206.0","1920x1080","","9505.099999999627","19.97","img/238/3.5/1.5/bw/001.png","","","relaxing"
"","","","","","animation","207","2821482","0.0-207.0","1920x1080","","11798.699999999255","59.66","img/238/4.5/2/bw/001.png","","","relaxing"
"","","","","","animation","208","2825978","0.0-208.0","1920x1080","","4494.199999999255","0.40","img/238/2.5/0.66667/bw/001.png","","","relaxing"
"","","","","","animation","209","2830988","0.0-209.0","1920x1080","","5007.0999999996275","0.13","img/314/2.5/0.66667/bw/001.png","","","relaxing"
"","","","","","animation","210","2840245","0.0-210.0","1920x1080","","9255.199999999255","7.54","img/117/4/0.5/bw/001.png","","","relaxing"
"","","","","","animation","211","2846012","0.0-211.0","1920x1080","","5765.799999998882","40.34","img/117/5.5/0.5/bw/001.png","","","relaxing"
"","","","","","animation","212","2854112","0.0-212.0","1920x1080","","8098.299999998882","5","img/314/2.5/2/bw/001.png","","","relaxing"
"","","","","","animation","213","2859404","0.0-213.0","1920x1080","","5289.200000001118","4.10","img/117/2.5/2/bw/001.png","","","relaxing"
"","","","","","animation","214","2868452","0.0-214.0","1920x1080","","9046.599999999627","45.50","img/238/4.5/1/bw/001.png","","","relaxing"
"","","","","","animation","215","2888876","0.0-215.0","1920x1080","","20424.5","58.33","img/117/3.5/2/bw/001.png","","","relaxing"
"","","","","","animation","216","2895066","0.0-216.0","1920x1080","","6189.0999999996275","45.24","img/314/3.5/1/bw/001.png","","","relaxing"
"","","","","","animation","217","2903243","0.0-217.0","1920x1080","","8175","65.48","img/117/4.5/2/bw/001.png","","","relaxing"
"","","","","","animation","218","2913698","0.0-218.0","1920x1080","","10453.699999999255","85.32","img/314/5.5/1.5/bw/001.png","","","relaxing"
"","","","","","animation","219","2924543","0.0-219.0","1920x1080","","10843.800000000745","47.75","img/314/5.5/0.5/bw/001.png","","","relaxing"
"","","","","","animation","220","2930450","0.0-220.0","1920x1080","","5905.699999999255","33.33","img/314/4/1.5/bw/001.png","","","relaxing"
"","","","","","animation","221","2939482","0.0-221.0","1920x1080","","9030.800000000745","33.07","img/238/4.5/1.5/bw/001.png","","","relaxing"
"","","","","","animation","222","2945626","0.0-222.0","1920x1080","","6142.4000000003725","18.78","img/238/3.5/1/bw/001.png","","","relaxing"
"","","","","","animation","223","2959930","0.0-223.0","1920x1080","","14303.199999999255","37.57","img/117/4/1.5/bw/001.png","","","relaxing"
"","","","","","animation","224","2964842","0.0-224.0","1920x1080","","4911.4000000003725","16.80","img/117/3.5/1/bw/001.png","","","relaxing"
"","","","","","animation","225","2971042","0.0-225.0","1920x1080","","6198.299999998882","40.21","img/238/4.5/0.66667/bw/001.png","","","relaxing"
"","","","","","animation","226","2988978","0.0-226.0","1920x1080","","17934.300000000745","90.08","img/238/5.5/2/bw/001.png","","","relaxing"
"","","","","","animation","227","2996209","0.0-227.0","1920x1080","","7230.5999999996275","30.03","img/238/4/1.5/bw/001.png","","","relaxing"
"","","","","","animation","228","3003418","0.0-228.0","1920x1080","","7206.199999999255","40.08","img/314/4.5/2/bw/001.png","","","relaxing"
"","","","","","animation","229","3009963","0.0-229.0","1920x1080","","6542.0999999996275","20.24","img/117/4.5/0.66667/bw/001.png","","","relaxing"
"","","","","","animation","230","3019328","0.0-230.0","1920x1080","","9363.199999999255","29.76","img/314/4/2/bw/001.png","","","relaxing"
"","","","","","animation","231","3037348","0.0-231.0","1920x1080","","18018.400000000373","86.38","img/238/5.5/1/bw/001.png","","","relaxing"
"","","","","","animation","232","3047011","0.0-232.0","1920x1080","","9661.5","28","img/238/4/1/bw/001.png","","","relaxing"
"","","","","","animation","233","3056044","0.0-233.0","1920x1080","","9031.099999999627","13.89","img/314/4/0.66667/bw/001.png","","","relaxing"
"","","","","","animation","234","3064228","0.0-234.0","1920x1080","","8183","3","img/314/2.5/1.5/bw/001.png","","","relaxing"
"","","","","","animation","235","3070930","0.0-235.0","1920x1080","","6701.5","15.61","img/117/4/0.66667/bw/001.png","","","relaxing"
"","","","","","html-button-response","236","3091194","0.0-236.0","1920x1080","","20262.60000000149","","<div class=""intro"">You are about to view a new series of animations.<br><br></div><div class=""intro"">You will evaluate them based on a different descriptor.<br><br></div><div class=""intro"">Move the slider to indicate how <strong style=""text-transform:capitalize"">NATURAL</strong> you find each animation.<br><br></div><div class=""intro"">0 = Least Natural<br></div><div class=""intro"">1 = Most Natural<br><br></div><div class=""intro"">Remember to use the <strong><em>entire range</em></strong> of the slider to make your ratings.<br></div><div class=""intro"">Please <strong><em>take your time</em></strong> and carefully consider each rating you make.<br><br></div>","0","",""
"","","","","","call-function","237","3091196","0.0-237.0","1920x1080","","","","","","",""
"","","","","","animation","238","3100742","0.0-238.0","1920x1080","","9546","34.79","img/117/3.5/2/bw/001.png","","","natural"
"","","","","","animation","239","3108058","0.0-239.0","1920x1080","","7314.800000000745","45.11","img/314/4.5/2/bw/001.png","","","natural"
"","","","","","animation","240","3116676","0.0-240.0","1920x1080","","8616.199999999255","28.97","img/238/3.5/2/bw/001.png","","","natural"
"","","","","","animation","241","3128395","0.0-241.0","1920x1080","","11716.699999999255","50.13","img/238/4.5/1.5/bw/001.png","","","natural"
"","","","","","animation","242","3134194","0.0-242.0","1920x1080","","5798","15.21","img/238/3.5/0.66667/bw/001.png","","","natural"
"","","","","","animation","243","3141844","0.0-243.0","1920x1080","","7648.200000001118","20.77","img/117/3.5/1/bw/001.png","","","natural"
"","","","","","animation","244","3145744","0.0-244.0","1920x1080","","3898.699999999255","0","img/314/2.5/0.5/bw/001.png","","","natural"
"","","","","","animation","245","3152877","0.0-245.0","1920x1080","","7131.799999998882","65.08","img/238/4.5/2/bw/001.png","","","natural"
"","","","","","animation","246","3156561","0.0-246.0","1920x1080","","3682.4000000003725","2.12","img/238/2.5/1/bw/001.png","","","natural"
"","","","","","animation","247","3162220","0.0-247.0","1920x1080","","5655.4000000003725","1.72","img/117/2.5/1/bw/001.png","","","natural"
"","","","","","animation","248","3174916","0.0-248.0","1920x1080","","12694.39999999851","85.19","img/238/5.5/2/bw/001.png","","","natural"
"","","","","","animation","249","3184500","0.0-249.0","1920x1080","","9582.799999998882","84.79","img/238/5.5/1.5/bw/001.png","","","natural"
"","","","","","animation","250","3187977","0.0-250.0","1920x1080","","3477.2000000011176","15.08","img/314/4/0.66667/bw/001.png","","","natural"
"","","","","","animation","251","3197509","0.0-251.0","1920x1080","","9530","75.53","img/238/5.5/1/bw/001.png","","","natural"
"","","","","","animation","252","3203034","0.0-252.0","1920x1080","","5523.299999998882","19.71","img/238/4/1/bw/001.png","","","natural"
"","","","","","animation","253","3206466","0.0-253.0","1920x1080","","3430.0999999996275","0.40","img/314/2.5/1/bw/001.png","","","natural"
"","","","","","animation","254","3212609","0.0-254.0","1920x1080","","6142.300000000745","51.98","img/117/5.5/0.66667/bw/001.png","","","natural"
"","","","","","animation","255","3218425","0.0-255.0","1920x1080","","5814.5999999996275","14.81","img/238/4/0.5/bw/001.png","","","natural"
"","","","","","animation","256","3221834","0.0-256.0","1920x1080","","3407.0999999996275","0","img/314/2.5/0.66667/bw/001.png","","","natural"
"","","","","","animation","257","3226914","0.0-257.0","1920x1080","","5078.4000000003725","50.00","img/314/4.5/1.5/bw/001.png","","","natural"
"","","","","","animation","258","3231692","0.0-258.0","1920x1080","","4776.799999998882","7.14","img/117/3.5/0.66667/bw/001.png","","","natural"
"","","","","","animation","259","3238725","0.0-259.0","1920x1080","","7031.799999998882","44.84","img/314/4/2/bw/001.png","","","natural"
"","","","","","animation","260","3247867","0.0-260.0","1920x1080","","9139.199999999255","87.83","img/117/5.5/1.5/bw/001.png","","","natural"
"","","","","","animation","261","3255893","0.0-261.0","1920x1080","","8024.300000000745","55.29","img/314/4.5/1/bw/001.png","","","natural"
"","","","","","animation","262","3262315","0.0-262.0","1920x1080","","6420.5","75.13","img/314/5.5/0.66667/bw/001.png","","","natural"
"","","","","","animation","263","3268483","0.0-263.0","1920x1080","","6166.699999999255","10.19","img/117/3.5/0.5/bw/001.png","","","natural"
"","","","","","animation","264","3277883","0.0-264.0","1920x1080","","9398.699999999255","22.09","img/314/4/1/bw/001.png","","","natural"
"","","","","","animation","265","3282411","0.0-265.0","1920x1080","","4526.4000000003725","8.47","img/314/3.5/0.5/bw/001.png","","","natural"
"","","","","","animation","266","3292277","0.0-266.0","1920x1080","","9864.700000001118","17.20","img/314/3.5/1.5/bw/001.png","","","natural"
"","","","","","animation","267","3302147","0.0-267.0","1920x1080","","9868.400000000373","35","img/314/4.5/0.66667/bw/001.png","","","natural"
"","","","","","animation","268","3308411","0.0-268.0","1920x1080","","6262.299999998882","28.44","img/117/4/0.66667/bw/001.png","","","natural"
"","","","","","animation","269","3318899","0.0-269.0","1920x1080","","10487.199999999255","67.86","img/238/5.5/0.5/bw/001.png","","","natural"
"","","","","","animation","270","3326310","0.0-270.0","1920x1080","","7409.5","57.67","img/314/5.5/0.5/bw/001.png","","","natural"
"","","","","","animation","271","3332144","0.0-271.0","1920x1080","","5832.0999999996275","17","img/117/4/0.5/bw/001.png","","","natural"
"","","","","","animation","272","3336011","0.0-272.0","1920x1080","","3865.699999999255","21.83","img/117/4/1/bw/001.png","","","natural"
"","","","","","animation","273","3339699","0.0-273.0","1920x1080","","3686.800000000745","5.29","img/238/3.5/0.5/bw/001.png","","","natural"
"","","","","","animation","274","3348027","0.0-274.0","1920x1080","","8326.599999999627","25.26","img/238/4/2/bw/001.png","","","natural"
"","","","","","animation","275","3355411","0.0-275.0","1920x1080","","7382.699999999255","16.14","img/238/4.5/0.5/bw/001.png","","","natural"
"","","","","","animation","276","3365899","0.0-276.0","1920x1080","","10486.199999999255","76.85","img/117/5.5/2/bw/001.png","","","natural"
"","","","","","animation","277","3371715","0.0-277.0","1920x1080","","5814.299999998882","40.34","img/117/4/1.5/bw/001.png","","","natural"
"","","","","","animation","278","3378460","0.0-278.0","1920x1080","","6743.10000000149","39.81","img/117/4/2/bw/001.png","","","natural"
"","","","","","animation","279","3381531","0.0-279.0","1920x1080","","3069.5","2.51","img/117/2.5/1.5/bw/001.png","","","natural"
"","","","","","animation","280","3389277","0.0-280.0","1920x1080","","7744.299999998882","5.29","img/314/4/0.5/bw/001.png","","","natural"
"","","","","","animation","281","3395667","0.0-281.0","1920x1080","","6387.799999998882","6.22","img/238/4.5/0.66667/bw/001.png","","","natural"
"","","","","","animation","282","3401310","0.0-282.0","1920x1080","","5641","2.25","img/314/2.5/2/bw/001.png","","","natural"
"","","","","","animation","283","3407426","0.0-283.0","1920x1080","","6115","13.23","img/238/4/0.66667/bw/001.png","","","natural"
"","","","","","animation","284","3411626","0.0-284.0","1920x1080","","4198.799999998882","0.40","img/117/2.5/0.66667/bw/001.png","","","natural"
"","","","","","animation","285","3423467","0.0-285.0","1920x1080","","11838.89999999851","94.58","img/238/5.5/0.66667/bw/001.png","","","natural"
"","","","","","animation","286","3428664","0.0-286.0","1920x1080","","5198","11.11","img/314/3.5/0.66667/bw/001.png","","","natural"
"","","","","","animation","287","3433424","0.0-287.0","1920x1080","","4758.199999999255","12.04","img/314/3.5/1/bw/001.png","","","natural"
"","","","","","animation","288","3440407","0.0-288.0","1920x1080","","6982","66.01","img/117/5.5/1/bw/001.png","","","natural"
"","","","","","animation","289","3447690","0.0-289.0","1920x1080","","7282.199999999255","7.94","img/238/2.5/1.5/bw/001.png","","","natural"
"","","","","","animation","290","3455495","0.0-290.0","1920x1080","","7802.89999999851","34.92","img/238/3.5/1/bw/001.png","","","natural"
"","","","","","animation","291","3461848","0.0-291.0","1920x1080","","6351.9000000003725","43.25","img/238/4.5/1/bw/001.png","","","natural"
"","","","","","animation","292","3467592","0.0-292.0","1920x1080","","5742","64.95","img/314/5.5/2/bw/001.png","","","natural"
"","","","","","animation","293","3473960","0.0-293.0","1920x1080","","6366.800000000745","0.00","img/238/2.5/0.5/bw/001.png","","","natural"
"","","","","","animation","294","3481657","0.0-294.0","1920x1080","","7695.5","19.97","img/314/3.5/2/bw/001.png","","","natural"
"","","","","","animation","295","3487378","0.0-295.0","1920x1080","","5716.60000000149","18.39","img/238/4/1.5/bw/001.png","","","natural"
"","","","","","animation","296","3490850","0.0-296.0","1920x1080","","3470.300000000745","4.10","img/238/2.5/2/bw/001.png","","","natural"
"","","","","","animation","297","3498526","0.0-297.0","1920x1080","","7672.9000000003725","30.69","img/117/4.5/1/bw/001.png","","","natural"
"","","","","","animation","298","3507909","0.0-298.0","1920x1080","","9382.5","22","img/117/4.5/0.66667/bw/001.png","","","natural"
"","","","","","animation","299","3517498","0.0-299.0","1920x1080","","9586","18.52","img/238/3.5/1.5/bw/001.png","","","natural"
"","","","","","animation","300","3524143","0.0-300.0","1920x1080","","6643","25.00","img/314/4/1.5/bw/001.png","","","natural"
"","","","","","animation","301","3530309","0.0-301.0","1920x1080","","6165.199999999255","10.32","img/117/4.5/0.5/bw/001.png","","","natural"
"","","","","","animation","302","3536162","0.0-302.0","1920x1080","","5851.5","0","img/117/2.5/0.5/bw/001.png","","","natural"
"","","","","","animation","303","3545947","0.0-303.0","1920x1080","","9782.200000001118","33.86","img/117/3.5/1.5/bw/001.png","","","natural"
"","","","","","animation","304","3562562","0.0-304.0","1920x1080","","16614.099999999627","90.21","img/314/5.5/1/bw/001.png","","","natural"
"","","","","","animation","305","3570930","0.0-305.0","1920x1080","","8366.599999999627","25.13","img/314/4.5/0.5/bw/001.png","","","natural"
"","","","","","animation","306","3580847","0.0-306.0","1920x1080","","9914.900000000373","69.84","img/314/5.5/1.5/bw/001.png","","","natural"
"","","","","","animation","307","3586942","0.0-307.0","1920x1080","","6093.4000000003725","43.52","img/117/4.5/2/bw/001.png","","","natural"
"","","","","","animation","308","3593682","0.0-308.0","1920x1080","","6738.5999999996275","41.01","img/117/4.5/1.5/bw/001.png","","","natural"
"","","","","","animation","309","3597066","0.0-309.0","1920x1080","","3382.0999999996275","3.97","img/314/2.5/1.5/bw/001.png","","","natural"
"","","","","","animation","310","3602426","0.0-310.0","1920x1080","","5357.700000001118","4.23","img/117/2.5/2/bw/001.png","","","natural"
"","","","","","animation","311","3608424","0.0-311.0","1920x1080","","5998.200000001118","0.40","img/238/2.5/0.66667/bw/001.png","","","natural"
"","","","","","animation","312","3612792","0.0-312.0","1920x1080","","4366.5","50.26","img/117/5.5/0.5/bw/001.png","","","natural"
"","","","","","html-button-response","313","3636673","0.0-313.0","1920x1080","","23879.900000000373","","<div class=""intro"">You are about to view a new series of animations.<br><br></div><div class=""intro"">You will evaluate them based on a different descriptor.<br><br></div><div class=""intro"">Move the slider to indicate how <strong style=""text-transform:capitalize"">APPEALING</strong> you find each animation.<br><br></div><div class=""intro"">0 = Least Appealing<br></div><div class=""intro"">1 = Most Appealing<br><br></div><div class=""intro"">Remember to use the <strong><em>entire range</em></strong> of the slider to make your ratings.<br></div><div class=""intro"">Please <strong><em>take your time</em></strong> and carefully consider each rating you make.<br><br></div>","0","",""
"","","","","","call-function","314","3636676","0.0-314.0","1920x1080","","","","","","",""
"","","","","","animation","315","3644056","0.0-315.0","1920x1080","","7379.4000000003725","5.16","img/238/2.5/0.66667/bw/001.png","","","appealing"
"","","","","","animation","316","3659042","0.0-316.0","1920x1080","","14984.300000000745","80.29","img/117/5.5/1/bw/001.png","","","appealing"
"","","","","","animation","317","3671053","0.0-317.0","1920x1080","","12010.599999999627","41","img/314/3.5/1/bw/001.png","","","appealing"
"","","","","","animation","318","3680717","0.0-318.0","1920x1080","","9662.700000001118","42.99","img/238/4/0.66667/bw/001.png","","","appealing"
"","","","","","animation","319","3686020","0.0-319.0","1920x1080","","5301.800000000745","3.31","img/238/2.5/2/bw/001.png","","","appealing"
"","","","","","animation","320","3691293","0.0-320.0","1920x1080","","5271.0999999996275","20.77","img/238/3.5/2/bw/001.png","","","appealing"
"","","","","","animation","321","3706107","0.0-321.0","1920x1080","","14812.60000000149","79.63","img/117/5.5/1.5/bw/001.png","","","appealing"
"","","","","","animation","322","3720420","0.0-322.0","1920x1080","","14311.300000000745","49.74","img/314/4.5/1.5/bw/001.png","","","appealing"
"","","","","","animation","323","3724720","0.0-323.0","1920x1080","","4298.4000000003725","0.00","img/117/2.5/0.5/bw/001.png","","","appealing"
"","","","","","animation","324","3733513","0.0-324.0","1920x1080","","8785.299999998882","40.21","img/117/4/1/bw/001.png","","","appealing"
"","","","","","animation","325","3741659","0.0-325.0","1920x1080","","8144.0999999996275","60.58","img/238/4.5/1.5/bw/001.png","","","appealing"
"","","","","","animation","326","3747541","0.0-326.0","1920x1080","","5880.9000000003725","4.10","img/117/3.5/0.5/bw/001.png","","","appealing"
"","","","","","animation","327","3756125","0.0-327.0","1920x1080","","8581.799999998882","30.03","img/238/4/1/bw/001.png","","","appealing"
"","","","","","animation","328","3770291","0.0-328.0","1920x1080","","14164.099999999627","79.76","img/314/5.5/0.5/bw/001.png","","","appealing"
"","","","","","animation","329","3783258","0.0-329.0","1920x1080","","12965.599999999627","94","img/238/5.5/0.66667/bw/001.png","","","appealing"
"","","","","","animation","330","3789828","0.0-330.0","1920x1080","","6568.10000000149","5.82","img/314/3.5/0.66667/bw/001.png","","","appealing"
"","","","","","animation","331","3799658","0.0-331.0","1920x1080","","9827.599999999627","6.35","img/314/4/2/bw/001.png","","","appealing"
"","","","","","animation","332","3811025","0.0-332.0","1920x1080","","11364.900000000373","55.03","img/117/5.5/2/bw/001.png","","","appealing"
"","","","","","animation","333","3817729","0.0-333.0","1920x1080","","6702.800000000745","10","img/117/3.5/0.66667/bw/001.png","","","appealing"
"","","","","","animation","334","3824993","0.0-334.0","1920x1080","","7259.800000000745","20.11","img/117/4.5/0.5/bw/001.png","","","appealing"
"","","","","","animation","335","3833761","0.0-335.0","1920x1080","","8766.400000000373","0","img/314/2.5/0.5/bw/001.png","","","appealing"
"","","","","","animation","336","3842412","0.0-336.0","1920x1080","","8648.700000001118","0","img/117/2.5/2/bw/001.png","","","appealing"
"","","","","","animation","337","3850571","0.0-337.0","1920x1080","","8149.300000000745","63.76","img/314/4.5/1/bw/001.png","","","appealing"
"","","","","","animation","338","3862290","0.0-338.0","1920x1080","","11716.60000000149","46","img/238/4.5/2/bw/001.png","","","appealing"
"","","","","","animation","339","3870170","0.0-339.0","1920x1080","","7877.800000000745","57.41","img/238/5.5/0.5/bw/001.png","","","appealing"
"","","","","","animation","340","3881301","0.0-340.0","1920x1080","","11129.900000000373","53.70","img/314/5.5/2/bw/001.png","","","appealing"
"","","","","","animation","341","3888250","0.0-341.0","1920x1080","","6947.200000001118","12.30","img/117/4/0.5/bw/001.png","","","appealing"
"","","","","","animation","342","3894833","0.0-342.0","1920x1080","","6581.60000000149","29.76","img/117/4/1.5/bw/001.png","","","appealing"
"","","","","","animation","343","3907486","0.0-343.0","1920x1080","","12666.200000001118","39","img/117/4.5/0.66667/bw/001.png","","","appealing"
"","","","","","animation","344","3919692","0.0-344.0","1920x1080","","12204.400000000373","30.42","img/238/4/1.5/bw/001.png","","","appealing"
"","","","","","animation","345","3924252","0.0-345.0","1920x1080","","4557.5","0.53","img/314/2.5/0.66667/bw/001.png","","","appealing"
"","","","","","animation","346","3935043","0.0-346.0","1920x1080","","10790","19.97","img/314/4.5/0.66667/bw/001.png","","","appealing"
"","","","","","animation","347","3955868","0.0-347.0","1920x1080","","20822.799999998882","25.53","img/314/4.5/2/bw/001.png","","","appealing"
"","","","","","animation","348","3967881","0.0-348.0","1920x1080","","12005.199999999255","29.76","img/117/4.5/2/bw/001.png","","","appealing"
"","","","","","animation","349","3972808","0.0-349.0","1920x1080","","4924.699999999255","0.40","img/117/2.5/1/bw/001.png","","","appealing"
"","","","","","animation","350","3977641","0.0-350.0","1920x1080","","4831.4000000003725","20.24","img/117/3.5/2/bw/001.png","","","appealing"
"","","","","","animation","351","3981514","0.0-351.0","1920x1080","","3871.9000000003725","1.59","img/314/2.5/2/bw/001.png","","","appealing"
"","","","","","animation","352","3987692","0.0-352.0","1920x1080","","6175.39999999851","38.10","img/238/4.5/0.5/bw/001.png","","","appealing"
"","","","","","animation","353","3995877","0.0-353.0","1920x1080","","8182.5999999996275","33.99","img/117/4/0.66667/bw/001.png","","","appealing"
"","","","","","animation","354","4000558","0.0-354.0","1920x1080","","4679.39999999851","17.46","img/238/3.5/0.5/bw/001.png","","","appealing"
"","","","","","animation","355","4007207","0.0-355.0","1920x1080","","6648.10000000149","0","img/314/2.5/1.5/bw/001.png","","","appealing"
"","","","","","animation","356","4016207","0.0-356.0","1920x1080","","8997.900000000373","54.23","img/314/4.5/0.5/bw/001.png","","","appealing"
"","","","","","animation","357","4032638","0.0-357.0","1920x1080","","16435.299999998882","26","img/314/3.5/1.5/bw/001.png","","","appealing"
"","","","","","animation","358","4040691","0.0-358.0","1920x1080","","8050.4000000003725","50.53","img/117/4.5/1/bw/001.png","","","appealing"
"","","","","","animation","359","4055339","0.0-359.0","1920x1080","","14645.799999998882","80.03","img/117/5.5/0.66667/bw/001.png","","","appealing"
"","","","","","animation","360","4067227","0.0-360.0","1920x1080","","11883.799999998882","83.86","img/314/5.5/0.66667/bw/001.png","","","appealing"
"","","","","","animation","361","4081379","0.0-361.0","1920x1080","","14150.099999999627","78","img/238/5.5/1/bw/001.png","","","appealing"
"","","","","","animation","362","4092000","0.0-362.0","1920x1080","","10603.299999998882","75.93","img/238/5.5/1.5/bw/001.png","","","appealing"
"","","","","","animation","363","4095950","0.0-363.0","1920x1080","","3947.5999999996275","0","img/314/2.5/1/bw/001.png","","","appealing"
"","","","","","animation","364","4105524","0.0-364.0","1920x1080","","9572.300000000745","25.66","img/314/3.5/2/bw/001.png","","","appealing"
"","","","","","animation","365","4114124","0.0-365.0","1920x1080","","8597.599999999627","30.69","img/238/3.5/1.5/bw/001.png","","","appealing"
"","","","","","animation","366","4119475","0.0-366.0","1920x1080","","5349.700000001118","17.46","img/314/4/0.5/bw/001.png","","","appealing"
"","","","","","animation","367","4124308","0.0-367.0","1920x1080","","4830.4000000003725","0","img/238/2.5/0.5/bw/001.png","","","appealing"
"","","","","","animation","368","4129350","0.0-368.0","1920x1080","","5039.800000000745","4.37","img/314/3.5/0.5/bw/001.png","","","appealing"
"","","","","","animation","369","4134183","0.0-369.0","1920x1080","","4831.4000000003725","10.05","img/117/3.5/1/bw/001.png","","","appealing"
"","","","","","animation","370","4139618","0.0-370.0","1920x1080","","5433.4000000003725","9.13","img/238/3.5/0.66667/bw/001.png","","","appealing"
"","","","","","animation","371","4146723","0.0-371.0","1920x1080","","7113.199999999255","17","img/117/3.5/1.5/bw/001.png","","","appealing"
"","","","","","animation","372","4157408","0.0-372.0","1920x1080","","10683.599999999627","85.05","img/314/5.5/1/bw/001.png","","","appealing"
"","","","","","animation","373","4163128","0.0-373.0","1920x1080","","5717","2.91","img/238/2.5/1.5/bw/001.png","","","appealing"
"","","","","","animation","374","4173130","0.0-374.0","1920x1080","","10000","34","img/238/4/2/bw/001.png","","","appealing"
"","","","","","animation","375","4180881","0.0-375.0","1920x1080","","7748.799999998882","0","img/117/2.5/0.66667/bw/001.png","","","appealing"
"","","","","","animation","376","4189656","0.0-376.0","1920x1080","","8773.799999998882","53","img/238/4.5/1/bw/001.png","","","appealing"
"","","","","","animation","377","4199431","0.0-377.0","1920x1080","","9773","69.97","img/238/5.5/2/bw/001.png","","","appealing"
"","","","","","animation","378","4210222","0.0-378.0","1920x1080","","10791.5","29.37","img/238/3.5/1/bw/001.png","","","appealing"
"","","","","","animation","379","4217471","0.0-379.0","1920x1080","","7247","30.95","img/238/4.5/0.66667/bw/001.png","","","appealing"
"","","","","","animation","380","4223341","0.0-380.0","1920x1080","","5868.5999999996275","35.05","img/117/4/2/bw/001.png","","","appealing"
"","","","","","animation","381","4232671","0.0-381.0","1920x1080","","9328","40.61","img/117/4.5/1.5/bw/001.png","","","appealing"
"","","","","","animation","382","4240470","0.0-382.0","1920x1080","","7795.10000000149","79.50","img/314/5.5/1.5/bw/001.png","","","appealing"
"","","","","","animation","383","4249037","0.0-383.0","1920x1080","","8565","57.28","img/117/5.5/0.5/bw/001.png","","","appealing"
"","","","","","animation","384","4254003","0.0-384.0","1920x1080","","4964.199999999255","38.10","img/314/4/1.5/bw/001.png","","","appealing"
"","","","","","animation","385","4259964","0.0-385.0","1920x1080","","5958.5","0.40","img/238/2.5/1/bw/001.png","","","appealing"
"","","","","","animation","386","4268092","0.0-386.0","1920x1080","","8123.700000001118","14.55","img/314/4/0.66667/bw/001.png","","","appealing"
"","","","","","animation","387","4276545","0.0-387.0","1920x1080","","8451.200000001118","19.58","img/314/4/1/bw/001.png","","","appealing"
"","","","","","animation","388","4279839","0.0-388.0","1920x1080","","3292.300000000745","1.32","img/117/2.5/1.5/bw/001.png","","","appealing"
"","","","","","animation","389","4287611","0.0-389.0","1920x1080","","7770.10000000149","4.23","img/238/4/0.5/bw/001.png","","","appealing"
"","","","","","html-button-response","390","4324980","0.0-390.0","1920x1080","","37366.90000000037","","<strong>Study Debriefing</strong><br><p class=""debrief""><strong>Background:</strong> The patterns you rated are called <em>fractals</em>. The term fractal describes a class of irregular curves or shapes for which any suitably chosen part is similar in shape to a given larger or smaller part when magnified or reduced to the same size. Fractal properties are found throughout the natural and manmade world. The series of animations you saw today displayed animated fractal patterns of a varying complexity.</p><p class=""debrief""><strong>Purpose of this study:</strong> We hope to better understand how the perception of static fractals differs from the perception of animated fractals, and how the speed of the animated patterns influences people&apos;s perception of them. Fractals allow us to study the perception of aesthetic properties (e.g. the perceived level of beauty in an image) without using recognizable content, which makes them an excellent tool for studying abstract aesthetic judgement.</p><p class=""debrief""><strong>Your part:</strong> Your participation has helped us to further understand how humans perceive these patterns across different levels of speed and complexity. This research with allow us to better understand how the visual system and brain process our ever-changing visual environments.<p class=""debrief""><strong>Feedback and Further information:</strong> If you have additional questions about this study, please feel free to ask the researcher, Nathan Gonzales-Hess at nhess @ uoregon.edu. If you have any questions concerning your rights as a research participant, please contact Research Compliance Services, 5237 University of Oregon, Eugene, OR 97403, 541-346-2510, or email researchCompliance @ uoregon.edu. You can also email the Human Subjects Coordinator for psychology and linguistics research at hscoord @ uoregon.edu. ","0","",""
"","","","","","html-button-response","391","4329132","0.0-391.0","1920x1080","","4138.800000000745","","Thank you for participating in this study. <br>Please click below to finish the experiment and submit your responses.<br><br>","0","",""
"true","","","","","fullscreen","392","4330139","0.0-392.0","1920x1080","13:58 24/10/2022","","","","","",""
