"success","timeout","failed_images","failed_audio","failed_video","trial_type","trial_index","time_elapsed","internal_node_id","resolution","timeStamp","rt","response","stimulus","button_pressed","value","descriptor"
"true","false","[]","[]","[]","preload","0","38644","0.0-0.0","1920x1080","","","","","","",""
"true","false","[]","[]","[]","preload","1","77855","0.0-1.0","1920x1080","","","","","","",""
"true","false","[]","[]","[]","preload","2","120012","0.0-2.0","1920x1080","","","","","","",""
"true","","","","","fullscreen","3","180212","0.0-3.0","1920x1080","9:51 14/10/2022","","","","","",""
"","","","","","survey-html-form","4","187202","0.0-4.0","1920x1080","","6987.29999999702","{""age"":""18"",""gender"":""female""}","","","",""
"","","","","","html-button-response","5","250810","0.0-5.0","1920x1080","","63607.09999999404","","<div class=""complex"">You are going to see a series of animations.<br><br></div><div class=""complex"">Move the slider to indicate how <strong style=""text-transform:capitalize"">COMPLEX</strong> you find each animation.<br><br></div><div class=""complex"">0 = Least Complex<br></div><div class=""complex"">1 = Most Complex<br><br></div><div class=""complex"">Remember to use the <strong><em>entire range</em></strong> of the slider to make your ratings.<br></div><div class=""complex"">Please <strong><em>take your time</em></strong> and carefully consider each rating you make.<br><br></div><div class=""complex"">The study has five sections and will take about 45 minutes to complete.<br><br></div>","0","",""
"","","","","","call-function","6","250810","0.0-6.0","1920x1080","","","","","","",""
"","","","","","animation","7","265082","0.0-7.0","1920x1080","","14268.90000000596","85.58","img/238/3.5/1.5/bw/001.png","","","complex"
"","","","","","animation","8","291833","0.0-8.0","1920x1080","","26749.70000000298","87.17","img/314/3.5/2/bw/001.png","","","complex"
"","","","","","animation","9","303940","0.0-9.0","1920x1080","","12135.5","46.30","img/117/4.5/0.5/bw/001.png","","","complex"
"","","","","","animation","10","315756","0.0-10.0","1920x1080","","11815.5","61.64","img/314/4/0.5/bw/001.png","","","complex"
"","","","","","animation","11","320892","0.0-11.0","1920x1080","","5135.0999999940395","14.68","img/238/5.5/1.5/bw/001.png","","","complex"
"","","","","","animation","12","329468","0.0-12.0","1920x1080","","8574.39999999106","45.11","img/238/4.5/1.5/bw/001.png","","","complex"
"","","","","","animation","13","338204","0.0-13.0","1920x1080","","8735.70000000298","90.48","img/117/4/0.66667/bw/001.png","","","complex"
"","","","","","animation","14","348757","0.0-14.0","1920x1080","","10549.39999999106","99","img/314/3.5/1/bw/001.png","","","complex"
"","","","","","animation","15","356028","0.0-15.0","1920x1080","","7270.20000000298","70.11","img/314/4.5/1.5/bw/001.png","","","complex"
"","","","","","animation","16","378860","0.0-16.0","1920x1080","","23014.90000000596","79.63","img/117/4/1.5/bw/001.png","","","complex"
"","","","","","animation","17","389276","0.0-17.0","1920x1080","","10415.09999999404","36.90","img/117/4.5/1/bw/001.png","","","complex"
"","","","","","animation","18","395812","0.0-18.0","1920x1080","","6535.4000000059605","92.59","img/314/3.5/1.5/bw/001.png","","","complex"
"","","","","","animation","19","401396","0.0-19.0","1920x1080","","5582.9000000059605","95","img/238/4/0.5/bw/001.png","","","complex"
"","","","","","animation","20","404956","0.0-20.0","1920x1080","","3559.2999999970198","100","img/117/2.5/1.5/bw/001.png","","","complex"
"","","","","","animation","21","412821","0.0-21.0","1920x1080","","7863.5","75.00","img/314/4.5/0.5/bw/001.png","","","complex"
"","","","","","animation","22","430251","0.0-22.0","1920x1080","","17614.89999999106","78.84","img/314/4/0.66667/bw/001.png","","","complex"
"","","","","","animation","23","435371","0.0-23.0","1920x1080","","5119.20000000298","100","img/314/2.5/1.5/bw/001.png","","","complex"
"","","","","","animation","24","444699","0.0-24.0","1920x1080","","9327","30","img/238/4/2/bw/001.png","","","complex"
"","","","","","animation","25","459379","0.0-25.0","1920x1080","","14679","40","img/117/5.5/0.5/bw/001.png","","","complex"
"","","","","","animation","26","479515","0.0-26.0","1920x1080","","20135.5","50","img/117/4.5/0.66667/bw/001.png","","","complex"
"","","","","","animation","27","485050","0.0-27.0","1920x1080","","5719","100","img/238/2.5/0.66667/bw/001.png","","","complex"
"","","","","","animation","28","497626","0.0-28.0","1920x1080","","12575","38.10","img/117/4.5/2/bw/001.png","","","complex"
"","","","","","animation","29","502090","0.0-29.0","1920x1080","","4462.699999988079","100","img/117/2.5/0.66667/bw/001.png","","","complex"
"","","","","","animation","30","511538","0.0-30.0","1920x1080","","9447.09999999404","95","img/117/3.5/1.5/bw/001.png","","","complex"
"","","","","","animation","31","526836","0.0-31.0","1920x1080","","15297.09999999404","15.48","img/238/5.5/0.66667/bw/001.png","","","complex"
"","","","","","animation","32","532690","0.0-32.0","1920x1080","","5853.100000008941","100","img/314/2.5/2/bw/001.png","","","complex"
"","","","","","animation","33","548159","0.0-33.0","1920x1080","","15647","80.16","img/314/3.5/0.5/bw/001.png","","","complex"
"","","","","","animation","34","559104","0.0-34.0","1920x1080","","10943.70000000298","59.66","img/117/4/1/bw/001.png","","","complex"
"","","","","","animation","35","567328","0.0-35.0","1920x1080","","8222.79999999702","96","img/314/2.5/1/bw/001.png","","","complex"
"","","","","","animation","36","572696","0.0-36.0","1920x1080","","5367.0999999940395","82.54","img/117/3.5/0.66667/bw/001.png","","","complex"
"","","","","","animation","37","584816","0.0-37.0","1920x1080","","12119.5","39.68","img/117/4.5/1.5/bw/001.png","","","complex"
"","","","","","animation","38","592096","0.0-38.0","1920x1080","","7278.79999999702","65.34","img/117/3.5/2/bw/001.png","","","complex"
"","","","","","animation","39","604132","0.0-39.0","1920x1080","","12191.29999999702","24.60","img/238/4.5/0.5/bw/001.png","","","complex"
"","","","","","animation","40","625876","0.0-40.0","1920x1080","","21742.5","45.24","img/238/4.5/0.66667/bw/001.png","","","complex"
"","","","","","animation","41","636485","0.0-41.0","1920x1080","","10608","97","img/238/2.5/2/bw/001.png","","","complex"
"","","","","","animation","42","646587","0.0-42.0","1920x1080","","10102.10000000894","15.21","img/117/5.5/0.66667/bw/001.png","","","complex"
"","","","","","animation","43","656755","0.0-43.0","1920x1080","","10166.5","41.53","img/238/4/1.5/bw/001.png","","","complex"
"","","","","","animation","44","662139","0.0-44.0","1920x1080","","5383.300000011921","10.45","img/238/5.5/0.5/bw/001.png","","","complex"
"","","","","","animation","45","671331","0.0-45.0","1920x1080","","9191","84.26","img/238/3.5/1/bw/001.png","","","complex"
"","","","","","animation","46","678155","0.0-46.0","1920x1080","","6822.70000000298","89.81","img/117/3.5/1/bw/001.png","","","complex"
"","","","","","animation","47","682395","0.0-47.0","1920x1080","","4239.399999991059","100","img/238/2.5/1/bw/001.png","","","complex"
"","","","","","animation","48","696955","0.0-48.0","1920x1080","","14558.59999999404","56","img/314/4.5/0.66667/bw/001.png","","","complex"
"","","","","","animation","49","707139","0.0-49.0","1920x1080","","10183.5","46.03","img/238/4.5/1/bw/001.png","","","complex"
"","","","","","animation","50","712555","0.0-50.0","1920x1080","","5415.100000008941","75.40","img/314/3.5/0.66667/bw/001.png","","","complex"
"","","","","","animation","51","718571","0.0-51.0","1920x1080","","6014.9000000059605","3.97","img/314/5.5/2/bw/001.png","","","complex"
"","","","","","animation","52","725089","0.0-52.0","1920x1080","","6518.9000000059605","96","img/238/3.5/0.5/bw/001.png","","","complex"
"","","","","","animation","53","741873","0.0-53.0","1920x1080","","16783.40000000596","100","img/238/2.5/1.5/bw/001.png","","","complex"
"","","","","","animation","54","746393","0.0-54.0","1920x1080","","4518.79999999702","79.76","img/238/3.5/2/bw/001.png","","","complex"
"","","","","","animation","55","753737","0.0-55.0","1920x1080","","7342.9000000059605","0.93","img/238/5.5/1/bw/001.png","","","complex"
"","","","","","animation","56","761993","0.0-56.0","1920x1080","","8254.79999999702","20.11","img/314/5.5/0.66667/bw/001.png","","","complex"
"","","","","","animation","57","771505","0.0-57.0","1920x1080","","9510.79999999702","50.13","img/117/4/2/bw/001.png","","","complex"
"","","","","","animation","58","776833","0.0-58.0","1920x1080","","5326.399999991059","50.13","img/314/4/2/bw/001.png","","","complex"
"","","","","","animation","59","783806","0.0-59.0","1920x1080","","6966.899999991059","9.79","img/314/5.5/1/bw/001.png","","","complex"
"","","","","","animation","60","795766","0.0-60.0","1920x1080","","11959.5","91.93","img/238/3.5/0.66667/bw/001.png","","","complex"
"","","","","","animation","61","806278","0.0-61.0","1920x1080","","10510.5","87.43","img/238/4/1/bw/001.png","","","complex"
"","","","","","animation","62","813704","0.0-62.0","1920x1080","","7424.79999999702","93","img/238/4/0.66667/bw/001.png","","","complex"
"","","","","","animation","63","820622","0.0-63.0","1920x1080","","6916.5999999940395","8.20","img/117/5.5/1.5/bw/001.png","","","complex"
"","","","","","animation","64","826550","0.0-64.0","1920x1080","","5927.29999999702","100","img/117/2.5/1/bw/001.png","","","complex"
"","","","","","animation","65","841998","0.0-65.0","1920x1080","","15446.79999999702","15","img/117/5.5/1/bw/001.png","","","complex"
"","","","","","animation","66","850645","0.0-66.0","1920x1080","","8646.90000000596","12","img/238/5.5/2/bw/001.png","","","complex"
"","","","","","animation","67","855941","0.0-67.0","1920x1080","","5295.100000008941","95","img/117/3.5/0.5/bw/001.png","","","complex"
"","","","","","animation","68","862373","0.0-68.0","1920x1080","","6430.70000000298","80.03","img/314/4/1.5/bw/001.png","","","complex"
"","","","","","animation","69","866230","0.0-69.0","1920x1080","","3855.5","89.68","img/117/4/0.5/bw/001.png","","","complex"
"","","","","","animation","70","871614","0.0-70.0","1920x1080","","5383.199999988079","49.87","img/314/5.5/0.5/bw/001.png","","","complex"
"","","","","","animation","71","876725","0.0-71.0","1920x1080","","5110.79999999702","100","img/238/2.5/0.5/bw/001.png","","","complex"
"","","","","","animation","72","883789","0.0-72.0","1920x1080","","7062.70000000298","74.74","img/314/4/1/bw/001.png","","","complex"
"","","","","","animation","73","890550","0.0-73.0","1920x1080","","6760","59.92","img/314/4.5/2/bw/001.png","","","complex"
"","","","","","animation","74","903819","0.0-74.0","1920x1080","","13270.40000000596","12","img/117/5.5/2/bw/001.png","","","complex"
"","","","","","animation","75","923334","0.0-75.0","1920x1080","","19514","64.81","img/314/4.5/1/bw/001.png","","","complex"
"","","","","","animation","76","928307","0.0-76.0","1920x1080","","4972","100","img/314/2.5/0.5/bw/001.png","","","complex"
"","","","","","animation","77","932243","0.0-77.0","1920x1080","","3935.0999999940395","99","img/314/2.5/0.66667/bw/001.png","","","complex"
"","","","","","animation","78","937187","0.0-78.0","1920x1080","","4942.29999999702","100","img/117/2.5/2/bw/001.png","","","complex"
"","","","","","animation","79","941659","0.0-79.0","1920x1080","","4471.4000000059605","100","img/117/2.5/0.5/bw/001.png","","","complex"
"","","","","","animation","80","950734","0.0-80.0","1920x1080","","9073.39999999106","20","img/314/5.5/1.5/bw/001.png","","","complex"
"","","","","","animation","81","955918","0.0-81.0","1920x1080","","5182.9000000059605","29.63","img/238/4.5/2/bw/001.png","","","complex"
"","","","","","html-button-response","82","980976","0.0-82.0","1920x1080","","25052.70000000298","","<div class=""intro"">You are about to view a new series of animations.<br><br></div><div class=""intro"">You will evaluate them based on a different descriptor.<br><br></div><div class=""intro"">Move the slider to indicate how <strong style=""text-transform:capitalize"">RELAXING</strong> you find each animation.<br><br></div><div class=""intro"">0 = Least Relaxing<br></div><div class=""intro"">1 = Most Relaxing<br><br></div><div class=""intro"">Remember to use the <strong><em>entire range</em></strong> of the slider to make your ratings.<br></div><div class=""intro"">Please <strong><em>take your time</em></strong> and carefully consider each rating you make.<br><br></div>","0","",""
"","","","","","call-function","83","980978","0.0-83.0","1920x1080","","","","","","",""
"","","","","","animation","84","992496","0.0-84.0","1920x1080","","11516.20000000298","10.19","img/238/4/0.66667/bw/001.png","","","relaxing"
"","","","","","animation","85","997539","0.0-85.0","1920x1080","","5041.5999999940395","5.42","img/314/3.5/0.66667/bw/001.png","","","relaxing"
"","","","","","animation","86","1013471","0.0-86.0","1920x1080","","15931.60000000894","40","img/238/4.5/1.5/bw/001.png","","","relaxing"
"","","","","","animation","87","1022861","0.0-87.0","1920x1080","","9391.40000000596","0","img/117/2.5/0.5/bw/001.png","","","relaxing"
"","","","","","animation","88","1027428","0.0-88.0","1920x1080","","4567","9.79","img/117/4/1/bw/001.png","","","relaxing"
"","","","","","animation","89","1032076","0.0-89.0","1920x1080","","4646.600000008941","4.50","img/314/4.5/0.5/bw/001.png","","","relaxing"
"","","","","","animation","90","1037103","0.0-90.0","1920x1080","","5025","29.76","img/238/4/2/bw/001.png","","","relaxing"
"","","","","","animation","91","1044236","0.0-91.0","1920x1080","","7132.20000000298","74.87","img/117/5.5/2/bw/001.png","","","relaxing"
"","","","","","animation","92","1055581","0.0-92.0","1920x1080","","11342.90000000596","42.72","img/314/4/2/bw/001.png","","","relaxing"
"","","","","","animation","93","1058797","0.0-93.0","1920x1080","","3215","0.40","img/238/2.5/0.5/bw/001.png","","","relaxing"
"","","","","","animation","94","1063972","0.0-94.0","1920x1080","","5174.399999991059","32.54","img/117/4.5/1.5/bw/001.png","","","relaxing"
"","","","","","animation","95","1071004","0.0-95.0","1920x1080","","7030.899999991059","22.22","img/238/4.5/1/bw/001.png","","","relaxing"
"","","","","","animation","96","1076076","0.0-96.0","1920x1080","","5071.5","15.21","img/117/4.5/1/bw/001.png","","","relaxing"
"","","","","","animation","97","1092417","0.0-97.0","1920x1080","","16351","29.50","img/117/5.5/0.66667/bw/001.png","","","relaxing"
"","","","","","animation","98","1104241","0.0-98.0","1920x1080","","11822","18.39","img/314/4/1/bw/001.png","","","relaxing"
"","","","","","animation","99","1108561","0.0-99.0","1920x1080","","4318.9000000059605","0","img/314/2.5/1.5/bw/001.png","","","relaxing"
"","","","","","animation","100","1114729","0.0-100.0","1920x1080","","6167.300000011921","8.60","img/238/3.5/1.5/bw/001.png","","","relaxing"
"","","","","","animation","101","1118041","0.0-101.0","1920x1080","","3310.5","2.12","img/314/3.5/0.5/bw/001.png","","","relaxing"
"","","","","","animation","102","1123633","0.0-102.0","1920x1080","","5591.5","20.50","img/117/4/2/bw/001.png","","","relaxing"
"","","","","","animation","103","1131097","0.0-103.0","1920x1080","","7463","30.42","img/117/4.5/2/bw/001.png","","","relaxing"
"","","","","","animation","104","1135857","0.0-104.0","1920x1080","","4758.4000000059605","0.13","img/238/2.5/1/bw/001.png","","","relaxing"
"","","","","","animation","105","1142213","0.0-105.0","1920x1080","","6366.899999991059","4.89","img/238/4.5/0.5/bw/001.png","","","relaxing"
"","","","","","animation","106","1151469","0.0-106.0","1920x1080","","9255.20000000298","80.03","img/314/5.5/0.66667/bw/001.png","","","relaxing"
"","","","","","animation","107","1157021","0.0-107.0","1920x1080","","5551.20000000298","3.57","img/314/4/0.5/bw/001.png","","","relaxing"
"","","","","","animation","108","1159517","0.0-108.0","1920x1080","","2494.800000011921","-0.13","img/117/2.5/0.66667/bw/001.png","","","relaxing"
"","","","","","animation","109","1163189","0.0-109.0","1920x1080","","3671.199999988079","1.32","img/238/2.5/1.5/bw/001.png","","","relaxing"
"","","","","","animation","110","1167301","0.0-110.0","1920x1080","","4110.70000000298","9.13","img/314/4/0.66667/bw/001.png","","","relaxing"
"","","","","","animation","111","1174701","0.0-111.0","1920x1080","","7399.20000000298","39.95","img/314/5.5/0.5/bw/001.png","","","relaxing"
"","","","","","animation","112","1183733","0.0-112.0","1920x1080","","9030.59999999404","21.83","img/238/3.5/2/bw/001.png","","","relaxing"
"","","","","","animation","113","1192847","0.0-113.0","1920x1080","","9112.59999999404","0.13","img/238/2.5/0.66667/bw/001.png","","","relaxing"
"","","","","","animation","114","1202267","0.0-114.0","1920x1080","","9429.60000000894","2.65","img/238/3.5/0.5/bw/001.png","","","relaxing"
"","","","","","animation","115","1207085","0.0-115.0","1920x1080","","4814.79999999702","8","img/238/3.5/1/bw/001.png","","","relaxing"
"","","","","","animation","116","1218779","0.0-116.0","1920x1080","","11693.20000000298","71","img/314/5.5/1/bw/001.png","","","relaxing"
"","","","","","animation","117","1230101","0.0-117.0","1920x1080","","11321.10000000894","15.34","img/314/3.5/2/bw/001.png","","","relaxing"
"","","","","","animation","118","1260579","0.0-118.0","1920x1080","","30476.70000000298","22","img/314/4/1.5/bw/001.png","","","relaxing"
"","","","","","animation","119","1263481","0.0-119.0","1920x1080","","2910.9000000059605","0.00","img/314/2.5/2/bw/001.png","","","relaxing"
"","","","","","animation","120","1269626","0.0-120.0","1920x1080","","6144.0999999940395","90.21","img/238/5.5/1/bw/001.png","","","relaxing"
"","","","","","animation","121","1275001","0.0-121.0","1920x1080","","5373.29999999702","96","img/314/5.5/1.5/bw/001.png","","","relaxing"
"","","","","","animation","122","1283449","0.0-122.0","1920x1080","","8446.90000000596","44.71","img/314/4.5/0.66667/bw/001.png","","","relaxing"
"","","","","","animation","123","1295881","0.0-123.0","1920x1080","","12431.10000000894","80","img/238/5.5/0.66667/bw/001.png","","","relaxing"
"","","","","","animation","124","1300169","0.0-124.0","1920x1080","","4287","4.89","img/117/3.5/0.66667/bw/001.png","","","relaxing"
"","","","","","animation","125","1303369","0.0-125.0","1920x1080","","3198.7000000029802","2.25","img/117/4/0.5/bw/001.png","","","relaxing"
"","","","","","animation","126","1314681","0.0-126.0","1920x1080","","11311","94.97","img/314/5.5/2/bw/001.png","","","relaxing"
"","","","","","animation","127","1326611","0.0-127.0","1920x1080","","11934.79999999702","60.19","img/314/4.5/1.5/bw/001.png","","","relaxing"
"","","","","","animation","128","1332171","0.0-128.0","1920x1080","","5557","19.58","img/238/4/1/bw/001.png","","","relaxing"
"","","","","","animation","129","1335755","0.0-129.0","1920x1080","","3582.4000000059605","0","img/117/2.5/1.5/bw/001.png","","","relaxing"
"","","","","","animation","130","1341827","0.0-130.0","1920x1080","","6071.4000000059605","4.23","img/117/4.5/0.5/bw/001.png","","","relaxing"
"","","","","","animation","131","1346675","0.0-131.0","1920x1080","","4846.600000008941","26.98","img/117/5.5/0.5/bw/001.png","","","relaxing"
"","","","","","animation","132","1352955","0.0-132.0","1920x1080","","6279","19.58","img/238/4/1.5/bw/001.png","","","relaxing"
"","","","","","animation","133","1356820","0.0-133.0","1920x1080","","3864.4000000059605","0","img/314/2.5/1/bw/001.png","","","relaxing"
"","","","","","animation","134","1360019","0.0-134.0","1920x1080","","3197.2000000029802","2.12","img/117/2.5/2/bw/001.png","","","relaxing"
"","","","","","animation","135","1364723","0.0-135.0","1920x1080","","4702.70000000298","11.90","img/314/3.5/1/bw/001.png","","","relaxing"
"","","","","","animation","136","1370835","0.0-136.0","1920x1080","","6111","7.41","img/117/3.5/2/bw/001.png","","","relaxing"
"","","","","","animation","137","1385386","0.0-137.0","1920x1080","","14550.5","5.69","img/238/4/0.5/bw/001.png","","","relaxing"
"","","","","","animation","138","1392117","0.0-138.0","1920x1080","","6730.70000000298","99","img/117/5.5/1.5/bw/001.png","","","relaxing"
"","","","","","animation","139","1398786","0.0-139.0","1920x1080","","6667.0999999940395","44.84","img/117/3.5/1/bw/001.png","","","relaxing"
"","","","","","animation","140","1408470","0.0-140.0","1920x1080","","9682.5","100","img/238/5.5/2/bw/001.png","","","relaxing"
"","","","","","animation","141","1417090","0.0-141.0","1920x1080","","8618.20000000298","44.71","img/314/4.5/1/bw/001.png","","","relaxing"
"","","","","","animation","142","1423290","0.0-142.0","1920x1080","","6198.79999999702","30.42","img/314/3.5/1.5/bw/001.png","","","relaxing"
"","","","","","animation","143","1429506","0.0-143.0","1920x1080","","6215","19.84","img/117/4.5/0.66667/bw/001.png","","","relaxing"
"","","","","","animation","144","1435754","0.0-144.0","1920x1080","","6246.29999999702","9.92","img/117/3.5/1.5/bw/001.png","","","relaxing"
"","","","","","animation","145","1439978","0.0-145.0","1920x1080","","4223.4000000059605","2.91","img/117/3.5/0.5/bw/001.png","","","relaxing"
"","","","","","animation","146","1450985","0.0-146.0","1920x1080","","11006.40000000596","65","img/314/4.5/2/bw/001.png","","","relaxing"
"","","","","","animation","147","1462266","0.0-147.0","1920x1080","","11280.40000000596","5.56","img/117/4/0.66667/bw/001.png","","","relaxing"
"","","","","","animation","148","1470577","0.0-148.0","1920x1080","","8310.10000000894","2","img/238/4.5/0.66667/bw/001.png","","","relaxing"
"","","","","","animation","149","1474083","0.0-149.0","1920x1080","","3504.9000000059605","0.40","img/117/2.5/1/bw/001.png","","","relaxing"
"","","","","","animation","150","1477058","0.0-150.0","1920x1080","","2973.7999999970198","0.00","img/314/2.5/0.5/bw/001.png","","","relaxing"
"","","","","","animation","151","1480377","0.0-151.0","1920x1080","","3317.2000000029802","3.17","img/238/2.5/2/bw/001.png","","","relaxing"
"","","","","","animation","152","1484593","0.0-152.0","1920x1080","","4215.100000008941","34.66","img/117/4/1.5/bw/001.png","","","relaxing"
"","","","","","animation","153","1488161","0.0-153.0","1920x1080","","3567.2000000029802","0.40","img/314/2.5/0.66667/bw/001.png","","","relaxing"
"","","","","","animation","154","1494425","0.0-154.0","1920x1080","","6263","89.29","img/238/5.5/1.5/bw/001.png","","","relaxing"
"","","","","","animation","155","1502576","0.0-155.0","1920x1080","","8150.70000000298","64.81","img/238/5.5/0.5/bw/001.png","","","relaxing"
"","","","","","animation","156","1527532","0.0-156.0","1920x1080","","24954.59999999404","80","img/117/5.5/1/bw/001.png","","","relaxing"
"","","","","","animation","157","1532120","0.0-157.0","1920x1080","","4587.399999991059","4.76","img/238/3.5/0.66667/bw/001.png","","","relaxing"
"","","","","","animation","158","1545449","0.0-158.0","1920x1080","","13327.10000000894","44.58","img/238/4.5/2/bw/001.png","","","relaxing"
"","","","","","html-button-response","159","1565351","0.0-159.0","1920x1080","","19894.59999999404","","<div class=""intro"">You are about to view a new series of animations.<br><br></div><div class=""intro"">You will evaluate them based on a different descriptor.<br><br></div><div class=""intro"">Move the slider to indicate how <strong style=""text-transform:capitalize"">INTERESTING</strong> you find each animation.<br><br></div><div class=""intro"">0 = Least Interesting<br></div><div class=""intro"">1 = Most Interesting<br><br></div><div class=""intro"">Remember to use the <strong><em>entire range</em></strong> of the slider to make your ratings.<br></div><div class=""intro"">Please <strong><em>take your time</em></strong> and carefully consider each rating you make.<br><br></div>","0","",""
"","","","","","call-function","160","1565352","0.0-160.0","1920x1080","","","","","","",""
"","","","","","animation","161","1573775","0.0-161.0","1920x1080","","8421.5","14.81","img/117/5.5/0.5/bw/001.png","","","interesting"
"","","","","","animation","162","1581123","0.0-162.0","1920x1080","","7347.199999988079","34.79","img/117/4.5/0.5/bw/001.png","","","interesting"
"","","","","","animation","163","1589959","0.0-163.0","1920x1080","","8834.70000000298","25.40","img/314/3.5/0.5/bw/001.png","","","interesting"
"","","","","","animation","164","1595555","0.0-164.0","1920x1080","","5595.100000008941","65.34","img/117/5.5/2/bw/001.png","","","interesting"
"","","","","","animation","165","1601756","0.0-165.0","1920x1080","","6199","35.32","img/117/4/1.5/bw/001.png","","","interesting"
"","","","","","animation","166","1611656","0.0-166.0","1920x1080","","9899.29999999702","24.74","img/238/4.5/1/bw/001.png","","","interesting"
"","","","","","animation","167","1619895","0.0-167.0","1920x1080","","8238.10000000894","20.11","img/117/4/1/bw/001.png","","","interesting"
"","","","","","animation","168","1628320","0.0-168.0","1920x1080","","8431","26.98","img/314/4.5/2/bw/001.png","","","interesting"
"","","","","","animation","169","1634272","0.0-169.0","1920x1080","","5950.70000000298","0","img/238/2.5/2/bw/001.png","","","interesting"
"","","","","","animation","170","1642520","0.0-170.0","1920x1080","","8247.10000000894","44.31","img/314/4.5/1/bw/001.png","","","interesting"
"","","","","","animation","171","1672448","0.0-171.0","1920x1080","","29926.90000000596","10.32","img/117/3.5/1.5/bw/001.png","","","interesting"
"","","","","","animation","172","1687570","0.0-172.0","1920x1080","","15118.79999999702","39.81","img/314/4.5/0.5/bw/001.png","","","interesting"
"","","","","","animation","173","1701811","0.0-173.0","1920x1080","","14239.300000011921","60.32","img/117/4.5/0.66667/bw/001.png","","","interesting"
"","","","","","animation","174","1706534","0.0-174.0","1920x1080","","4722","0","img/117/2.5/2/bw/001.png","","","interesting"
"","","","","","animation","175","1712002","0.0-175.0","1920x1080","","5467.20000000298","0.40","img/314/3.5/0.66667/bw/001.png","","","interesting"
"","","","","","animation","176","1732386","0.0-176.0","1920x1080","","20382.70000000298","0.13","img/314/2.5/1.5/bw/001.png","","","interesting"
"","","","","","animation","177","1737939","0.0-177.0","1920x1080","","5551.5","89.95","img/314/5.5/1/bw/001.png","","","interesting"
"","","","","","animation","178","1744433","0.0-178.0","1920x1080","","6492.800000011921","60.19","img/314/3.5/1.5/bw/001.png","","","interesting"
"","","","","","animation","179","1747834","0.0-179.0","1920x1080","","3399","2.51","img/238/2.5/1.5/bw/001.png","","","interesting"
"","","","","","animation","180","1751626","0.0-180.0","1920x1080","","3791.6000000089407","15.21","img/238/4.5/0.5/bw/001.png","","","interesting"
"","","","","","animation","181","1758386","0.0-181.0","1920x1080","","6758.5999999940395","5.16","img/238/4/0.66667/bw/001.png","","","interesting"
"","","","","","animation","182","1764700","0.0-182.0","1920x1080","","6313.5","12.17","img/238/4.5/0.66667/bw/001.png","","","interesting"
"","","","","","animation","183","1770983","0.0-183.0","1920x1080","","6282.29999999702","5.16","img/238/4/1.5/bw/001.png","","","interesting"
"","","","","","animation","184","1777067","0.0-184.0","1920x1080","","6082.0999999940395","89.68","img/314/5.5/0.5/bw/001.png","","","interesting"
"","","","","","animation","185","1781018","0.0-185.0","1920x1080","","3949.2999999970198","97","img/117/5.5/1/bw/001.png","","","interesting"
"","","","","","animation","186","1784818","0.0-186.0","1920x1080","","3798.6000000089407","0.00","img/314/2.5/0.5/bw/001.png","","","interesting"
"","","","","","animation","187","1788134","0.0-187.0","1920x1080","","3315","0.13","img/238/3.5/0.5/bw/001.png","","","interesting"
"","","","","","animation","188","1790534","0.0-188.0","1920x1080","","2399.5","0.13","img/238/3.5/0.66667/bw/001.png","","","interesting"
"","","","","","animation","189","1794354","0.0-189.0","1920x1080","","3818.7999999970198","7","img/117/4.5/1/bw/001.png","","","interesting"
"","","","","","animation","190","1797833","0.0-190.0","1920x1080","","3478.6000000089407","0.53","img/238/4/0.5/bw/001.png","","","interesting"
"","","","","","animation","191","1802431","0.0-191.0","1920x1080","","4599.0999999940395","0","img/117/3.5/0.66667/bw/001.png","","","interesting"
"","","","","","animation","192","1809447","0.0-192.0","1920x1080","","7015.4000000059605","19.84","img/238/3.5/2/bw/001.png","","","interesting"
"","","","","","animation","193","1815087","0.0-193.0","1920x1080","","5638.70000000298","0.00","img/314/2.5/0.66667/bw/001.png","","","interesting"
"","","","","","animation","194","1821615","0.0-194.0","1920x1080","","6526.100000008941","40.48","img/117/4.5/1.5/bw/001.png","","","interesting"
"","","","","","animation","195","1835855","0.0-195.0","1920x1080","","14239.60000000894","84.79","img/238/5.5/0.66667/bw/001.png","","","interesting"
"","","","","","animation","196","1849183","0.0-196.0","1920x1080","","13325.40000000596","25.13","img/314/3.5/1/bw/001.png","","","interesting"
"","","","","","animation","197","1857364","0.0-197.0","1920x1080","","8179.9000000059605","90.21","img/238/5.5/0.5/bw/001.png","","","interesting"
"","","","","","animation","198","1865966","0.0-198.0","1920x1080","","8597.79999999702","94.97","img/314/5.5/1.5/bw/001.png","","","interesting"
"","","","","","animation","199","1872400","0.0-199.0","1920x1080","","6431.699999988079","7.41","img/314/4/0.5/bw/001.png","","","interesting"
"","","","","","animation","200","1876601","0.0-200.0","1920x1080","","4199.5999999940395","89.68","img/117/5.5/1.5/bw/001.png","","","interesting"
"","","","","","animation","201","1880182","0.0-201.0","1920x1080","","3580.4000000059605","0","img/117/2.5/1/bw/001.png","","","interesting"
"","","","","","animation","202","1886916","0.0-202.0","1920x1080","","6732.5","21","img/314/4.5/0.66667/bw/001.png","","","interesting"
"","","","","","animation","203","1890017","0.0-203.0","1920x1080","","3098.6000000089407","35.05","img/314/3.5/2/bw/001.png","","","interesting"
"","","","","","animation","204","1909889","0.0-204.0","1920x1080","","19871.5","59.66","img/238/4.5/1.5/bw/001.png","","","interesting"
"","","","","","animation","205","1920083","0.0-205.0","1920x1080","","10191.89999999106","70.11","img/117/5.5/0.66667/bw/001.png","","","interesting"
"","","","","","animation","206","1931705","0.0-206.0","1920x1080","","11620.5","30","img/117/3.5/2/bw/001.png","","","interesting"
"","","","","","animation","207","1944505","0.0-207.0","1920x1080","","12798.800000011921","38.36","img/314/4.5/1.5/bw/001.png","","","interesting"
"","","","","","animation","208","1952369","0.0-208.0","1920x1080","","7862","24.87","img/314/4/1/bw/001.png","","","interesting"
"","","","","","animation","209","1956349","0.0-209.0","1920x1080","","3979.1000000089407","16.53","img/117/4/0.5/bw/001.png","","","interesting"
"","","","","","animation","210","1961849","0.0-210.0","1920x1080","","5498.5","0.40","img/314/2.5/2/bw/001.png","","","interesting"
"","","","","","animation","211","1965750","0.0-211.0","1920x1080","","3899.7000000029802","0.13","img/238/2.5/0.66667/bw/001.png","","","interesting"
"","","","","","animation","212","1982367","0.0-212.0","1920x1080","","16617.79999999702","79.63","img/238/5.5/2/bw/001.png","","","interesting"
"","","","","","animation","213","1991472","0.0-213.0","1920x1080","","9101.300000011921","50.26","img/117/4.5/2/bw/001.png","","","interesting"
"","","","","","animation","214","2006300","0.0-214.0","1920x1080","","14825.09999999404","75.40","img/314/5.5/2/bw/001.png","","","interesting"
"","","","","","animation","215","2013072","0.0-215.0","1920x1080","","6770.4000000059605","19.84","img/117/4/0.66667/bw/001.png","","","interesting"
"","","","","","animation","216","2018272","0.0-216.0","1920x1080","","5198.70000000298","10.32","img/117/3.5/0.5/bw/001.png","","","interesting"
"","","","","","animation","217","2027183","0.0-217.0","1920x1080","","8910.20000000298","16.53","img/238/3.5/1.5/bw/001.png","","","interesting"
"","","","","","animation","218","2032431","0.0-218.0","1920x1080","","5246","4.37","img/314/4/0.66667/bw/001.png","","","interesting"
"","","","","","animation","219","2036271","0.0-219.0","1920x1080","","3838.7999999970198","0","img/117/2.5/0.5/bw/001.png","","","interesting"
"","","","","","animation","220","2047116","0.0-220.0","1920x1080","","10841.29999999702","25.13","img/238/4/2/bw/001.png","","","interesting"
"","","","","","animation","221","2053938","0.0-221.0","1920x1080","","6820","8.99","img/238/3.5/1/bw/001.png","","","interesting"
"","","","","","animation","222","2058001","0.0-222.0","1920x1080","","4062.4000000059605","6.22","img/117/3.5/1/bw/001.png","","","interesting"
"","","","","","animation","223","2068055","0.0-223.0","1920x1080","","10052.5","81.75","img/314/5.5/0.66667/bw/001.png","","","interesting"
"","","","","","animation","224","2096274","0.0-224.0","1920x1080","","28216.59999999404","69.58","img/238/4.5/2/bw/001.png","","","interesting"
"","","","","","animation","225","2101734","0.0-225.0","1920x1080","","5462.399999991059","0","img/117/2.5/1.5/bw/001.png","","","interesting"
"","","","","","animation","226","2117762","0.0-226.0","1920x1080","","16027","55.29","img/314/4/2/bw/001.png","","","interesting"
"","","","","","animation","227","2121145","0.0-227.0","1920x1080","","3381.7999999970198","0.13","img/314/2.5/1/bw/001.png","","","interesting"
"","","","","","animation","228","2127013","0.0-228.0","1920x1080","","5865.79999999702","7.01","img/238/4/1/bw/001.png","","","interesting"
"","","","","","animation","229","2132814","0.0-229.0","1920x1080","","5799.70000000298","17.86","img/314/4/1.5/bw/001.png","","","interesting"
"","","","","","animation","230","2145582","0.0-230.0","1920x1080","","12764.5","76.19","img/238/5.5/1/bw/001.png","","","interesting"
"","","","","","animation","231","2154382","0.0-231.0","1920x1080","","8798.09999999404","59.79","img/117/4/2/bw/001.png","","","interesting"
"","","","","","animation","232","2157430","0.0-232.0","1920x1080","","3046.7000000029802","0.13","img/238/2.5/1/bw/001.png","","","interesting"
"","","","","","animation","233","2174626","0.0-233.0","1920x1080","","17197.60000000894","89.95","img/238/5.5/1.5/bw/001.png","","","interesting"
"","","","","","animation","234","2178111","0.0-234.0","1920x1080","","3480.3999999910593","0","img/117/2.5/0.66667/bw/001.png","","","interesting"
"","","","","","animation","235","2181811","0.0-235.0","1920x1080","","3699.6000000089407","0.40","img/238/2.5/0.5/bw/001.png","","","interesting"
"","","","","","html-button-response","236","2201884","0.0-236.0","1920x1080","","20071.10000000894","","<div class=""intro"">You are about to view a new series of animations.<br><br></div><div class=""intro"">You will evaluate them based on a different descriptor.<br><br></div><div class=""intro"">Move the slider to indicate how <strong style=""text-transform:capitalize"">APPEALING</strong> you find each animation.<br><br></div><div class=""intro"">0 = Least Appealing<br></div><div class=""intro"">1 = Most Appealing<br><br></div><div class=""intro"">Remember to use the <strong><em>entire range</em></strong> of the slider to make your ratings.<br></div><div class=""intro"">Please <strong><em>take your time</em></strong> and carefully consider each rating you make.<br><br></div>","0","",""
"","","","","","call-function","237","2201886","0.0-237.0","1920x1080","","","","","","",""
"","","","","","animation","238","2209543","0.0-238.0","1920x1080","","7657.0999999940395","10","img/117/4/0.5/bw/001.png","","","appealing"
"","","","","","animation","239","2212527","0.0-239.0","1920x1080","","2982.0999999940395","0","img/314/2.5/0.66667/bw/001.png","","","appealing"
"","","","","","animation","240","2221929","0.0-240.0","1920x1080","","9402.300000011921","15.34","img/238/4/2/bw/001.png","","","appealing"
"","","","","","animation","241","2225024","0.0-241.0","1920x1080","","3094.2000000029802","0.13","img/117/2.5/2/bw/001.png","","","appealing"
"","","","","","animation","242","2233324","0.0-242.0","1920x1080","","8298.40000000596","69.84","img/238/5.5/0.5/bw/001.png","","","appealing"
"","","","","","animation","243","2243107","0.0-243.0","1920x1080","","9781.79999999702","25.13","img/314/3.5/2/bw/001.png","","","appealing"
"","","","","","animation","244","2250281","0.0-244.0","1920x1080","","7172.5","20.24","img/238/4.5/1.5/bw/001.png","","","appealing"
"","","","","","animation","245","2258807","0.0-245.0","1920x1080","","8525.09999999404","5.42","img/314/3.5/0.5/bw/001.png","","","appealing"
"","","","","","animation","246","2265792","0.0-246.0","1920x1080","","6984.29999999702","74.60","img/314/5.5/0.66667/bw/001.png","","","appealing"
"","","","","","animation","247","2272174","0.0-247.0","1920x1080","","6380.5","35.19","img/238/4.5/1/bw/001.png","","","appealing"
"","","","","","animation","248","2280757","0.0-248.0","1920x1080","","8581.10000000894","24.60","img/314/4.5/0.66667/bw/001.png","","","appealing"
"","","","","","animation","249","2285306","0.0-249.0","1920x1080","","4549","14.81","img/314/4.5/0.5/bw/001.png","","","appealing"
"","","","","","animation","250","2294040","0.0-250.0","1920x1080","","8732.10000000894","39.95","img/238/4.5/2/bw/001.png","","","appealing"
"","","","","","animation","251","2299873","0.0-251.0","1920x1080","","5832.5","50.13","img/314/5.5/0.5/bw/001.png","","","appealing"
"","","","","","animation","252","2302648","0.0-252.0","1920x1080","","2773.7999999970198","4.76","img/238/3.5/0.5/bw/001.png","","","appealing"
"","","","","","animation","253","2308624","0.0-253.0","1920x1080","","5974.20000000298","34.92","img/117/4.5/1.5/bw/001.png","","","appealing"
"","","","","","animation","254","2318696","0.0-254.0","1920x1080","","10070.70000000298","10.05","img/117/3.5/1.5/bw/001.png","","","appealing"
"","","","","","animation","255","2324406","0.0-255.0","1920x1080","","5708.600000008941","7.54","img/238/4/1/bw/001.png","","","appealing"
"","","","","","animation","256","2327648","0.0-256.0","1920x1080","","3240.9000000059605","3.04","img/117/4.5/0.66667/bw/001.png","","","appealing"
"","","","","","animation","257","2338106","0.0-257.0","1920x1080","","10456.70000000298","12.83","img/238/4/1.5/bw/001.png","","","appealing"
"","","","","","animation","258","2340838","0.0-258.0","1920x1080","","2731.7999999970198","0.00","img/238/2.5/1/bw/001.png","","","appealing"
"","","","","","animation","259","2348806","0.0-259.0","1920x1080","","7967","89.95","img/117/5.5/2/bw/001.png","","","appealing"
"","","","","","animation","260","2358222","0.0-260.0","1920x1080","","9414.29999999702","4","img/117/4.5/0.5/bw/001.png","","","appealing"
"","","","","","animation","261","2370726","0.0-261.0","1920x1080","","12503","26","img/117/4.5/2/bw/001.png","","","appealing"
"","","","","","animation","262","2390262","0.0-262.0","1920x1080","","19534.5","57.41","img/314/4.5/1.5/bw/001.png","","","appealing"
"","","","","","animation","263","2394604","0.0-263.0","1920x1080","","4340.5999999940395","83.73","img/238/5.5/1/bw/001.png","","","appealing"
"","","","","","animation","264","2414605","0.0-264.0","1920x1080","","20000.40000000596","1","img/238/3.5/2/bw/001.png","","","appealing"
"","","","","","animation","265","2424637","0.0-265.0","1920x1080","","10029.699999988079","95","img/314/5.5/1.5/bw/001.png","","","appealing"
"","","","","","animation","266","2431304","0.0-266.0","1920x1080","","6665.5","4.63","img/117/4/1/bw/001.png","","","appealing"
"","","","","","animation","267","2439270","0.0-267.0","1920x1080","","7965.20000000298","100","img/238/5.5/1.5/bw/001.png","","","appealing"
"","","","","","animation","268","2443157","0.0-268.0","1920x1080","","3886","0.53","img/314/3.5/1.5/bw/001.png","","","appealing"
"","","","","","animation","269","2445877","0.0-269.0","1920x1080","","2718.5","0.00","img/314/2.5/1.5/bw/001.png","","","appealing"
"","","","","","animation","270","2450637","0.0-270.0","1920x1080","","4757.20000000298","0","img/238/2.5/1.5/bw/001.png","","","appealing"
"","","","","","animation","271","2458557","0.0-271.0","1920x1080","","7919.5","5.82","img/238/4.5/0.5/bw/001.png","","","appealing"
"","","","","","animation","272","2462501","0.0-272.0","1920x1080","","3944.300000011921","0","img/117/2.5/1.5/bw/001.png","","","appealing"
"","","","","","animation","273","2466468","0.0-273.0","1920x1080","","3966.1000000089407","0.40","img/314/2.5/0.5/bw/001.png","","","appealing"
"","","","","","animation","274","2472585","0.0-274.0","1920x1080","","6115.4000000059605","2.12","img/117/4/0.66667/bw/001.png","","","appealing"
"","","","","","animation","275","2481351","0.0-275.0","1920x1080","","8765.09999999404","79.50","img/117/5.5/1.5/bw/001.png","","","appealing"
"","","","","","animation","276","2489307","0.0-276.0","1920x1080","","7954.4000000059605","90","img/238/5.5/2/bw/001.png","","","appealing"
"","","","","","animation","277","2499533","0.0-277.0","1920x1080","","10224.20000000298","70.37","img/238/5.5/0.66667/bw/001.png","","","appealing"
"","","","","","animation","278","2507107","0.0-278.0","1920x1080","","7572.300000011921","19.71","img/238/3.5/1/bw/001.png","","","appealing"
"","","","","","animation","279","2513835","0.0-279.0","1920x1080","","6726.300000011921","87.04","img/314/5.5/1/bw/001.png","","","appealing"
"","","","","","animation","280","2516323","0.0-280.0","1920x1080","","2486.5999999940395","0","img/238/2.5/2/bw/001.png","","","appealing"
"","","","","","animation","281","2523709","0.0-281.0","1920x1080","","7382.4000000059605","59.52","img/117/5.5/0.66667/bw/001.png","","","appealing"
"","","","","","animation","282","2527141","0.0-282.0","1920x1080","","3430.7999999970198","0.40","img/314/2.5/1/bw/001.png","","","appealing"
"","","","","","animation","283","2531904","0.0-283.0","1920x1080","","4760.9000000059605","9.66","img/117/3.5/2/bw/001.png","","","appealing"
"","","","","","animation","284","2535303","0.0-284.0","1920x1080","","3398.5","0.79","img/238/2.5/0.66667/bw/001.png","","","appealing"
"","","","","","animation","285","2539387","0.0-285.0","1920x1080","","4082.2000000029802","8.07","img/238/3.5/1.5/bw/001.png","","","appealing"
"","","","","","animation","286","2543570","0.0-286.0","1920x1080","","4181.5","5.03","img/314/4/1/bw/001.png","","","appealing"
"","","","","","animation","287","2546277","0.0-287.0","1920x1080","","2706.1000000089407","2.12","img/238/4/0.66667/bw/001.png","","","appealing"
"","","","","","animation","288","2553525","0.0-288.0","1920x1080","","7246.399999991059","15.08","img/117/4/2/bw/001.png","","","appealing"
"","","","","","animation","289","2565720","0.0-289.0","1920x1080","","12193.29999999702","3.70","img/117/3.5/1/bw/001.png","","","appealing"
"","","","","","animation","290","2573387","0.0-290.0","1920x1080","","7665.29999999702","0","img/314/3.5/0.66667/bw/001.png","","","appealing"
"","","","","","animation","291","2579093","0.0-291.0","1920x1080","","5704","100","img/314/5.5/2/bw/001.png","","","appealing"
"","","","","","animation","292","2587870","0.0-292.0","1920x1080","","8775.5","39.95","img/314/4.5/1/bw/001.png","","","appealing"
"","","","","","animation","293","2604109","0.0-293.0","1920x1080","","16237.90000000596","30","img/117/4/1.5/bw/001.png","","","appealing"
"","","","","","animation","294","2609892","0.0-294.0","1920x1080","","5781.600000008941","40.08","img/117/5.5/0.5/bw/001.png","","","appealing"
"","","","","","animation","295","2614423","0.0-295.0","1920x1080","","4529.600000008941","4.10","img/117/3.5/0.66667/bw/001.png","","","appealing"
"","","","","","animation","296","2617420","0.0-296.0","1920x1080","","2995.4000000059605","0.53","img/238/4/0.5/bw/001.png","","","appealing"
"","","","","","animation","297","2620756","0.0-297.0","1920x1080","","3335.5","0","img/314/4/0.5/bw/001.png","","","appealing"
"","","","","","animation","298","2626069","0.0-298.0","1920x1080","","5311.600000008941","15.21","img/117/4.5/1/bw/001.png","","","appealing"
"","","","","","animation","299","2641269","0.0-299.0","1920x1080","","15190.60000000894","89.55","img/117/5.5/1/bw/001.png","","","appealing"
"","","","","","animation","300","2644428","0.0-300.0","1920x1080","","3157.4000000059605","0.13","img/117/2.5/0.5/bw/001.png","","","appealing"
"","","","","","animation","301","2659433","0.0-301.0","1920x1080","","15003.89999999106","70.24","img/314/4.5/2/bw/001.png","","","appealing"
"","","","","","animation","302","2662443","0.0-302.0","1920x1080","","3008.7999999970198","2.65","img/117/3.5/0.5/bw/001.png","","","appealing"
"","","","","","animation","303","2665532","0.0-303.0","1920x1080","","3087.4000000059605","0","img/117/2.5/0.66667/bw/001.png","","","appealing"
"","","","","","animation","304","2668748","0.0-304.0","1920x1080","","3214.3999999910593","0","img/238/2.5/0.5/bw/001.png","","","appealing"
"","","","","","animation","305","2676477","0.0-305.0","1920x1080","","7727.20000000298","10.32","img/314/2.5/2/bw/001.png","","","appealing"
"","","","","","animation","306","2685451","0.0-306.0","1920x1080","","8973","13.62","img/314/4/0.66667/bw/001.png","","","appealing"
"","","","","","animation","307","2691884","0.0-307.0","1920x1080","","6430.899999991059","25.26","img/314/4/1.5/bw/001.png","","","appealing"
"","","","","","animation","308","2696028","0.0-308.0","1920x1080","","4142.300000011921","7","img/238/3.5/0.66667/bw/001.png","","","appealing"
"","","","","","animation","309","2704684","0.0-309.0","1920x1080","","8654.699999988079","29","img/314/4/2/bw/001.png","","","appealing"
"","","","","","animation","310","2710348","0.0-310.0","1920x1080","","5662.5999999940395","14.02","img/314/3.5/1/bw/001.png","","","appealing"
"","","","","","animation","311","2713960","0.0-311.0","1920x1080","","3610","0.13","img/117/2.5/1/bw/001.png","","","appealing"
"","","","","","animation","312","2718755","0.0-312.0","1920x1080","","4794.20000000298","39.95","img/238/4.5/0.66667/bw/001.png","","","appealing"
"","","","","","html-button-response","313","2739215","0.0-313.0","1920x1080","","20457.09999999404","","<div class=""intro"">You are about to view a new series of animations.<br><br></div><div class=""intro"">You will evaluate them based on a different descriptor.<br><br></div><div class=""intro"">Move the slider to indicate how <strong style=""text-transform:capitalize"">NATURAL</strong> you find each animation.<br><br></div><div class=""intro"">0 = Least Natural<br></div><div class=""intro"">1 = Most Natural<br><br></div><div class=""intro"">Remember to use the <strong><em>entire range</em></strong> of the slider to make your ratings.<br></div><div class=""intro"">Please <strong><em>take your time</em></strong> and carefully consider each rating you make.<br><br></div>","0","",""
"","","","","","call-function","314","2739217","0.0-314.0","1920x1080","","","","","","",""
"","","","","","animation","315","2749812","0.0-315.0","1920x1080","","10593.70000000298","74.74","img/314/5.5/0.5/bw/001.png","","","natural"
"","","","","","animation","316","2757612","0.0-316.0","1920x1080","","7798.600000008941","20.37","img/314/2.5/2/bw/001.png","","","natural"
"","","","","","animation","317","2763067","0.0-317.0","1920x1080","","5462.70000000298","35.45","img/314/4.5/2/bw/001.png","","","natural"
"","","","","","animation","318","2772867","0.0-318.0","1920x1080","","9798","29.50","img/314/4.5/0.66667/bw/001.png","","","natural"
"","","","","","animation","319","2777939","0.0-319.0","1920x1080","","5069.29999999702","90.34","img/314/5.5/1/bw/001.png","","","natural"
"","","","","","animation","320","2785409","0.0-320.0","1920x1080","","7467.9000000059605","39.68","img/117/4/1.5/bw/001.png","","","natural"
"","","","","","animation","321","2791442","0.0-321.0","1920x1080","","6030.600000008941","9.52","img/117/3.5/0.66667/bw/001.png","","","natural"
"","","","","","animation","322","2796875","0.0-322.0","1920x1080","","5431.100000008941","19.71","img/238/4/2/bw/001.png","","","natural"
"","","","","","animation","323","2817657","0.0-323.0","1920x1080","","20780.59999999404","37.30","img/117/4.5/0.5/bw/001.png","","","natural"
"","","","","","animation","324","2824595","0.0-324.0","1920x1080","","6928.4000000059605","50.00","img/117/4.5/2/bw/001.png","","","natural"
"","","","","","animation","325","2830836","0.0-325.0","1920x1080","","6239.100000008941","30.16","img/314/4/1.5/bw/001.png","","","natural"
"","","","","","animation","326","2834597","0.0-326.0","1920x1080","","3759.7999999970198","85.45","img/117/5.5/1/bw/001.png","","","natural"
"","","","","","animation","327","2841942","0.0-327.0","1920x1080","","7343.79999999702","90.08","img/238/5.5/0.66667/bw/001.png","","","natural"
"","","","","","animation","328","2847619","0.0-328.0","1920x1080","","5674.79999999702","0.40","img/314/2.5/0.5/bw/001.png","","","natural"
"","","","","","animation","329","2857242","0.0-329.0","1920x1080","","9621.5","29.63","img/117/4.5/0.66667/bw/001.png","","","natural"
"","","","","","animation","330","2860716","0.0-330.0","1920x1080","","3472","45.24","img/314/4/2/bw/001.png","","","natural"
"","","","","","animation","331","2863315","0.0-331.0","1920x1080","","2598","0.40","img/238/2.5/1/bw/001.png","","","natural"
"","","","","","animation","332","2870030","0.0-332.0","1920x1080","","6713.600000008941","69.97","img/117/5.5/2/bw/001.png","","","natural"
"","","","","","animation","333","2876059","0.0-333.0","1920x1080","","6027.5","0.53","img/238/2.5/0.66667/bw/001.png","","","natural"
"","","","","","animation","334","2882651","0.0-334.0","1920x1080","","6588.29999999702","55.69","img/117/4.5/1.5/bw/001.png","","","natural"
"","","","","","animation","335","2887981","0.0-335.0","1920x1080","","5328.5","71.69","img/117/5.5/0.5/bw/001.png","","","natural"
"","","","","","animation","336","2910076","0.0-336.0","1920x1080","","22093.60000000894","90.48","img/238/5.5/1.5/bw/001.png","","","natural"
"","","","","","animation","337","2918866","0.0-337.0","1920x1080","","8788.10000000894","18.39","img/238/4/0.66667/bw/001.png","","","natural"
"","","","","","animation","338","2926131","0.0-338.0","1920x1080","","7264","84.92","img/117/5.5/1.5/bw/001.png","","","natural"
"","","","","","animation","339","2929925","0.0-339.0","1920x1080","","3792.0999999940395","2.12","img/238/2.5/0.5/bw/001.png","","","natural"
"","","","","","animation","340","2935787","0.0-340.0","1920x1080","","5860.899999991059","0","img/314/2.5/1/bw/001.png","","","natural"
"","","","","","animation","341","2939615","0.0-341.0","1920x1080","","3825.2999999970198","15.48","img/238/3.5/1/bw/001.png","","","natural"
"","","","","","animation","342","2950707","0.0-342.0","1920x1080","","11099.70000000298","30.03","img/314/4.5/1/bw/001.png","","","natural"
"","","","","","animation","343","2962870","0.0-343.0","1920x1080","","12160.90000000596","88.23","img/238/4/1.5/bw/001.png","","","natural"
"","","","","","animation","344","2983058","0.0-344.0","1920x1080","","20185.90000000596","58","img/314/4.5/0.5/bw/001.png","","","natural"
"","","","","","animation","345","2986094","0.0-345.0","1920x1080","","3034.699999988079","0","img/314/2.5/1.5/bw/001.png","","","natural"
"","","","","","animation","346","2990507","0.0-346.0","1920x1080","","4411.20000000298","21.83","img/314/4/0.5/bw/001.png","","","natural"
"","","","","","animation","347","2996602","0.0-347.0","1920x1080","","6093.600000008941","16.80","img/238/4.5/0.66667/bw/001.png","","","natural"
"","","","","","animation","348","3000209","0.0-348.0","1920x1080","","3605","8.33","img/117/4/0.5/bw/001.png","","","natural"
"","","","","","animation","349","3008678","0.0-349.0","1920x1080","","8467.40000000596","50.00","img/238/4.5/2/bw/001.png","","","natural"
"","","","","","animation","350","3050594","0.0-350.0","1920x1080","","41915.29999999702","78","img/238/4.5/1.5/bw/001.png","","","natural"
"","","","","","animation","351","3069715","0.0-351.0","1920x1080","","19104.89999999106","80.42","img/117/4.5/1/bw/001.png","","","natural"
"","","","","","animation","352","3087100","0.0-352.0","1920x1080","","17383.29999999702","95","img/238/5.5/2/bw/001.png","","","natural"
"","","","","","animation","353","3093196","0.0-353.0","1920x1080","","6092.20000000298","10.05","img/238/3.5/0.66667/bw/001.png","","","natural"
"","","","","","animation","354","3096228","0.0-354.0","1920x1080","","3030.1000000089407","0.13","img/238/2.5/2/bw/001.png","","","natural"
"","","","","","animation","355","3112287","0.0-355.0","1920x1080","","16057.79999999702","27.65","img/314/4/0.66667/bw/001.png","","","natural"
"","","","","","animation","356","3117916","0.0-356.0","1920x1080","","5627.399999991059","19.18","img/314/3.5/0.66667/bw/001.png","","","natural"
"","","","","","animation","357","3125280","0.0-357.0","1920x1080","","7358.9000000059605","20.50","img/117/4/1/bw/001.png","","","natural"
"","","","","","animation","358","3128048","0.0-358.0","1920x1080","","2767.1000000089407","0.40","img/117/2.5/1.5/bw/001.png","","","natural"
"","","","","","animation","359","3131835","0.0-359.0","1920x1080","","3785.4000000059605","5.29","img/238/3.5/2/bw/001.png","","","natural"
"","","","","","animation","360","3135607","0.0-360.0","1920x1080","","3770.6000000089407","13.76","img/238/3.5/1.5/bw/001.png","","","natural"
"","","","","","animation","361","3145929","0.0-361.0","1920x1080","","10319.29999999702","27","img/117/4/2/bw/001.png","","","natural"
"","","","","","animation","362","3151394","0.0-362.0","1920x1080","","5463.699999988079","6.88","img/238/4/1/bw/001.png","","","natural"
"","","","","","animation","363","3157813","0.0-363.0","1920x1080","","6417","2","img/117/4/0.66667/bw/001.png","","","natural"
"","","","","","animation","364","3162787","0.0-364.0","1920x1080","","4972.79999999702","0.40","img/314/3.5/2/bw/001.png","","","natural"
"","","","","","animation","365","3166463","0.0-365.0","1920x1080","","3674.0999999940395","0","img/238/3.5/0.5/bw/001.png","","","natural"
"","","","","","animation","366","3171404","0.0-366.0","1920x1080","","4939.70000000298","3.70","img/314/3.5/0.5/bw/001.png","","","natural"
"","","","","","animation","367","3175263","0.0-367.0","1920x1080","","3856.5999999940395","0.13","img/117/2.5/2/bw/001.png","","","natural"
"","","","","","animation","368","3181591","0.0-368.0","1920x1080","","6329.0999999940395","79.63","img/117/5.5/0.66667/bw/001.png","","","natural"
"","","","","","animation","369","3189806","0.0-369.0","1920x1080","","8213.5","84.66","img/238/5.5/0.5/bw/001.png","","","natural"
"","","","","","animation","370","3193945","0.0-370.0","1920x1080","","4136.9000000059605","0.40","img/117/2.5/0.5/bw/001.png","","","natural"
"","","","","","animation","371","3197882","0.0-371.0","1920x1080","","3935.5","4.76","img/314/3.5/1/bw/001.png","","","natural"
"","","","","","animation","372","3203411","0.0-372.0","1920x1080","","5526.79999999702","99","img/314/5.5/1.5/bw/001.png","","","natural"
"","","","","","animation","373","3210292","0.0-373.0","1920x1080","","6879.100000008941","33.86","img/314/3.5/1.5/bw/001.png","","","natural"
"","","","","","animation","374","3224291","0.0-374.0","1920x1080","","13997","59.92","img/314/4.5/1.5/bw/001.png","","","natural"
"","","","","","animation","375","3235025","0.0-375.0","1920x1080","","10731.20000000298","0.00","img/314/2.5/0.66667/bw/001.png","","","natural"
"","","","","","animation","376","3249664","0.0-376.0","1920x1080","","14635.60000000894","70","img/117/3.5/1/bw/001.png","","","natural"
"","","","","","animation","377","3254559","0.0-377.0","1920x1080","","4889.399999991059","35.19","img/117/3.5/0.5/bw/001.png","","","natural"
"","","","","","animation","378","3258225","0.0-378.0","1920x1080","","3664.5999999940395","93.39","img/238/5.5/1/bw/001.png","","","natural"
"","","","","","animation","379","3264763","0.0-379.0","1920x1080","","6536.5999999940395","64.68","img/314/4/1/bw/001.png","","","natural"
"","","","","","animation","380","3272363","0.0-380.0","1920x1080","","7597.9000000059605","70","img/238/4.5/1/bw/001.png","","","natural"
"","","","","","animation","381","3277361","0.0-381.0","1920x1080","","4995.20000000298","19.97","img/117/3.5/1.5/bw/001.png","","","natural"
"","","","","","animation","382","3279659","0.0-382.0","1920x1080","","2296.7999999970198","0.40","img/117/2.5/1/bw/001.png","","","natural"
"","","","","","animation","383","3282611","0.0-383.0","1920x1080","","2950.6000000089407","0","img/117/2.5/0.66667/bw/001.png","","","natural"
"","","","","","animation","384","3286091","0.0-384.0","1920x1080","","3479","0","img/238/2.5/1.5/bw/001.png","","","natural"
"","","","","","animation","385","3292227","0.0-385.0","1920x1080","","6134","87.43","img/314/5.5/0.66667/bw/001.png","","","natural"
"","","","","","animation","386","3299156","0.0-386.0","1920x1080","","6927.100000008941","100","img/314/5.5/2/bw/001.png","","","natural"
"","","","","","animation","387","3308394","0.0-387.0","1920x1080","","9221.29999999702","13.23","img/238/4/0.5/bw/001.png","","","natural"
"","","","","","animation","388","3311833","0.0-388.0","1920x1080","","3437.2999999970198","6.48","img/238/4.5/0.5/bw/001.png","","","natural"
"","","","","","animation","389","3315389","0.0-389.0","1920x1080","","3554.2999999970198","12.17","img/117/3.5/2/bw/001.png","","","natural"
"","","","","","html-button-response","390","3378451","0.0-390.0","1920x1080","","63056.20000000298","","<strong>Study Debriefing</strong><br><p class=""debrief""><strong>Background:</strong> The patterns you rated are called <em>fractals</em>. The term fractal describes a class of irregular curves or shapes for which any suitably chosen part is similar in shape to a given larger or smaller part when magnified or reduced to the same size. Fractal properties are found throughout the natural and manmade world. The series of animations you saw today displayed animated fractal patterns of a varying complexity.</p><p class=""debrief""><strong>Purpose of this study:</strong> We hope to better understand how the perception of static fractals differs from the perception of animated fractals, and how the speed of the animated patterns influences people&apos;s perception of them. Fractals allow us to study the perception of aesthetic properties (e.g. the perceived level of beauty in an image) without using recognizable content, which makes them an excellent tool for studying abstract aesthetic judgement.</p><p class=""debrief""><strong>Your part:</strong> Your participation has helped us to further understand how humans perceive these patterns across different levels of speed and complexity. This research with allow us to better understand how the visual system and brain process our ever-changing visual environments.<p class=""debrief""><strong>Feedback and Further information:</strong> If you have additional questions about this study, please feel free to ask the researcher, Nathan Gonzales-Hess at nhess @ uoregon.edu. If you have any questions concerning your rights as a research participant, please contact Research Compliance Services, 5237 University of Oregon, Eugene, OR 97403, 541-346-2510, or email researchCompliance @ uoregon.edu. You can also email the Human Subjects Coordinator for psychology and linguistics research at hscoord @ uoregon.edu. ","0","",""
"","","","","","html-button-response","391","3383687","0.0-391.0","1920x1080","","5232.4000000059605","","Thank you for participating in this study. <br>Please click below to finish the experiment and submit your responses.<br><br>","0","",""
"true","","","","","fullscreen","392","3384706","0.0-392.0","1920x1080","10:46 14/10/2022","","","","","",""
