"success","timeout","failed_images","failed_audio","failed_video","trial_type","trial_index","time_elapsed","internal_node_id","resolution","timeStamp","rt","response","stimulus","button_pressed","value","descriptor"
"true","false","[]","[]","[]","preload","0","6973","0.0-0.0","1920x1080","","","","","","",""
"true","false","[]","[]","[]","preload","1","14122","0.0-1.0","1920x1080","","","","","","",""
"true","false","[]","[]","[]","preload","2","21150","0.0-2.0","1920x1080","","","","","","",""
"true","","","","","fullscreen","3","27259","0.0-3.0","1920x1080","11:13 3/6/2022","","","","","",""
"","","","","","survey-html-form","4","124912","0.0-4.0","1920x1080","","97648.59999990463","{""age"":""19"",""gender"":""Male""}","","","",""
"","","","","","html-button-response","5","165552","0.0-5.0","1920x1080","","40639.300000190735","","<div class=""complex"">You are going to see a series of animations.<br><br></div><div class=""complex"">Move the slider to indicate how <strong style=""text-transform:capitalize"">COMPLEX</strong> you find each animation.<br><br></div><div class=""complex"">0 = Least Complex<br></div><div class=""complex"">1 = Most Complex<br><br></div><div class=""complex"">Remember to use the <strong><em>entire range</em></strong> of the slider to make your ratings.<br></div><div class=""complex"">Please <strong><em>take your time</em></strong> and carefully consider each rating you make.<br><br></div><div class=""complex"">The study has five sections and will take about 45 minutes to complete.<br><br></div>","0","",""
"","","","","","call-function","6","165553","0.0-6.0","1920x1080","","","","","","",""
"","","","","","animation","7","183432","0.0-7.0","1920x1080","","17876.700000047684","70.90","img/314/4/1/bw/001.png","","","complex"
"","","","","","animation","8","187961","0.0-8.0","1920x1080","","4527.399999856949","89.15","img/238/2.5/1/bw/001.png","","","complex"
"","","","","","animation","9","190384","0.0-9.0","1920x1080","","2421.899999856949","29.76","img/314/4/2/bw/001.png","","","complex"
"","","","","","animation","10","193232","0.0-10.0","1920x1080","","2845.9000000953674","63.89","img/238/3.5/0.5/bw/001.png","","","complex"
"","","","","","animation","11","197504","0.0-11.0","1920x1080","","4269.399999856949","38.36","img/117/5.5/1/bw/001.png","","","complex"
"","","","","","animation","12","200808","0.0-12.0","1920x1080","","3303.2000000476837","21.69","img/314/5.5/2/bw/001.png","","","complex"
"","","","","","animation","13","207768","0.0-13.0","1920x1080","","6959.099999904633","67.72","img/117/4/1.5/bw/001.png","","","complex"
"","","","","","animation","14","212161","0.0-14.0","1920x1080","","4391.900000095367","95","img/314/2.5/1/bw/001.png","","","complex"
"","","","","","animation","15","215600","0.0-15.0","1920x1080","","3438","9.92","img/117/5.5/2/bw/001.png","","","complex"
"","","","","","animation","16","218840","0.0-16.0","1920x1080","","3239.5","50.40","img/117/4/2/bw/001.png","","","complex"
"","","","","","animation","17","223752","0.0-17.0","1920x1080","","4910.900000095367","80.29","img/314/3.5/1/bw/001.png","","","complex"
"","","","","","animation","18","228400","0.0-18.0","1920x1080","","4646.899999856949","60.32","img/238/4.5/1/bw/001.png","","","complex"
"","","","","","animation","19","232488","0.0-19.0","1920x1080","","4087.300000190735","98","img/117/2.5/1/bw/001.png","","","complex"
"","","","","","animation","20","235961","0.0-20.0","1920x1080","","3472.5999999046326","99","img/314/2.5/0.5/bw/001.png","","","complex"
"","","","","","animation","21","242111","0.0-21.0","1920x1080","","6149.5","66.67","img/314/4.5/1/bw/001.png","","","complex"
"","","","","","animation","22","245096","0.0-22.0","1920x1080","","2983.5999999046326","83.60","img/117/3.5/1.5/bw/001.png","","","complex"
"","","","","","animation","23","265961","0.0-23.0","1920x1080","","20864.400000095367","30.03","img/238/5.5/0.5/bw/001.png","","","complex"
"","","","","","animation","24","272271","0.0-24.0","1920x1080","","6309.200000047684","27","img/314/5.5/0.5/bw/001.png","","","complex"
"","","","","","animation","25","276208","0.0-25.0","1920x1080","","3935.399999856949","75.53","img/238/3.5/2/bw/001.png","","","complex"
"","","","","","animation","26","279079","0.0-26.0","1920x1080","","2870.7999999523163","64.81","img/314/4.5/0.66667/bw/001.png","","","complex"
"","","","","","animation","27","285592","0.0-27.0","1920x1080","","6511.599999904633","100","img/238/2.5/0.5/bw/001.png","","","complex"
"","","","","","animation","28","290961","0.0-28.0","1920x1080","","5368.400000095367","89.95","img/238/3.5/1/bw/001.png","","","complex"
"","","","","","animation","29","295177","0.0-29.0","1920x1080","","4215.5","37.70","img/314/5.5/0.66667/bw/001.png","","","complex"
"","","","","","animation","30","303504","0.0-30.0","1920x1080","","8325.5","57.80","img/117/4/1/bw/001.png","","","complex"
"","","","","","animation","31","307144","0.0-31.0","1920x1080","","3639.800000190735","13.23","img/117/5.5/1.5/bw/001.png","","","complex"
"","","","","","animation","32","312247","0.0-32.0","1920x1080","","5102","82.94","img/238/3.5/1.5/bw/001.png","","","complex"
"","","","","","animation","33","317168","0.0-33.0","1920x1080","","4919.299999952316","66.67","img/117/4.5/1.5/bw/001.png","","","complex"
"","","","","","animation","34","322408","0.0-34.0","1920x1080","","5239.099999904633","74.34","img/238/4/1.5/bw/001.png","","","complex"
"","","","","","animation","35","328304","0.0-35.0","1920x1080","","5894.900000095367","103.31","img/117/2.5/2/bw/001.png","","","complex"
"","","","","","animation","36","334679","0.0-36.0","1920x1080","","6374.899999856949","122.22","img/238/2.5/2/bw/001.png","","","complex"
"","","","","","animation","37","351231","0.0-37.0","1920x1080","","16550.200000047684","67.20","img/238/4/0.66667/bw/001.png","","","complex"
"","","","","","animation","38","356913","0.0-38.0","1920x1080","","5679.400000095367","89.15","img/117/3.5/0.5/bw/001.png","","","complex"
"","","","","","animation","39","361416","0.0-39.0","1920x1080","","4503","96","img/314/3.5/0.66667/bw/001.png","","","complex"
"","","","","","animation","40","366601","0.0-40.0","1920x1080","","5183.299999952316","1","img/238/5.5/2/bw/001.png","","","complex"
"","","","","","animation","41","371113","0.0-41.0","1920x1080","","4511","73.28","img/238/4.5/0.5/bw/001.png","","","complex"
"","","","","","animation","42","376362","0.0-42.0","1920x1080","","5248.399999856949","76.06","img/238/4.5/1.5/bw/001.png","","","complex"
"","","","","","animation","43","379537","0.0-43.0","1920x1080","","3173.9000000953674","82.01","img/314/4/0.66667/bw/001.png","","","complex"
"","","","","","animation","44","382648","0.0-44.0","1920x1080","","3111","101.46","img/117/2.5/1.5/bw/001.png","","","complex"
"","","","","","animation","45","386633","0.0-45.0","1920x1080","","3983.5999999046326","20.50","img/314/5.5/1.5/bw/001.png","","","complex"
"","","","","","animation","46","391409","0.0-46.0","1920x1080","","4775.5","20.11","img/238/5.5/0.66667/bw/001.png","","","complex"
"","","","","","animation","47","395632","0.0-47.0","1920x1080","","4222.5","75.40","img/117/3.5/0.66667/bw/001.png","","","complex"
"","","","","","animation","48","398712","0.0-48.0","1920x1080","","3079.100000143051","81.48","img/314/4/0.5/bw/001.png","","","complex"
"","","","","","animation","49","402233","0.0-49.0","1920x1080","","3519","102.12","img/238/2.5/0.66667/bw/001.png","","","complex"
"","","","","","animation","50","411179","0.0-50.0","1920x1080","","8945.299999952316","58.73","img/117/4.5/2/bw/001.png","","","complex"
"","","","","","animation","51","415416","0.0-51.0","1920x1080","","4236.700000047684","86.77","img/117/3.5/1/bw/001.png","","","complex"
"","","","","","animation","52","418856","0.0-52.0","1920x1080","","3439.199999809265","98","img/238/2.5/1.5/bw/001.png","","","complex"
"","","","","","animation","53","441696","0.0-53.0","1920x1080","","22839.099999904633","50.93","img/117/4/0.5/bw/001.png","","","complex"
"","","","","","animation","54","445272","0.0-54.0","1920x1080","","3575.399999856949","43.78","img/238/4.5/0.66667/bw/001.png","","","complex"
"","","","","","animation","55","448824","0.0-55.0","1920x1080","","3550.9000000953674","65.74","img/238/3.5/0.66667/bw/001.png","","","complex"
"","","","","","animation","56","454145","0.0-56.0","1920x1080","","5320.200000047684","11.24","img/314/5.5/1/bw/001.png","","","complex"
"","","","","","animation","57","464795","0.0-57.0","1920x1080","","10648.599999904633","48.94","img/117/4.5/1/bw/001.png","","","complex"
"","","","","","animation","58","468224","0.0-58.0","1920x1080","","3428.4000000953674","63.89","img/238/4/0.5/bw/001.png","","","complex"
"","","","","","animation","59","472344","0.0-59.0","1920x1080","","4119.099999904633","51.72","img/314/4.5/2/bw/001.png","","","complex"
"","","","","","animation","60","476760","0.0-60.0","1920x1080","","4415.5","81.88","img/314/3.5/1.5/bw/001.png","","","complex"
"","","","","","animation","61","491880","0.0-61.0","1920x1080","","15118.400000095367","19.97","img/117/5.5/0.66667/bw/001.png","","","complex"
"","","","","","animation","62","497088","0.0-62.0","1920x1080","","5207.400000095367","65.48","img/238/4/2/bw/001.png","","","complex"
"","","","","","animation","63","500080","0.0-63.0","1920x1080","","2990.7000000476837","70.77","img/314/4/1.5/bw/001.png","","","complex"
"","","","","","animation","64","503395","0.0-64.0","1920x1080","","3314.100000143051","84.92","img/314/3.5/0.5/bw/001.png","","","complex"
"","","","","","animation","65","508962","0.0-65.0","1920x1080","","5566.099999904633","76.85","img/238/4/1/bw/001.png","","","complex"
"","","","","","animation","66","514032","0.0-66.0","1920x1080","","5069.200000047684","35.85","img/314/4.5/1.5/bw/001.png","","","complex"
"","","","","","animation","67","518864","0.0-67.0","1920x1080","","4831.299999952316","51.32","img/117/4/0.66667/bw/001.png","","","complex"
"","","","","","animation","68","523112","0.0-68.0","1920x1080","","4246.900000095367","19.71","img/117/5.5/0.5/bw/001.png","","","complex"
"","","","","","animation","69","530496","0.0-69.0","1920x1080","","7383.299999952316","2.91","img/238/5.5/1.5/bw/001.png","","","complex"
"","","","","","animation","70","535504","0.0-70.0","1920x1080","","5007.5","100","img/314/2.5/1.5/bw/001.png","","","complex"
"","","","","","animation","71","540811","0.0-71.0","1920x1080","","5305.099999904633","114.02","img/117/2.5/0.66667/bw/001.png","","","complex"
"","","","","","animation","72","548248","0.0-72.0","1920x1080","","7436","93.78","img/314/3.5/2/bw/001.png","","","complex"
"","","","","","animation","73","552561","0.0-73.0","1920x1080","","4312.400000095367","101.72","img/117/2.5/0.5/bw/001.png","","","complex"
"","","","","","animation","74","556945","0.0-74.0","1920x1080","","4383.099999904633","7.41","img/238/5.5/1/bw/001.png","","","complex"
"","","","","","animation","75","562628","0.0-75.0","1920x1080","","5682.299999952316","41.01","img/314/4.5/0.5/bw/001.png","","","complex"
"","","","","","animation","76","565768","0.0-76.0","1920x1080","","3138.0999999046326","50.40","img/238/4.5/2/bw/001.png","","","complex"
"","","","","","animation","77","568120","0.0-77.0","1920x1080","","2351.2000000476837","54.89","img/117/4.5/0.66667/bw/001.png","","","complex"
"","","","","","animation","78","572096","0.0-78.0","1920x1080","","3975","95","img/314/2.5/0.66667/bw/001.png","","","complex"
"","","","","","animation","79","575720","0.0-79.0","1920x1080","","3622.9000000953674","84.39","img/117/3.5/2/bw/001.png","","","complex"
"","","","","","animation","80","584320","0.0-80.0","1920x1080","","8599.200000047684","69.05","img/117/4.5/0.5/bw/001.png","","","complex"
"","","","","","animation","81","588288","0.0-81.0","1920x1080","","3966.800000190735","107.28","img/314/2.5/2/bw/001.png","","","complex"
"","","","","","html-button-response","82","610522","0.0-82.0","1920x1080","","22231.400000095367","","<div class=""intro"">You are about to view a new series of animations.<br><br></div><div class=""intro"">You will evaluate them based on a different descriptor.<br><br></div><div class=""intro"">Move the slider to indicate how <strong style=""text-transform:capitalize"">NATURAL</strong> you find each animation.<br><br></div><div class=""intro"">0 = Least Natural<br></div><div class=""intro"">1 = Most Natural<br><br></div><div class=""intro"">Remember to use the <strong><em>entire range</em></strong> of the slider to make your ratings.<br></div><div class=""intro"">Please <strong><em>take your time</em></strong> and carefully consider each rating you make.<br><br></div>","0","",""
"","","","","","call-function","83","610523","0.0-83.0","1920x1080","","","","","","",""
"","","","","","animation","84","621849","0.0-84.0","1920x1080","","11324.400000095367","24.60","img/117/4.5/0.66667/bw/001.png","","","natural"
"","","","","","animation","85","629433","0.0-85.0","1920x1080","","7582.599999904633","5.16","img/238/2.5/0.66667/bw/001.png","","","natural"
"","","","","","animation","86","635169","0.0-86.0","1920x1080","","5735.299999952316","34.39","img/117/4/1.5/bw/001.png","","","natural"
"","","","","","animation","87","640457","0.0-87.0","1920x1080","","5287.099999904633","7","img/117/2.5/0.66667/bw/001.png","","","natural"
"","","","","","animation","88","646457","0.0-88.0","1920x1080","","5998.599999904633","98","img/238/5.5/1.5/bw/001.png","","","natural"
"","","","","","animation","89","651112","0.0-89.0","1920x1080","","4654.900000095367","19.31","img/117/3.5/1.5/bw/001.png","","","natural"
"","","","","","animation","90","654689","0.0-90.0","1920x1080","","3575.5","26.59","img/314/4/0.66667/bw/001.png","","","natural"
"","","","","","animation","91","658578","0.0-91.0","1920x1080","","3888.199999809265","11.51","img/314/3.5/0.66667/bw/001.png","","","natural"
"","","","","","animation","92","664889","0.0-92.0","1920x1080","","6310","96","img/238/5.5/0.5/bw/001.png","","","natural"
"","","","","","animation","93","667985","0.0-93.0","1920x1080","","3095","0","img/238/2.5/1/bw/001.png","","","natural"
"","","","","","animation","94","673721","0.0-94.0","1920x1080","","5735.100000143051","25.66","img/238/3.5/1/bw/001.png","","","natural"
"","","","","","animation","95","680353","0.0-95.0","1920x1080","","6630.900000095367","76.06","img/117/5.5/0.5/bw/001.png","","","natural"
"","","","","","animation","96","691753","0.0-96.0","1920x1080","","11399.099999904633","52.65","img/238/4.5/2/bw/001.png","","","natural"
"","","","","","animation","97","694273","0.0-97.0","1920x1080","","2517.899999856949","34.79","img/117/4/0.66667/bw/001.png","","","natural"
"","","","","","animation","98","697233","0.0-98.0","1920x1080","","2958.9000000953674","21.96","img/238/4/0.66667/bw/001.png","","","natural"
"","","","","","animation","99","701073","0.0-99.0","1920x1080","","3839.2999999523163","44.71","img/117/4.5/1.5/bw/001.png","","","natural"
"","","","","","animation","100","703601","0.0-100.0","1920x1080","","2527","20.77","img/117/3.5/0.5/bw/001.png","","","natural"
"","","","","","animation","101","706265","0.0-101.0","1920x1080","","2662.9000000953674","89.95","img/238/5.5/1/bw/001.png","","","natural"
"","","","","","animation","102","709833","0.0-102.0","1920x1080","","3567.5","39.42","img/238/4/1/bw/001.png","","","natural"
"","","","","","animation","103","713617","0.0-103.0","1920x1080","","3782.9000000953674","20.90","img/117/4/1/bw/001.png","","","natural"
"","","","","","animation","104","720200","0.0-104.0","1920x1080","","6583.099999904633","100","img/238/5.5/2/bw/001.png","","","natural"
"","","","","","animation","105","725027","0.0-105.0","1920x1080","","4825.400000095367","0","img/314/2.5/1/bw/001.png","","","natural"
"","","","","","animation","106","741289","0.0-106.0","1920x1080","","16260.900000095367","40.74","img/238/4.5/0.66667/bw/001.png","","","natural"
"","","","","","animation","107","746921","0.0-107.0","1920x1080","","5631.099999904633","94","img/314/5.5/0.5/bw/001.png","","","natural"
"","","","","","animation","108","750888","0.0-108.0","1920x1080","","3966.399999856949","61.38","img/238/4.5/1/bw/001.png","","","natural"
"","","","","","animation","109","756488","0.0-109.0","1920x1080","","5599.199999809265","50.00","img/314/4/1/bw/001.png","","","natural"
"","","","","","animation","110","774417","0.0-110.0","1920x1080","","17926.5","95","img/117/5.5/2/bw/001.png","","","natural"
"","","","","","animation","111","777411","0.0-111.0","1920x1080","","2993.5","60.32","img/314/4.5/1.5/bw/001.png","","","natural"
"","","","","","animation","112","786017","0.0-112.0","1920x1080","","8604.699999809265","95","img/238/5.5/0.66667/bw/001.png","","","natural"
"","","","","","animation","113","794689","0.0-113.0","1920x1080","","8671.099999904633","49","img/117/4.5/0.5/bw/001.png","","","natural"
"","","","","","animation","114","806161","0.0-114.0","1920x1080","","11470.5","40.34","img/117/4.5/1/bw/001.png","","","natural"
"","","","","","animation","115","814195","0.0-115.0","1920x1080","","8032.400000095367","14.95","img/238/3.5/0.5/bw/001.png","","","natural"
"","","","","","animation","116","816411","0.0-116.0","1920x1080","","2212.899999856949","21.16","img/117/4/0.5/bw/001.png","","","natural"
"","","","","","animation","117","819616","0.0-117.0","1920x1080","","3205","1.32","img/238/2.5/0.5/bw/001.png","","","natural"
"","","","","","animation","118","824194","0.0-118.0","1920x1080","","4577","-15.48","img/117/2.5/1/bw/001.png","","","natural"
"","","","","","animation","119","827737","0.0-119.0","1920x1080","","3541.4000000953674","25.40","img/314/4.5/1/bw/001.png","","","natural"
"","","","","","animation","120","831712","0.0-120.0","1920x1080","","3974.5999999046326","37.96","img/314/4/1.5/bw/001.png","","","natural"
"","","","","","animation","121","836011","0.0-121.0","1920x1080","","4297.600000143051","72","img/117/5.5/0.66667/bw/001.png","","","natural"
"","","","","","animation","122","838938","0.0-122.0","1920x1080","","2924.5999999046326","0.13","img/117/2.5/1.5/bw/001.png","","","natural"
"","","","","","animation","123","841713","0.0-123.0","1920x1080","","2774.7000000476837","10.19","img/117/3.5/1/bw/001.png","","","natural"
"","","","","","animation","124","849017","0.0-124.0","1920x1080","","7303.200000047684","22.88","img/238/4.5/1.5/bw/001.png","","","natural"
"","","","","","animation","125","853369","0.0-125.0","1920x1080","","4350.800000190735","-0.66","img/314/2.5/1.5/bw/001.png","","","natural"
"","","","","","animation","126","856986","0.0-126.0","1920x1080","","3615.199999809265","-12.30","img/238/2.5/2/bw/001.png","","","natural"
"","","","","","animation","127","876530","0.0-127.0","1920x1080","","19542.89999985695","15","img/117/3.5/2/bw/001.png","","","natural"
"","","","","","animation","128","880817","0.0-128.0","1920x1080","","4286.200000047684","36.24","img/117/4.5/2/bw/001.png","","","natural"
"","","","","","animation","129","884634","0.0-129.0","1920x1080","","3815.2999999523163","13.10","img/314/3.5/0.5/bw/001.png","","","natural"
"","","","","","animation","130","887413","0.0-130.0","1920x1080","","2777.899999856949","37.43","img/314/4.5/2/bw/001.png","","","natural"
"","","","","","animation","131","889457","0.0-131.0","1920x1080","","2043.7000000476837","0.13","img/117/2.5/2/bw/001.png","","","natural"
"","","","","","animation","132","893970","0.0-132.0","1920x1080","","4511.299999952316","25.93","img/117/4/2/bw/001.png","","","natural"
"","","","","","animation","133","896466","0.0-133.0","1920x1080","","2495.100000143051","10.71","img/238/3.5/1.5/bw/001.png","","","natural"
"","","","","","animation","134","902497","0.0-134.0","1920x1080","","6028.100000143051","12.83","img/238/4.5/0.5/bw/001.png","","","natural"
"","","","","","animation","135","906370","0.0-135.0","1920x1080","","3871.0999999046326","21.43","img/238/4/1.5/bw/001.png","","","natural"
"","","","","","animation","136","922129","0.0-136.0","1920x1080","","15758.600000143051","100","img/117/5.5/1/bw/001.png","","","natural"
"","","","","","animation","137","926722","0.0-137.0","1920x1080","","4591.300000190735","28.17","img/238/3.5/2/bw/001.png","","","natural"
"","","","","","animation","138","931970","0.0-138.0","1920x1080","","5246.899999856949","21","img/314/3.5/1/bw/001.png","","","natural"
"","","","","","animation","139","940754","0.0-139.0","1920x1080","","8783.099999904633","28.17","img/314/4/2/bw/001.png","","","natural"
"","","","","","animation","140","947081","0.0-140.0","1920x1080","","6326.600000143051","38.23","img/314/4.5/0.66667/bw/001.png","","","natural"
"","","","","","animation","141","950012","0.0-141.0","1920x1080","","2929.699999809265","10.98","img/238/3.5/0.66667/bw/001.png","","","natural"
"","","","","","animation","142","953234","0.0-142.0","1920x1080","","3220.7000000476837","17.46","img/314/3.5/1.5/bw/001.png","","","natural"
"","","","","","animation","143","956129","0.0-143.0","1920x1080","","2894.4000000953674","-13.62","img/238/2.5/1.5/bw/001.png","","","natural"
"","","","","","animation","144","960330","0.0-144.0","1920x1080","","4199.600000143051","-21.69","img/314/2.5/0.5/bw/001.png","","","natural"
"","","","","","animation","145","968095","0.0-145.0","1920x1080","","7763.899999856949","25.93","img/238/4/2/bw/001.png","","","natural"
"","","","","","animation","146","970962","0.0-146.0","1920x1080","","2865.7999999523163","16.40","img/314/4/0.5/bw/001.png","","","natural"
"","","","","","animation","147","974279","0.0-147.0","1920x1080","","3315.4000000953674","8.73","img/117/3.5/0.66667/bw/001.png","","","natural"
"","","","","","animation","148","979218","0.0-148.0","1920x1080","","4938","3.84","img/238/4/0.5/bw/001.png","","","natural"
"","","","","","animation","149","983402","0.0-149.0","1920x1080","","4183.100000143051","-12.83","img/117/2.5/0.5/bw/001.png","","","natural"
"","","","","","animation","150","988938","0.0-150.0","1920x1080","","5534.800000190735","84.92","img/314/5.5/1/bw/001.png","","","natural"
"","","","","","animation","151","993429","0.0-151.0","1920x1080","","4489.400000095367","21.30","img/314/3.5/2/bw/001.png","","","natural"
"","","","","","animation","152","1000146","0.0-152.0","1920x1080","","6715.799999952316","90.48","img/117/5.5/1.5/bw/001.png","","","natural"
"","","","","","animation","153","1003779","0.0-153.0","1920x1080","","3632.5","-3.17","img/314/2.5/2/bw/001.png","","","natural"
"","","","","","animation","154","1007296","0.0-154.0","1920x1080","","3515.7000000476837","110.98","img/314/5.5/1.5/bw/001.png","","","natural"
"","","","","","animation","155","1014195","0.0-155.0","1920x1080","","6897.5","32.80","img/314/4.5/0.5/bw/001.png","","","natural"
"","","","","","animation","156","1016698","0.0-156.0","1920x1080","","2501.5999999046326","98","img/314/5.5/2/bw/001.png","","","natural"
"","","","","","animation","157","1023629","0.0-157.0","1920x1080","","6929.899999856949","6.75","img/314/2.5/0.66667/bw/001.png","","","natural"
"","","","","","animation","158","1026914","0.0-158.0","1920x1080","","3283.899999856949","97","img/314/5.5/0.66667/bw/001.png","","","natural"
"","","","","","html-button-response","159","1046803","0.0-159.0","1920x1080","","19887.300000190735","","<div class=""intro"">You are about to view a new series of animations.<br><br></div><div class=""intro"">You will evaluate them based on a different descriptor.<br><br></div><div class=""intro"">Move the slider to indicate how <strong style=""text-transform:capitalize"">INTERESTING</strong> you find each animation.<br><br></div><div class=""intro"">0 = Least Interesting<br></div><div class=""intro"">1 = Most Interesting<br><br></div><div class=""intro"">Remember to use the <strong><em>entire range</em></strong> of the slider to make your ratings.<br></div><div class=""intro"">Please <strong><em>take your time</em></strong> and carefully consider each rating you make.<br><br></div>","0","",""
"","","","","","call-function","160","1046804","0.0-160.0","1920x1080","","","","","","",""
"","","","","","animation","161","1056738","0.0-161.0","1920x1080","","9933.400000095367","89.29","img/314/4.5/0.66667/bw/001.png","","","interesting"
"","","","","","animation","162","1064378","0.0-162.0","1920x1080","","7639","68.25","img/238/2.5/2/bw/001.png","","","interesting"
"","","","","","animation","163","1070444","0.0-163.0","1920x1080","","6064.900000095367","89.95","img/238/4.5/0.5/bw/001.png","","","interesting"
"","","","","","animation","164","1076018","0.0-164.0","1920x1080","","5572.5","84.66","img/314/4/0.5/bw/001.png","","","interesting"
"","","","","","animation","165","1079121","0.0-165.0","1920x1080","","3102.699999809265","51.72","img/314/2.5/0.5/bw/001.png","","","interesting"
"","","","","","animation","166","1082097","0.0-166.0","1920x1080","","2974.0999999046326","61.51","img/238/3.5/1.5/bw/001.png","","","interesting"
"","","","","","animation","167","1084481","0.0-167.0","1920x1080","","2382.7999999523163","73.15","img/117/4/0.5/bw/001.png","","","interesting"
"","","","","","animation","168","1088618","0.0-168.0","1920x1080","","4135.5","85.85","img/238/4.5/0.66667/bw/001.png","","","interesting"
"","","","","","animation","169","1092611","0.0-169.0","1920x1080","","3992.899999856949","61.77","img/117/2.5/0.5/bw/001.png","","","interesting"
"","","","","","animation","170","1096011","0.0-170.0","1920x1080","","3398.7000000476837","74.07","img/314/3.5/2/bw/001.png","","","interesting"
"","","","","","animation","171","1108345","0.0-171.0","1920x1080","","12332.899999856949","32.41","img/314/3.5/1.5/bw/001.png","","","interesting"
"","","","","","animation","172","1114645","0.0-172.0","1920x1080","","6298.699999809265","50.00","img/314/2.5/0.66667/bw/001.png","","","interesting"
"","","","","","animation","173","1117681","0.0-173.0","1920x1080","","3035.2999999523163","41.01","img/117/2.5/1.5/bw/001.png","","","interesting"
"","","","","","animation","174","1120602","0.0-174.0","1920x1080","","2919.300000190735","44.84","img/314/2.5/2/bw/001.png","","","interesting"
"","","","","","animation","175","1124297","0.0-175.0","1920x1080","","3694.5999999046326","62.57","img/314/4.5/1.5/bw/001.png","","","interesting"
"","","","","","animation","176","1127865","0.0-176.0","1920x1080","","3566.7999999523163","64.81","img/238/4.5/2/bw/001.png","","","interesting"
"","","","","","animation","177","1132434","0.0-177.0","1920x1080","","4567.099999904633","72.35","img/314/5.5/2/bw/001.png","","","interesting"
"","","","","","animation","178","1135929","0.0-178.0","1920x1080","","3493.5999999046326","85.19","img/238/5.5/0.5/bw/001.png","","","interesting"
"","","","","","animation","179","1139018","0.0-179.0","1920x1080","","3087.199999809265","79.89","img/314/5.5/0.5/bw/001.png","","","interesting"
"","","","","","animation","180","1142985","0.0-180.0","1920x1080","","3966.800000190735","74.74","img/117/4/1.5/bw/001.png","","","interesting"
"","","","","","animation","181","1151386","0.0-181.0","1920x1080","","8398.299999952316","90.34","img/314/3.5/0.5/bw/001.png","","","interesting"
"","","","","","animation","182","1154538","0.0-182.0","1920x1080","","3150.399999856949","76.59","img/117/5.5/1/bw/001.png","","","interesting"
"","","","","","animation","183","1159066","0.0-183.0","1920x1080","","4526.899999856949","79.37","img/117/4/0.66667/bw/001.png","","","interesting"
"","","","","","animation","184","1162967","0.0-184.0","1920x1080","","3900.7999999523163","78.97","img/238/4/0.66667/bw/001.png","","","interesting"
"","","","","","animation","185","1166738","0.0-185.0","1920x1080","","3769.100000143051","51","img/238/2.5/0.66667/bw/001.png","","","interesting"
"","","","","","animation","186","1182245","0.0-186.0","1920x1080","","15505.799999952316","67.86","img/117/5.5/1.5/bw/001.png","","","interesting"
"","","","","","animation","187","1185445","0.0-187.0","1920x1080","","3197.5","62.04","img/117/3.5/2/bw/001.png","","","interesting"
"","","","","","animation","188","1192545","0.0-188.0","1920x1080","","7099.5","58","img/117/3.5/1.5/bw/001.png","","","interesting"
"","","","","","animation","189","1195628","0.0-189.0","1920x1080","","3081.899999856949","68.39","img/117/3.5/1/bw/001.png","","","interesting"
"","","","","","animation","190","1201514","0.0-190.0","1920x1080","","5884.100000143051","56.35","img/238/3.5/2/bw/001.png","","","interesting"
"","","","","","animation","191","1208112","0.0-191.0","1920x1080","","6596.700000047684","88","img/238/5.5/1/bw/001.png","","","interesting"
"","","","","","animation","192","1213412","0.0-192.0","1920x1080","","5298.899999856949","58.73","img/117/4/1/bw/001.png","","","interesting"
"","","","","","animation","193","1219482","0.0-193.0","1920x1080","","6069","90.48","img/117/4.5/2/bw/001.png","","","interesting"
"","","","","","animation","194","1224812","0.0-194.0","1920x1080","","5328.400000095367","15.48","img/314/2.5/1.5/bw/001.png","","","interesting"
"","","","","","animation","195","1234029","0.0-195.0","1920x1080","","9214.399999856949","32.28","img/117/4/2/bw/001.png","","","interesting"
"","","","","","animation","196","1238730","0.0-196.0","1920x1080","","4699.5","7.54","img/117/2.5/2/bw/001.png","","","interesting"
"","","","","","animation","197","1244154","0.0-197.0","1920x1080","","5423","92","img/117/5.5/0.5/bw/001.png","","","interesting"
"","","","","","animation","198","1249482","0.0-198.0","1920x1080","","5325","70.77","img/117/4.5/1.5/bw/001.png","","","interesting"
"","","","","","animation","199","1254679","0.0-199.0","1920x1080","","5194.700000047684","67.86","img/238/4.5/1/bw/001.png","","","interesting"
"","","","","","animation","200","1258930","0.0-200.0","1920x1080","","4250.299999952316","61.90","img/314/3.5/1/bw/001.png","","","interesting"
"","","","","","animation","201","1262954","0.0-201.0","1920x1080","","4023.100000143051","29.50","img/238/2.5/0.5/bw/001.png","","","interesting"
"","","","","","animation","202","1266435","0.0-202.0","1920x1080","","3479","53.84","img/238/3.5/0.5/bw/001.png","","","interesting"
"","","","","","animation","203","1272651","0.0-203.0","1920x1080","","6214.100000143051","87.17","img/314/5.5/1.5/bw/001.png","","","interesting"
"","","","","","animation","204","1278295","0.0-204.0","1920x1080","","5643.399999856949","98","img/117/5.5/0.66667/bw/001.png","","","interesting"
"","","","","","animation","205","1281171","0.0-205.0","1920x1080","","2874","83.33","img/238/4.5/1.5/bw/001.png","","","interesting"
"","","","","","animation","206","1283896","0.0-206.0","1920x1080","","2724","79.10","img/117/4.5/1/bw/001.png","","","interesting"
"","","","","","animation","207","1287496","0.0-207.0","1920x1080","","3598.800000190735","88.36","img/117/4.5/0.5/bw/001.png","","","interesting"
"","","","","","animation","208","1292251","0.0-208.0","1920x1080","","4753.899999856949","64.55","img/314/3.5/0.66667/bw/001.png","","","interesting"
"","","","","","animation","209","1299114","0.0-209.0","1920x1080","","6862.5","82.41","img/314/4.5/0.5/bw/001.png","","","interesting"
"","","","","","animation","210","1313187","0.0-210.0","1920x1080","","14069.700000047684","71.83","img/314/4/2/bw/001.png","","","interesting"
"","","","","","animation","211","1317050","0.0-211.0","1920x1080","","3862.899999856949","65.87","img/117/3.5/0.66667/bw/001.png","","","interesting"
"","","","","","animation","212","1319962","0.0-212.0","1920x1080","","2910.7000000476837","68.52","img/238/3.5/1/bw/001.png","","","interesting"
"","","","","","animation","213","1322712","0.0-213.0","1920x1080","","2748.899999856949","73.68","img/238/4/0.5/bw/001.png","","","interesting"
"","","","","","animation","214","1328531","0.0-214.0","1920x1080","","5818","78.57","img/314/4.5/1/bw/001.png","","","interesting"
"","","","","","animation","215","1332295","0.0-215.0","1920x1080","","3762.5999999046326","91.14","img/238/5.5/2/bw/001.png","","","interesting"
"","","","","","animation","216","1337445","0.0-216.0","1920x1080","","5148.299999952316","86.11","img/117/5.5/2/bw/001.png","","","interesting"
"","","","","","animation","217","1344018","0.0-217.0","1920x1080","","6571","73.81","img/238/4/2/bw/001.png","","","interesting"
"","","","","","animation","218","1364346","0.0-218.0","1920x1080","","20326.099999904633","100","img/117/4.5/0.66667/bw/001.png","","","interesting"
"","","","","","animation","219","1369570","0.0-219.0","1920x1080","","5222.799999952316","90.21","img/314/5.5/1/bw/001.png","","","interesting"
"","","","","","animation","220","1374986","0.0-220.0","1920x1080","","5414.400000095367","95","img/314/5.5/0.66667/bw/001.png","","","interesting"
"","","","","","animation","221","1378067","0.0-221.0","1920x1080","","3077.5999999046326","96","img/238/5.5/1.5/bw/001.png","","","interesting"
"","","","","","animation","222","1386931","0.0-222.0","1920x1080","","8862.299999952316","82.54","img/238/4/1/bw/001.png","","","interesting"
"","","","","","animation","223","1408212","0.0-223.0","1920x1080","","21278.099999904633","72.88","img/314/4/0.66667/bw/001.png","","","interesting"
"","","","","","animation","224","1410835","0.0-224.0","1920x1080","","2621.5","13.49","img/117/2.5/0.66667/bw/001.png","","","interesting"
"","","","","","animation","225","1414403","0.0-225.0","1920x1080","","3566.7000000476837","38.49","img/238/4/1.5/bw/001.png","","","interesting"
"","","","","","animation","226","1418529","0.0-226.0","1920x1080","","4125","76.85","img/117/3.5/0.5/bw/001.png","","","interesting"
"","","","","","animation","227","1421731","0.0-227.0","1920x1080","","3200.0999999046326","0","img/238/2.5/1.5/bw/001.png","","","interesting"
"","","","","","animation","228","1424145","0.0-228.0","1920x1080","","2413.2999999523163","2.25","img/314/2.5/1/bw/001.png","","","interesting"
"","","","","","animation","229","1427229","0.0-229.0","1920x1080","","3082.0999999046326","47.75","img/314/4/1.5/bw/001.png","","","interesting"
"","","","","","animation","230","1430763","0.0-230.0","1920x1080","","3532.399999856949","8.73","img/117/2.5/1/bw/001.png","","","interesting"
"","","","","","animation","231","1444802","0.0-231.0","1920x1080","","14038.5","48.81","img/314/4/1/bw/001.png","","","interesting"
"","","","","","animation","232","1452695","0.0-232.0","1920x1080","","7891.800000190735","84","img/238/5.5/0.66667/bw/001.png","","","interesting"
"","","","","","animation","233","1463862","0.0-233.0","1920x1080","","11165.200000047684","71.83","img/314/4.5/2/bw/001.png","","","interesting"
"","","","","","animation","234","1466562","0.0-234.0","1920x1080","","2698.7000000476837","7.54","img/238/2.5/1/bw/001.png","","","interesting"
"","","","","","animation","235","1469495","0.0-235.0","1920x1080","","2932.100000143051","15.34","img/238/3.5/0.66667/bw/001.png","","","interesting"
"","","","","","html-button-response","236","1488586","0.0-236.0","1920x1080","","19089.700000047684","","<div class=""intro"">You are about to view a new series of animations.<br><br></div><div class=""intro"">You will evaluate them based on a different descriptor.<br><br></div><div class=""intro"">Move the slider to indicate how <strong style=""text-transform:capitalize"">APPEALING</strong> you find each animation.<br><br></div><div class=""intro"">0 = Least Appealing<br></div><div class=""intro"">1 = Most Appealing<br><br></div><div class=""intro"">Remember to use the <strong><em>entire range</em></strong> of the slider to make your ratings.<br></div><div class=""intro"">Please <strong><em>take your time</em></strong> and carefully consider each rating you make.<br><br></div>","0","",""
"","","","","","call-function","237","1488587","0.0-237.0","1920x1080","","","","","","",""
"","","","","","animation","238","1510050","0.0-238.0","1920x1080","","21462.5","50.53","img/314/4.5/0.66667/bw/001.png","","","appealing"
"","","","","","animation","239","1517298","0.0-239.0","1920x1080","","7246.799999952316","59.39","img/238/4/1.5/bw/001.png","","","appealing"
"","","","","","animation","240","1522162","0.0-240.0","1920x1080","","4863","69.71","img/314/4/1.5/bw/001.png","","","appealing"
"","","","","","animation","241","1526866","0.0-241.0","1920x1080","","4702.400000095367","29","img/314/4.5/0.5/bw/001.png","","","appealing"
"","","","","","animation","242","1530580","0.0-242.0","1920x1080","","3712.0999999046326","64.95","img/117/4/0.5/bw/001.png","","","appealing"
"","","","","","animation","243","1548482","0.0-243.0","1920x1080","","17901","48.81","img/117/3.5/1.5/bw/001.png","","","appealing"
"","","","","","animation","244","1553599","0.0-244.0","1920x1080","","5115","35.58","img/117/3.5/1/bw/001.png","","","appealing"
"","","","","","animation","245","1556887","0.0-245.0","1920x1080","","3251.399999856949","74.21","img/314/4.5/1.5/bw/001.png","","","appealing"
"","","","","","animation","246","1560819","0.0-246.0","1920x1080","","3929.9000000953674","46.96","img/314/4/2/bw/001.png","","","appealing"
"","","","","","animation","247","1568563","0.0-247.0","1920x1080","","7742.100000143051","6.75","img/238/2.5/1.5/bw/001.png","","","appealing"
"","","","","","animation","248","1572946","0.0-248.0","1920x1080","","4381.5","49.21","img/117/4/2/bw/001.png","","","appealing"
"","","","","","animation","249","1577746","0.0-249.0","1920x1080","","4798.400000095367","24.87","img/117/2.5/0.5/bw/001.png","","","appealing"
"","","","","","animation","250","1581645","0.0-250.0","1920x1080","","3898.4000000953674","10.05","img/117/2.5/2/bw/001.png","","","appealing"
"","","","","","animation","251","1584283","0.0-251.0","1920x1080","","2636.600000143051","13.76","img/238/2.5/2/bw/001.png","","","appealing"
"","","","","","animation","252","1587597","0.0-252.0","1920x1080","","3312.199999809265","90.87","img/238/5.5/0.66667/bw/001.png","","","appealing"
"","","","","","animation","253","1591679","0.0-253.0","1920x1080","","4080.5999999046326","61.90","img/238/4/0.5/bw/001.png","","","appealing"
"","","","","","animation","254","1594734","0.0-254.0","1920x1080","","3053.7999999523163","15.61","img/314/2.5/0.5/bw/001.png","","","appealing"
"","","","","","animation","255","1598411","0.0-255.0","1920x1080","","3675.7000000476837","92","img/117/5.5/1/bw/001.png","","","appealing"
"","","","","","animation","256","1601471","0.0-256.0","1920x1080","","3057.7000000476837","51.59","img/117/3.5/0.5/bw/001.png","","","appealing"
"","","","","","animation","257","1609988","0.0-257.0","1920x1080","","8515.600000143051","39.15","img/117/4.5/0.5/bw/001.png","","","appealing"
"","","","","","animation","258","1616835","0.0-258.0","1920x1080","","6845.200000047684","55.69","img/314/4/1/bw/001.png","","","appealing"
"","","","","","animation","259","1621979","0.0-259.0","1920x1080","","5142.5","12","img/314/2.5/1.5/bw/001.png","","","appealing"
"","","","","","animation","260","1640235","0.0-260.0","1920x1080","","18254.400000095367","56.22","img/238/4/2/bw/001.png","","","appealing"
"","","","","","animation","261","1643383","0.0-261.0","1920x1080","","3146.5","9.92","img/314/2.5/1/bw/001.png","","","appealing"
"","","","","","animation","262","1647083","0.0-262.0","1920x1080","","3698.7000000476837","92.06","img/117/5.5/0.66667/bw/001.png","","","appealing"
"","","","","","animation","263","1651483","0.0-263.0","1920x1080","","4397.900000095367","14.42","img/117/2.5/1.5/bw/001.png","","","appealing"
"","","","","","animation","264","1655620","0.0-264.0","1920x1080","","4134.5","86.38","img/238/5.5/0.5/bw/001.png","","","appealing"
"","","","","","animation","265","1659699","0.0-265.0","1920x1080","","4076.7999999523163","65.61","img/117/4.5/0.66667/bw/001.png","","","appealing"
"","","","","","animation","266","1663982","0.0-266.0","1920x1080","","4281.200000047684","65.87","img/238/4.5/0.5/bw/001.png","","","appealing"
"","","","","","animation","267","1669235","0.0-267.0","1920x1080","","5251.400000095367","9.79","img/117/2.5/1/bw/001.png","","","appealing"
"","","","","","animation","268","1673131","0.0-268.0","1920x1080","","3894.5999999046326","66","img/314/3.5/0.5/bw/001.png","","","appealing"
"","","","","","animation","269","1677162","0.0-269.0","1920x1080","","4028.4000000953674","86","img/314/5.5/0.66667/bw/001.png","","","appealing"
"","","","","","animation","270","1681895","0.0-270.0","1920x1080","","4731.299999952316","66.53","img/117/4.5/1.5/bw/001.png","","","appealing"
"","","","","","animation","271","1697001","0.0-271.0","1920x1080","","15104.299999952316","53.44","img/314/4/0.66667/bw/001.png","","","appealing"
"","","","","","animation","272","1700568","0.0-272.0","1920x1080","","3564.5","17.33","img/314/2.5/0.66667/bw/001.png","","","appealing"
"","","","","","animation","273","1703755","0.0-273.0","1920x1080","","3185.2000000476837","83.99","img/314/5.5/1.5/bw/001.png","","","appealing"
"","","","","","animation","274","1707668","0.0-274.0","1920x1080","","3910.600000143051","72.09","img/238/4.5/0.66667/bw/001.png","","","appealing"
"","","","","","animation","275","1710248","0.0-275.0","1920x1080","","2579.2000000476837","57.28","img/238/3.5/2/bw/001.png","","","appealing"
"","","","","","animation","276","1713172","0.0-276.0","1920x1080","","2922.399999856949","63.23","img/117/3.5/0.66667/bw/001.png","","","appealing"
"","","","","","animation","277","1718728","0.0-277.0","1920x1080","","5554.600000143051","49.74","img/314/4.5/1/bw/001.png","","","appealing"
"","","","","","animation","278","1723518","0.0-278.0","1920x1080","","4788.5","41.40","img/238/3.5/0.5/bw/001.png","","","appealing"
"","","","","","animation","279","1730681","0.0-279.0","1920x1080","","7161.300000190735","31.08","img/238/4/0.66667/bw/001.png","","","appealing"
"","","","","","animation","280","1735005","0.0-280.0","1920x1080","","4322","99","img/117/5.5/0.5/bw/001.png","","","appealing"
"","","","","","animation","281","1741268","0.0-281.0","1920x1080","","6258.700000047684","89.15","img/238/4.5/1.5/bw/001.png","","","appealing"
"","","","","","animation","282","1750373","0.0-282.0","1920x1080","","9102.100000143051","132.14","img/314/5.5/2/bw/001.png","","","appealing"
"","","","","","animation","283","1754436","0.0-283.0","1920x1080","","4059.7000000476837","2.65","img/238/2.5/1/bw/001.png","","","appealing"
"","","","","","animation","284","1771652","0.0-284.0","1920x1080","","17214.200000047684","48.02","img/117/4/1.5/bw/001.png","","","appealing"
"","","","","","animation","285","1776548","0.0-285.0","1920x1080","","4890.599999904633","61.51","img/238/4.5/2/bw/001.png","","","appealing"
"","","","","","animation","286","1781452","0.0-286.0","1920x1080","","4901.799999952316","47.35","img/314/3.5/1/bw/001.png","","","appealing"
"","","","","","animation","287","1786102","0.0-287.0","1920x1080","","4648.5","33.07","img/238/3.5/1.5/bw/001.png","","","appealing"
"","","","","","animation","288","1789813","0.0-288.0","1920x1080","","3709.199999809265","84.66","img/314/5.5/1/bw/001.png","","","appealing"
"","","","","","animation","289","1793446","0.0-289.0","1920x1080","","3631.9000000953674","86.11","img/117/5.5/2/bw/001.png","","","appealing"
"","","","","","animation","290","1796918","0.0-290.0","1920x1080","","3470.2000000476837","47.75","img/238/3.5/1/bw/001.png","","","appealing"
"","","","","","animation","291","1803235","0.0-291.0","1920x1080","","6316.200000047684","99","img/314/5.5/0.5/bw/001.png","","","appealing"
"","","","","","animation","292","1809179","0.0-292.0","1920x1080","","5941.700000047684","39.68","img/117/3.5/2/bw/001.png","","","appealing"
"","","","","","animation","293","1811995","0.0-293.0","1920x1080","","2815.100000143051","56.48","img/117/4/0.66667/bw/001.png","","","appealing"
"","","","","","animation","294","1815803","0.0-294.0","1920x1080","","3806.100000143051","32.01","img/314/4/0.5/bw/001.png","","","appealing"
"","","","","","animation","295","1818299","0.0-295.0","1920x1080","","2494.7999999523163","56","img/314/4.5/2/bw/001.png","","","appealing"
"","","","","","animation","296","1821719","0.0-296.0","1920x1080","","3418.199999809265","66.01","img/238/4.5/1/bw/001.png","","","appealing"
"","","","","","animation","297","1828221","0.0-297.0","1920x1080","","6501","19.18","img/238/3.5/0.66667/bw/001.png","","","appealing"
"","","","","","animation","298","1831795","0.0-298.0","1920x1080","","3572.100000143051","33","img/314/3.5/2/bw/001.png","","","appealing"
"","","","","","animation","299","1836079","0.0-299.0","1920x1080","","4282.599999904633","89.55","img/238/5.5/1/bw/001.png","","","appealing"
"","","","","","animation","300","1839095","0.0-300.0","1920x1080","","3014.7000000476837","39.29","img/117/4/1/bw/001.png","","","appealing"
"","","","","","animation","301","1841395","0.0-301.0","1920x1080","","2298.5999999046326","6.22","img/238/2.5/0.5/bw/001.png","","","appealing"
"","","","","","animation","302","1844671","0.0-302.0","1920x1080","","3274.2000000476837","98","img/117/5.5/1.5/bw/001.png","","","appealing"
"","","","","","animation","303","1848067","0.0-303.0","1920x1080","","3394.2000000476837","79.76","img/117/4.5/1/bw/001.png","","","appealing"
"","","","","","animation","304","1850652","0.0-304.0","1920x1080","","2583","73.15","img/117/4.5/2/bw/001.png","","","appealing"
"","","","","","animation","305","1853915","0.0-305.0","1920x1080","","3261.0999999046326","0.40","img/238/2.5/0.66667/bw/001.png","","","appealing"
"","","","","","animation","306","1856033","0.0-306.0","1920x1080","","2116.4000000953674","18.92","img/314/3.5/1.5/bw/001.png","","","appealing"
"","","","","","animation","307","1863985","0.0-307.0","1920x1080","","7950.299999952316","115.08","img/238/5.5/2/bw/001.png","","","appealing"
"","","","","","animation","308","1868895","0.0-308.0","1920x1080","","4908.799999952316","-12.70","img/314/2.5/2/bw/001.png","","","appealing"
"","","","","","animation","309","1884176","0.0-309.0","1920x1080","","15279.5","100","img/238/5.5/1.5/bw/001.png","","","appealing"
"","","","","","animation","310","1890092","0.0-310.0","1920x1080","","5913.599999904633","59","img/314/3.5/0.66667/bw/001.png","","","appealing"
"","","","","","animation","311","1893916","0.0-311.0","1920x1080","","3821.9000000953674","3.17","img/117/2.5/0.66667/bw/001.png","","","appealing"
"","","","","","animation","312","1902828","0.0-312.0","1920x1080","","8911.599999904633","52.25","img/238/4/1/bw/001.png","","","appealing"
"","","","","","html-button-response","313","1922364","0.0-313.0","1920x1080","","19534","","<div class=""intro"">You are about to view a new series of animations.<br><br></div><div class=""intro"">You will evaluate them based on a different descriptor.<br><br></div><div class=""intro"">Move the slider to indicate how <strong style=""text-transform:capitalize"">RELAXING</strong> you find each animation.<br><br></div><div class=""intro"">0 = Least Relaxing<br></div><div class=""intro"">1 = Most Relaxing<br><br></div><div class=""intro"">Remember to use the <strong><em>entire range</em></strong> of the slider to make your ratings.<br></div><div class=""intro"">Please <strong><em>take your time</em></strong> and carefully consider each rating you make.<br><br></div>","0","",""
"","","","","","call-function","314","1922365","0.0-314.0","1920x1080","","","","","","",""
"","","","","","animation","315","1927562","0.0-315.0","1920x1080","","5196.900000095367","6.08","img/117/3.5/0.5/bw/001.png","","","relaxing"
"","","","","","animation","316","1932262","0.0-316.0","1920x1080","","4698.5","23.94","img/314/4/0.5/bw/001.png","","","relaxing"
"","","","","","animation","317","1934762","0.0-317.0","1920x1080","","2498","12.43","img/238/3.5/0.66667/bw/001.png","","","relaxing"
"","","","","","animation","318","1937502","0.0-318.0","1920x1080","","2738.399999856949","55.29","img/117/4.5/1/bw/001.png","","","relaxing"
"","","","","","animation","319","1939479","0.0-319.0","1920x1080","","1975.2000000476837","31.75","img/314/3.5/0.66667/bw/001.png","","","relaxing"
"","","","","","animation","320","1942529","0.0-320.0","1920x1080","","3049.2999999523163","10.85","img/238/3.5/0.5/bw/001.png","","","relaxing"
"","","","","","animation","321","1944703","0.0-321.0","1920x1080","","2172.2999999523163","14.55","img/238/4/0.5/bw/001.png","","","relaxing"
"","","","","","animation","322","1947896","0.0-322.0","1920x1080","","3191.2999999523163","59.39","img/117/4.5/2/bw/001.png","","","relaxing"
"","","","","","animation","323","1951312","0.0-323.0","1920x1080","","3414.5999999046326","26.19","img/238/4/1/bw/001.png","","","relaxing"
"","","","","","animation","324","1955745","0.0-324.0","1920x1080","","4431.099999904633","38","img/117/4/1/bw/001.png","","","relaxing"
"","","","","","animation","325","1959702","0.0-325.0","1920x1080","","3955.100000143051","68.52","img/238/4.5/1.5/bw/001.png","","","relaxing"
"","","","","","animation","326","1962528","0.0-326.0","1920x1080","","2825.5","45.90","img/238/4/1.5/bw/001.png","","","relaxing"
"","","","","","animation","327","1966557","0.0-327.0","1920x1080","","4027.2000000476837","-4.37","img/117/2.5/0.66667/bw/001.png","","","relaxing"
"","","","","","animation","328","1974895","0.0-328.0","1920x1080","","8335.799999952316","50","img/238/3.5/2/bw/001.png","","","relaxing"
"","","","","","animation","329","1989952","0.0-329.0","1920x1080","","15055","93","img/314/5.5/0.5/bw/001.png","","","relaxing"
"","","","","","animation","330","1998948","0.0-330.0","1920x1080","","8993.700000047684","68.25","img/238/3.5/1/bw/001.png","","","relaxing"
"","","","","","animation","331","2002929","0.0-331.0","1920x1080","","3977.9000000953674","100","img/314/5.5/2/bw/001.png","","","relaxing"
"","","","","","animation","332","2012448","0.0-332.0","1920x1080","","9514.799999952316","42.06","img/117/4.5/0.5/bw/001.png","","","relaxing"
"","","","","","animation","333","2024529","0.0-333.0","1920x1080","","12080.400000095367","35.71","img/117/3.5/1/bw/001.png","","","relaxing"
"","","","","","animation","334","2028630","0.0-334.0","1920x1080","","4098.200000047684","85.58","img/314/5.5/1/bw/001.png","","","relaxing"
"","","","","","animation","335","2049386","0.0-335.0","1920x1080","","20754.400000095367","24.07","img/238/3.5/1.5/bw/001.png","","","relaxing"
"","","","","","animation","336","2053716","0.0-336.0","1920x1080","","4328.100000143051","100","img/314/5.5/1.5/bw/001.png","","","relaxing"
"","","","","","animation","337","2057582","0.0-337.0","1920x1080","","3863.5","0","img/238/2.5/0.66667/bw/001.png","","","relaxing"
"","","","","","animation","338","2060622","0.0-338.0","1920x1080","","3038.5","96","img/117/5.5/1/bw/001.png","","","relaxing"
"","","","","","animation","339","2063272","0.0-339.0","1920x1080","","2648.7999999523163","0.79","img/238/2.5/1/bw/001.png","","","relaxing"
"","","","","","animation","340","2066750","0.0-340.0","1920x1080","","3475","32.28","img/314/4/2/bw/001.png","","","relaxing"
"","","","","","animation","341","2073071","0.0-341.0","1920x1080","","6319.5","0.53","img/314/2.5/0.66667/bw/001.png","","","relaxing"
"","","","","","animation","342","2080446","0.0-342.0","1920x1080","","7371.299999952316","36.24","img/117/4/0.66667/bw/001.png","","","relaxing"
"","","","","","animation","343","2087924","0.0-343.0","1920x1080","","7474.799999952316","55.42","img/238/4.5/0.5/bw/001.png","","","relaxing"
"","","","","","animation","344","2092212","0.0-344.0","1920x1080","","4287","38.23","img/238/4/0.66667/bw/001.png","","","relaxing"
"","","","","","animation","345","2096679","0.0-345.0","1920x1080","","4461.5","99","img/238/5.5/2/bw/001.png","","","relaxing"
"","","","","","animation","346","2100896","0.0-346.0","1920x1080","","4215.700000047684","16.01","img/314/3.5/1.5/bw/001.png","","","relaxing"
"","","","","","animation","347","2104196","0.0-347.0","1920x1080","","3297.600000143051","22.88","img/238/4/2/bw/001.png","","","relaxing"
"","","","","","animation","348","2107683","0.0-348.0","1920x1080","","3485","0.53","img/117/2.5/2/bw/001.png","","","relaxing"
"","","","","","animation","349","2110097","0.0-349.0","1920x1080","","2411.2000000476837","13.62","img/314/3.5/2/bw/001.png","","","relaxing"
"","","","","","animation","350","2115219","0.0-350.0","1920x1080","","5120.700000047684","13.62","img/314/4/0.66667/bw/001.png","","","relaxing"
"","","","","","animation","351","2124062","0.0-351.0","1920x1080","","8838.600000143051","0","img/314/3.5/0.5/bw/001.png","","","relaxing"
"","","","","","animation","352","2127780","0.0-352.0","1920x1080","","3715.4000000953674","7.67","img/314/4/1/bw/001.png","","","relaxing"
"","","","","","animation","353","2132838","0.0-353.0","1920x1080","","5057.299999952316","28.70","img/314/4.5/1.5/bw/001.png","","","relaxing"
"","","","","","animation","354","2135700","0.0-354.0","1920x1080","","2859.5","43.25","img/117/4.5/1.5/bw/001.png","","","relaxing"
"","","","","","animation","355","2138348","0.0-355.0","1920x1080","","2645.800000190735","0.40","img/238/2.5/0.5/bw/001.png","","","relaxing"
"","","","","","animation","356","2141616","0.0-356.0","1920x1080","","3267.199999809265","9.66","img/117/3.5/0.66667/bw/001.png","","","relaxing"
"","","","","","animation","357","2150066","0.0-357.0","1920x1080","","8446.799999952316","36.38","img/314/3.5/1/bw/001.png","","","relaxing"
"","","","","","animation","358","2154617","0.0-358.0","1920x1080","","4549.899999856949","99","img/117/5.5/2/bw/001.png","","","relaxing"
"","","","","","animation","359","2158479","0.0-359.0","1920x1080","","3858.9000000953674","61.64","img/314/4.5/2/bw/001.png","","","relaxing"
"","","","","","animation","360","2161432","0.0-360.0","1920x1080","","2951.399999856949","0.40","img/117/2.5/1/bw/001.png","","","relaxing"
"","","","","","animation","361","2166580","0.0-361.0","1920x1080","","5145.800000190735","28.17","img/117/3.5/1.5/bw/001.png","","","relaxing"
"","","","","","animation","362","2169429","0.0-362.0","1920x1080","","2847.2999999523163","100","img/117/5.5/1.5/bw/001.png","","","relaxing"
"","","","","","animation","363","2173107","0.0-363.0","1920x1080","","3675.5","58.73","img/314/4.5/1/bw/001.png","","","relaxing"
"","","","","","animation","364","2177780","0.0-364.0","1920x1080","","4670.200000047684","27.65","img/117/3.5/2/bw/001.png","","","relaxing"
"","","","","","animation","365","2182913","0.0-365.0","1920x1080","","5130.5","34.66","img/117/4/0.5/bw/001.png","","","relaxing"
"","","","","","animation","366","2186163","0.0-366.0","1920x1080","","3249.0999999046326","98","img/238/5.5/1/bw/001.png","","","relaxing"
"","","","","","animation","367","2189513","0.0-367.0","1920x1080","","3347.9000000953674","0.53","img/314/2.5/1/bw/001.png","","","relaxing"
"","","","","","animation","368","2204796","0.0-368.0","1920x1080","","15280.700000047684","30.82","img/314/4/1.5/bw/001.png","","","relaxing"
"","","","","","animation","369","2208929","0.0-369.0","1920x1080","","4131.299999952316","61.38","img/238/4.5/2/bw/001.png","","","relaxing"
"","","","","","animation","370","2212450","0.0-370.0","1920x1080","","3518.899999856949","29.63","img/314/4.5/0.66667/bw/001.png","","","relaxing"
"","","","","","animation","371","2215459","0.0-371.0","1920x1080","","3006.4000000953674","100","img/314/5.5/0.66667/bw/001.png","","","relaxing"
"","","","","","animation","372","2218918","0.0-372.0","1920x1080","","3457.600000143051","109.66","img/238/5.5/0.5/bw/001.png","","","relaxing"
"","","","","","animation","373","2228780","0.0-373.0","1920x1080","","9859.699999809265","67.46","img/117/4/2/bw/001.png","","","relaxing"
"","","","","","animation","374","2239629","0.0-374.0","1920x1080","","10847.300000190735","3.70","img/117/2.5/1.5/bw/001.png","","","relaxing"
"","","","","","animation","375","2248963","0.0-375.0","1920x1080","","9329.099999904633","91.01","img/117/5.5/0.5/bw/001.png","","","relaxing"
"","","","","","animation","376","2256808","0.0-376.0","1920x1080","","7843","100","img/238/5.5/0.66667/bw/001.png","","","relaxing"
"","","","","","animation","377","2266664","0.0-377.0","1920x1080","","9853.200000047684","55.69","img/117/4/1.5/bw/001.png","","","relaxing"
"","","","","","animation","378","2270029","0.0-378.0","1920x1080","","3361.9000000953674","74.34","img/238/4.5/0.66667/bw/001.png","","","relaxing"
"","","","","","animation","379","2276229","0.0-379.0","1920x1080","","6198.5","14.42","img/314/2.5/0.5/bw/001.png","","","relaxing"
"","","","","","animation","380","2284312","0.0-380.0","1920x1080","","8078","5.82","img/314/2.5/2/bw/001.png","","","relaxing"
"","","","","","animation","381","2290050","0.0-381.0","1920x1080","","5736.700000047684","67.99","img/238/4.5/1/bw/001.png","","","relaxing"
"","","","","","animation","382","2300333","0.0-382.0","1920x1080","","10278.299999952316","58.86","img/117/4.5/0.66667/bw/001.png","","","relaxing"
"","","","","","animation","383","2305749","0.0-383.0","1920x1080","","5413.299999952316","12.70","img/238/2.5/1.5/bw/001.png","","","relaxing"
"","","","","","animation","384","2309936","0.0-384.0","1920x1080","","4184.899999856949","33.07","img/314/4.5/0.5/bw/001.png","","","relaxing"
"","","","","","animation","385","2316153","0.0-385.0","1920x1080","","6215","97","img/238/5.5/1.5/bw/001.png","","","relaxing"
"","","","","","animation","386","2320051","0.0-386.0","1920x1080","","3895.0999999046326","3.17","img/314/2.5/1.5/bw/001.png","","","relaxing"
"","","","","","animation","387","2323206","0.0-387.0","1920x1080","","3153.5999999046326","0.40","img/117/2.5/0.5/bw/001.png","","","relaxing"
"","","","","","animation","388","2326462","0.0-388.0","1920x1080","","3253.399999856949","0.53","img/238/2.5/2/bw/001.png","","","relaxing"
"","","","","","animation","389","2331754","0.0-389.0","1920x1080","","5289.400000095367","92","img/117/5.5/0.66667/bw/001.png","","","relaxing"
"","","","","","html-button-response","390","2359516","0.0-390.0","1920x1080","","27761","","<strong>Study Debriefing</strong><br><p class=""debrief""><strong>Background:</strong> The patterns you rated are called <em>fractals</em>. The term fractal describes a class of irregular curves or shapes for which any suitably chosen part is similar in shape to a given larger or smaller part when magnified or reduced to the same size. Fractal properties are found throughout the natural and manmade world. The series of animations you saw today displayed animated fractal patterns of a varying complexity.</p><p class=""debrief""><strong>Purpose of this study:</strong> We hope to better understand how the perception of static fractals differs from the perception of animated fractals, and how the speed of the animated patterns influences people&apos;s perception of them. Fractals allow us to study the perception of aesthetic properties (e.g. the perceived level of beauty in an image) without using recognizable content, which makes them an excellent tool for studying abstract aesthetic judgement.</p><p class=""debrief""><strong>Your part:</strong> Your participation has helped us to further understand how humans perceive these patterns across different levels of speed and complexity. This research with allow us to better understand how the visual system and brain process our ever-changing visual environments.<p class=""debrief""><strong>Feedback and Further information:</strong> If you have additional questions about this study, please feel free to ask the researcher, Nathan Gonzales-Hess at nhess @ uoregon.edu. If you have any questions concerning your rights as a research participant, please contact Research Compliance Services, 5237 University of Oregon, Eugene, OR 97403, 541-346-2510, or email researchCompliance @ uoregon.edu. You can also email the Human Subjects Coordinator for psychology and linguistics research at hscoord @ uoregon.edu. ","0","",""
"","","","","","html-button-response","391","2365329","0.0-391.0","1920x1080","","5807.900000095367","","Thank you for participating in this study. <br>Please click below to finish the experiment and submit your responses.<br><br>","0","",""
"true","","","","","fullscreen","392","2366399","0.0-392.0","1920x1080","11:52 3/6/2022","","","","","",""
