"success","timeout","failed_images","failed_audio","failed_video","trial_type","trial_index","time_elapsed","internal_node_id","resolution","timeStamp","rt","response","stimulus","button_pressed","value","descriptor"
"true","false","[]","[]","[]","preload","0","16061","0.0-0.0","1920x1080","","","","","","",""
"true","false","[]","[]","[]","preload","1","32545","0.0-1.0","1920x1080","","","","","","",""
"true","false","[]","[]","[]","preload","2","49497","0.0-2.0","1920x1080","","","","","","",""
"true","","","","","fullscreen","3","245735","0.0-3.0","1920x1080","14:3 20/5/2022","","","","","",""
"","","","","","survey-html-form","4","256201","0.0-4.0","1920x1080","","10463","{""age"":""18"",""gender"":""male""}","","","",""
"","","","","","html-button-response","5","277697","0.0-5.0","1920x1080","","21494.700000000186","","<div class=""complex"">You are going to see a series of animations.<br><br></div><div class=""complex"">Move the slider to indicate how <strong style=""text-transform:capitalize"">COMPLEX</strong> you find each animation.<br><br></div><div class=""complex"">0 = Least Complex<br></div><div class=""complex"">1 = Most Complex<br><br></div><div class=""complex"">Remember to use the <strong><em>entire range</em></strong> of the slider to make your ratings.<br></div><div class=""complex"">Please <strong><em>take your time</em></strong> and carefully consider each rating you make.<br><br></div><div class=""complex"">The study has five sections and will take about 45 minutes to complete.<br><br></div>","0","",""
"","","","","","call-function","6","277697","0.0-6.0","1920x1080","","","","","","",""
"","","","","","animation","7","285057","0.0-7.0","1920x1080","","7356.5999999996275","99","img/117/2.5/1.5/bw/001.png","","","complex"
"","","","","","animation","8","338335","0.0-8.0","1920x1080","","53278.299999999814","84.26","img/314/3.5/1/bw/001.png","","","complex"
"","","","","","animation","9","343216","0.0-9.0","1920x1080","","4879.5","100","img/238/3.5/0.5/bw/001.png","","","complex"
"","","","","","animation","10","351591","0.0-10.0","1920x1080","","8374.899999999441","48.68","img/238/4.5/2/bw/001.png","","","complex"
"","","","","","animation","11","358032","0.0-11.0","1920x1080","","6439.5","100","img/238/2.5/0.5/bw/001.png","","","complex"
"","","","","","animation","12","369287","0.0-12.0","1920x1080","","11254.900000000373","66.67","img/238/5.5/2/bw/001.png","","","complex"
"","","","","","animation","13","372743","0.0-13.0","1920x1080","","3454.5999999996275","65.61","img/238/5.5/1/bw/001.png","","","complex"
"","","","","","animation","14","375935","0.0-14.0","1920x1080","","3191.2000000001863","99","img/314/3.5/2/bw/001.png","","","complex"
"","","","","","animation","15","379463","0.0-15.0","1920x1080","","3527.4000000003725","98","img/314/4.5/0.5/bw/001.png","","","complex"
"","","","","","animation","16","383191","0.0-16.0","1920x1080","","3726.9000000003725","99","img/238/3.5/0.66667/bw/001.png","","","complex"
"","","","","","animation","17","387087","0.0-17.0","1920x1080","","3895.5","98","img/314/3.5/0.5/bw/001.png","","","complex"
"","","","","","animation","18","391071","0.0-18.0","1920x1080","","3983.100000000559","80.95","img/117/5.5/1/bw/001.png","","","complex"
"","","","","","animation","19","394640","0.0-19.0","1920x1080","","3567.5999999996275","89","img/117/5.5/0.5/bw/001.png","","","complex"
"","","","","","animation","20","398911","0.0-20.0","1920x1080","","4271.100000000559","98","img/314/4/0.66667/bw/001.png","","","complex"
"","","","","","animation","21","403775","0.0-21.0","1920x1080","","4862.899999999441","100","img/117/4/1/bw/001.png","","","complex"
"","","","","","animation","22","409111","0.0-22.0","1920x1080","","5335.300000000745","52","img/117/5.5/2/bw/001.png","","","complex"
"","","","","","animation","23","413407","0.0-23.0","1920x1080","","4294.899999999441","100","img/314/4/1/bw/001.png","","","complex"
"","","","","","animation","24","416831","0.0-24.0","1920x1080","","3423.5","72.22","img/117/5.5/0.66667/bw/001.png","","","complex"
"","","","","","animation","25","423647","0.0-25.0","1920x1080","","6815.200000000186","78.84","img/117/4.5/1.5/bw/001.png","","","complex"
"","","","","","animation","26","437799","0.0-26.0","1920x1080","","14151.599999999627","97","img/117/4/0.5/bw/001.png","","","complex"
"","","","","","animation","27","442879","0.0-27.0","1920x1080","","5078.799999999814","100","img/238/3.5/1.5/bw/001.png","","","complex"
"","","","","","animation","28","446287","0.0-28.0","1920x1080","","3407.0999999996275","72.22","img/314/4.5/2/bw/001.png","","","complex"
"","","","","","animation","29","470911","0.0-29.0","1920x1080","","24622.700000000186","87.57","img/314/4/1.5/bw/001.png","","","complex"
"","","","","","animation","30","475727","0.0-30.0","1920x1080","","4814.9000000003725","78.04","img/238/5.5/0.66667/bw/001.png","","","complex"
"","","","","","animation","31","482663","0.0-31.0","1920x1080","","6935.200000000186","98","img/314/3.5/0.66667/bw/001.png","","","complex"
"","","","","","animation","32","485183","0.0-32.0","1920x1080","","2519.2999999998137","85.45","img/314/4.5/0.66667/bw/001.png","","","complex"
"","","","","","animation","33","488495","0.0-33.0","1920x1080","","3311.2000000001863","99","img/117/4.5/1/bw/001.png","","","complex"
"","","","","","animation","34","496927","0.0-34.0","1920x1080","","8430.700000000186","97","img/117/4/1.5/bw/001.png","","","complex"
"","","","","","animation","35","505783","0.0-35.0","1920x1080","","8855.299999999814","100","img/238/2.5/1/bw/001.png","","","complex"
"","","","","","animation","36","508175","0.0-36.0","1920x1080","","2391.100000000559","71.56","img/117/4/2/bw/001.png","","","complex"
"","","","","","animation","37","511263","0.0-37.0","1920x1080","","3087.399999999441","79.23","img/238/4/0.66667/bw/001.png","","","complex"
"","","","","","animation","38","513816","0.0-38.0","1920x1080","","2551.0999999996275","86.24","img/238/4.5/0.5/bw/001.png","","","complex"
"","","","","","animation","39","516695","0.0-39.0","1920x1080","","2878.7999999998137","99","img/314/2.5/1/bw/001.png","","","complex"
"","","","","","animation","40","520008","0.0-40.0","1920x1080","","3311.100000000559","93.65","img/238/4/2/bw/001.png","","","complex"
"","","","","","animation","41","524063","0.0-41.0","1920x1080","","4054.5","85","img/314/4.5/1.5/bw/001.png","","","complex"
"","","","","","animation","42","528841","0.0-42.0","1920x1080","","4776.399999999441","76.06","img/238/5.5/0.5/bw/001.png","","","complex"
"","","","","","animation","43","532320","0.0-43.0","1920x1080","","3478.300000000745","77.25","img/314/5.5/1.5/bw/001.png","","","complex"
"","","","","","animation","44","535967","0.0-44.0","1920x1080","","3646.4000000003725","100","img/314/2.5/2/bw/001.png","","","complex"
"","","","","","animation","45","539063","0.0-45.0","1920x1080","","3095.100000000559","100","img/238/2.5/0.66667/bw/001.png","","","complex"
"","","","","","animation","46","542391","0.0-46.0","1920x1080","","3327.0999999996275","70","img/238/5.5/1.5/bw/001.png","","","complex"
"","","","","","animation","47","546895","0.0-47.0","1920x1080","","4503.0999999996275","85.19","img/238/3.5/2/bw/001.png","","","complex"
"","","","","","animation","48","550095","0.0-48.0","1920x1080","","3198.9000000003725","82.14","img/314/4/2/bw/001.png","","","complex"
"","","","","","animation","49","553359","0.0-49.0","1920x1080","","3263","76.98","img/117/4.5/2/bw/001.png","","","complex"
"","","","","","animation","50","559727","0.0-50.0","1920x1080","","6367.200000000186","85.98","img/238/4.5/1/bw/001.png","","","complex"
"","","","","","animation","51","564295","0.0-51.0","1920x1080","","4566.9000000003725","75.40","img/314/5.5/0.66667/bw/001.png","","","complex"
"","","","","","animation","52","568647","0.0-52.0","1920x1080","","4351.399999999441","96","img/117/3.5/2/bw/001.png","","","complex"
"","","","","","animation","53","573351","0.0-53.0","1920x1080","","4703.399999999441","99","img/238/4/1/bw/001.png","","","complex"
"","","","","","animation","54","581575","0.0-54.0","1920x1080","","8223.099999999627","97","img/314/4/0.5/bw/001.png","","","complex"
"","","","","","animation","55","588040","0.0-55.0","1920x1080","","6464.100000000559","100","img/117/3.5/0.5/bw/001.png","","","complex"
"","","","","","animation","56","590736","0.0-56.0","1920x1080","","2694.2999999998137","92.06","img/314/3.5/1.5/bw/001.png","","","complex"
"","","","","","animation","57","593711","0.0-57.0","1920x1080","","2974.699999999255","91.27","img/117/3.5/1.5/bw/001.png","","","complex"
"","","","","","animation","58","596600","0.0-58.0","1920x1080","","2887.4000000003725","93.65","img/117/3.5/0.66667/bw/001.png","","","complex"
"","","","","","animation","59","600927","0.0-59.0","1920x1080","","4326.699999999255","100","img/117/2.5/0.5/bw/001.png","","","complex"
"","","","","","animation","60","604640","0.0-60.0","1920x1080","","3712.5","100","img/238/3.5/1/bw/001.png","","","complex"
"","","","","","animation","61","609447","0.0-61.0","1920x1080","","4806","80.42","img/314/5.5/1/bw/001.png","","","complex"
"","","","","","animation","62","614911","0.0-62.0","1920x1080","","5462.5999999996275","62.96","img/314/5.5/2/bw/001.png","","","complex"
"","","","","","animation","63","617815","0.0-63.0","1920x1080","","2903.2999999998137","59.79","img/314/5.5/0.5/bw/001.png","","","complex"
"","","","","","animation","64","620879","0.0-64.0","1920x1080","","3062.7999999998137","100","img/238/2.5/1.5/bw/001.png","","","complex"
"","","","","","animation","65","626111","0.0-65.0","1920x1080","","5231.0999999996275","90.34","img/238/4/0.5/bw/001.png","","","complex"
"","","","","","animation","66","629727","0.0-66.0","1920x1080","","3614.7000000001863","99","img/117/2.5/1/bw/001.png","","","complex"
"","","","","","animation","67","635135","0.0-67.0","1920x1080","","5407.5999999996275","68.25","img/117/4.5/0.66667/bw/001.png","","","complex"
"","","","","","animation","68","637919","0.0-68.0","1920x1080","","2782.9000000003725","87.96","img/117/3.5/1/bw/001.png","","","complex"
"","","","","","animation","69","640367","0.0-69.0","1920x1080","","2447.0999999996275","87.96","img/117/4.5/0.5/bw/001.png","","","complex"
"","","","","","animation","70","648479","0.0-70.0","1920x1080","","8110.799999999814","97","img/314/2.5/0.66667/bw/001.png","","","complex"
"","","","","","animation","71","653441","0.0-71.0","1920x1080","","4960.799999999814","80.42","img/238/4/1.5/bw/001.png","","","complex"
"","","","","","animation","72","656274","0.0-72.0","1920x1080","","2832.2000000001863","100","img/117/2.5/0.66667/bw/001.png","","","complex"
"","","","","","animation","73","659983","0.0-73.0","1920x1080","","3708.300000000745","93.65","img/117/4/0.66667/bw/001.png","","","complex"
"","","","","","animation","74","664063","0.0-74.0","1920x1080","","4079.300000000745","100","img/314/2.5/0.5/bw/001.png","","","complex"
"","","","","","animation","75","666624","0.0-75.0","1920x1080","","2560.100000000559","100","img/314/2.5/1.5/bw/001.png","","","complex"
"","","","","","animation","76","669294","0.0-76.0","1920x1080","","2669.399999999441","100","img/238/2.5/2/bw/001.png","","","complex"
"","","","","","animation","77","673690","0.0-77.0","1920x1080","","4394.600000000559","66.14","img/238/4.5/1.5/bw/001.png","","","complex"
"","","","","","animation","78","677190","0.0-78.0","1920x1080","","3499.2999999998137","75.53","img/238/4.5/0.66667/bw/001.png","","","complex"
"","","","","","animation","79","680135","0.0-79.0","1920x1080","","2943.5","75.53","img/117/5.5/1.5/bw/001.png","","","complex"
"","","","","","animation","80","684815","0.0-80.0","1920x1080","","4678.799999999814","82.80","img/314/4.5/1/bw/001.png","","","complex"
"","","","","","animation","81","688750","0.0-81.0","1920x1080","","3934.7999999998137","100","img/117/2.5/2/bw/001.png","","","complex"
"","","","","","html-button-response","82","707863","0.0-82.0","1920x1080","","19111.400000000373","","<div class=""intro"">You are about to view a new series of animations.<br><br></div><div class=""intro"">You will evaluate them based on a different descriptor.<br><br></div><div class=""intro"">Move the slider to indicate how <strong style=""text-transform:capitalize"">RELAXING</strong> you find each animation.<br><br></div><div class=""intro"">0 = Least Relaxing<br></div><div class=""intro"">1 = Most Relaxing<br><br></div><div class=""intro"">Remember to use the <strong><em>entire range</em></strong> of the slider to make your ratings.<br></div><div class=""intro"">Please <strong><em>take your time</em></strong> and carefully consider each rating you make.<br><br></div>","0","",""
"","","","","","call-function","83","707864","0.0-83.0","1920x1080","","","","","","",""
"","","","","","animation","84","721847","0.0-84.0","1920x1080","","13982.299999999814","29","img/117/4/1/bw/001.png","","","relaxing"
"","","","","","animation","85","726207","0.0-85.0","1920x1080","","4358.899999999441","3","img/238/4/0.66667/bw/001.png","","","relaxing"
"","","","","","animation","86","730440","0.0-86.0","1920x1080","","4231.5999999996275","0.00","img/314/2.5/0.5/bw/001.png","","","relaxing"
"","","","","","animation","87","740527","0.0-87.0","1920x1080","","10086","97","img/117/5.5/1.5/bw/001.png","","","relaxing"
"","","","","","animation","88","747759","0.0-88.0","1920x1080","","7230.799999999814","48.68","img/314/4.5/2/bw/001.png","","","relaxing"
"","","","","","animation","89","754879","0.0-89.0","1920x1080","","7119.5","12.30","img/314/4.5/0.5/bw/001.png","","","relaxing"
"","","","","","animation","90","759415","0.0-90.0","1920x1080","","4534.9000000003725","0","img/238/2.5/0.66667/bw/001.png","","","relaxing"
"","","","","","animation","91","767351","0.0-91.0","1920x1080","","7934.9000000003725","54","img/238/4.5/2/bw/001.png","","","relaxing"
"","","","","","animation","92","771847","0.0-92.0","1920x1080","","4494.699999999255","62.04","img/238/4/2/bw/001.png","","","relaxing"
"","","","","","animation","93","774723","0.0-93.0","1920x1080","","2874","72.35","img/314/4.5/1/bw/001.png","","","relaxing"
"","","","","","animation","94","778024","0.0-94.0","1920x1080","","3300.5999999996275","0","img/314/3.5/1/bw/001.png","","","relaxing"
"","","","","","animation","95","782647","0.0-95.0","1920x1080","","4622.4000000003725","38.49","img/238/4.5/1/bw/001.png","","","relaxing"
"","","","","","animation","96","785767","0.0-96.0","1920x1080","","3119.2999999998137","0.93","img/238/4/0.5/bw/001.png","","","relaxing"
"","","","","","animation","97","791056","0.0-97.0","1920x1080","","5288.299999999814","48.41","img/314/4/1.5/bw/001.png","","","relaxing"
"","","","","","animation","98","795574","0.0-98.0","1920x1080","","4516.9000000003725","34.13","img/238/3.5/1.5/bw/001.png","","","relaxing"
"","","","","","animation","99","800247","0.0-99.0","1920x1080","","4671.199999999255","85.19","img/117/5.5/2/bw/001.png","","","relaxing"
"","","","","","animation","100","804310","0.0-100.0","1920x1080","","4062.7000000001863","56.61","img/314/3.5/2/bw/001.png","","","relaxing"
"","","","","","animation","101","826695","0.0-101.0","1920x1080","","22383.299999999814","49","img/314/3.5/1.5/bw/001.png","","","relaxing"
"","","","","","animation","102","831663","0.0-102.0","1920x1080","","4962.5","27","img/238/3.5/0.66667/bw/001.png","","","relaxing"
"","","","","","animation","103","834872","0.0-103.0","1920x1080","","3207.2000000001863","21","img/314/4/0.5/bw/001.png","","","relaxing"
"","","","","","animation","104","849751","0.0-104.0","1920x1080","","14878.200000000186","0","img/117/2.5/1.5/bw/001.png","","","relaxing"
"","","","","","animation","105","853874","0.0-105.0","1920x1080","","4121.200000000186","58.99","img/314/4/2/bw/001.png","","","relaxing"
"","","","","","animation","106","858456","0.0-106.0","1920x1080","","4580.5","0","img/117/2.5/0.66667/bw/001.png","","","relaxing"
"","","","","","animation","107","865206","0.0-107.0","1920x1080","","6749.200000000186","75","img/238/3.5/2/bw/001.png","","","relaxing"
"","","","","","animation","108","871527","0.0-108.0","1920x1080","","6319.100000000559","5","img/238/2.5/2/bw/001.png","","","relaxing"
"","","","","","animation","109","874327","0.0-109.0","1920x1080","","2798.7999999998137","40.87","img/117/3.5/1/bw/001.png","","","relaxing"
"","","","","","animation","110","877959","0.0-110.0","1920x1080","","3631.2000000001863","100","img/117/5.5/0.5/bw/001.png","","","relaxing"
"","","","","","animation","111","882340","0.0-111.0","1920x1080","","4380.699999999255","26.85","img/117/4.5/0.5/bw/001.png","","","relaxing"
"","","","","","animation","112","886072","0.0-112.0","1920x1080","","3730","84","img/117/4.5/2/bw/001.png","","","relaxing"
"","","","","","animation","113","889174","0.0-113.0","1920x1080","","3102.100000000559","83","img/117/4.5/1.5/bw/001.png","","","relaxing"
"","","","","","animation","114","892983","0.0-114.0","1920x1080","","3807.5","68","img/238/4/1.5/bw/001.png","","","relaxing"
"","","","","","animation","115","896567","0.0-115.0","1920x1080","","3583","25","img/314/4/1/bw/001.png","","","relaxing"
"","","","","","animation","116","902390","0.0-116.0","1920x1080","","5822.5","0","img/117/3.5/0.5/bw/001.png","","","relaxing"
"","","","","","animation","117","905289","0.0-117.0","1920x1080","","2897.5999999996275","47.35","img/117/3.5/1.5/bw/001.png","","","relaxing"
"","","","","","animation","118","910183","0.0-118.0","1920x1080","","4892.600000000559","47.88","img/117/3.5/2/bw/001.png","","","relaxing"
"","","","","","animation","119","938367","0.0-119.0","1920x1080","","28183.200000000186","100","img/314/5.5/0.66667/bw/001.png","","","relaxing"
"","","","","","animation","120","943289","0.0-120.0","1920x1080","","4920.5","100","img/314/5.5/2/bw/001.png","","","relaxing"
"","","","","","animation","121","946943","0.0-121.0","1920x1080","","3653","80","img/117/4/2/bw/001.png","","","relaxing"
"","","","","","animation","122","1001775","0.0-122.0","1920x1080","","54830.89999999944","90","img/314/5.5/0.5/bw/001.png","","","relaxing"
"","","","","","animation","123","1006772","0.0-123.0","1920x1080","","4996","0.40","img/314/2.5/1.5/bw/001.png","","","relaxing"
"","","","","","animation","124","1010775","0.0-124.0","1920x1080","","4001.7999999998137","0","img/314/3.5/0.66667/bw/001.png","","","relaxing"
"","","","","","animation","125","1014571","0.0-125.0","1920x1080","","3795.399999999441","0.40","img/238/3.5/0.5/bw/001.png","","","relaxing"
"","","","","","animation","126","1017791","0.0-126.0","1920x1080","","3217.4000000003725","0.00","img/314/2.5/1/bw/001.png","","","relaxing"
"","","","","","animation","127","1022263","0.0-127.0","1920x1080","","4471.4000000003725","14.68","img/314/4/0.66667/bw/001.png","","","relaxing"
"","","","","","animation","128","1028191","0.0-128.0","1920x1080","","5926.699999999255","100","img/238/5.5/0.66667/bw/001.png","","","relaxing"
"","","","","","animation","129","1031773","0.0-129.0","1920x1080","","3580.300000000745","55.56","img/117/4/0.66667/bw/001.png","","","relaxing"
"","","","","","animation","130","1034831","0.0-130.0","1920x1080","","3056.9000000003725","52.12","img/238/4.5/0.66667/bw/001.png","","","relaxing"
"","","","","","animation","131","1045359","0.0-131.0","1920x1080","","10526.799999999814","0.53","img/117/2.5/1/bw/001.png","","","relaxing"
"","","","","","animation","132","1051072","0.0-132.0","1920x1080","","5709.399999999441","0","img/238/2.5/0.5/bw/001.png","","","relaxing"
"","","","","","animation","133","1054791","0.0-133.0","1920x1080","","3717.4000000003725","52.38","img/238/4/1/bw/001.png","","","relaxing"
"","","","","","animation","134","1058311","0.0-134.0","1920x1080","","3519.5","60.45","img/117/4.5/0.66667/bw/001.png","","","relaxing"
"","","","","","animation","135","1065911","0.0-135.0","1920x1080","","7598.4000000003725","91.14","img/238/5.5/1/bw/001.png","","","relaxing"
"","","","","","animation","136","1071711","0.0-136.0","1920x1080","","5798.4000000003725","69","img/117/4.5/1/bw/001.png","","","relaxing"
"","","","","","animation","137","1076591","0.0-137.0","1920x1080","","4878.799999999814","10","img/238/2.5/1.5/bw/001.png","","","relaxing"
"","","","","","animation","138","1079607","0.0-138.0","1920x1080","","3015.0999999996275","5.29","img/238/3.5/1/bw/001.png","","","relaxing"
"","","","","","animation","139","1083663","0.0-139.0","1920x1080","","4055.4000000003725","85.45","img/117/5.5/0.66667/bw/001.png","","","relaxing"
"","","","","","animation","140","1093359","0.0-140.0","1920x1080","","9694.800000000745","1","img/238/2.5/1/bw/001.png","","","relaxing"
"","","","","","animation","141","1115615","0.0-141.0","1920x1080","","22253.60000000056","3.97","img/314/3.5/0.5/bw/001.png","","","relaxing"
"","","","","","animation","142","1118431","0.0-142.0","1920x1080","","2815.2000000001863","28.17","img/117/3.5/0.66667/bw/001.png","","","relaxing"
"","","","","","animation","143","1121939","0.0-143.0","1920x1080","","3506.4000000003725","15.48","img/117/4/0.5/bw/001.png","","","relaxing"
"","","","","","animation","144","1125272","0.0-144.0","1920x1080","","3331.2999999998137","56.48","img/238/4.5/1.5/bw/001.png","","","relaxing"
"","","","","","animation","145","1127695","0.0-145.0","1920x1080","","2422.9000000003725","64.81","img/314/4.5/0.66667/bw/001.png","","","relaxing"
"","","","","","animation","146","1130473","0.0-146.0","1920x1080","","2775.899999999441","79.50","img/238/5.5/1.5/bw/001.png","","","relaxing"
"","","","","","animation","147","1133207","0.0-147.0","1920x1080","","2733.2999999998137","74.21","img/314/4.5/1.5/bw/001.png","","","relaxing"
"","","","","","animation","148","1138743","0.0-148.0","1920x1080","","5535.300000000745","96","img/314/5.5/1/bw/001.png","","","relaxing"
"","","","","","animation","149","1141856","0.0-149.0","1920x1080","","3111","17.59","img/314/2.5/2/bw/001.png","","","relaxing"
"","","","","","animation","150","1145188","0.0-150.0","1920x1080","","3332.4000000003725","1.32","img/314/2.5/0.66667/bw/001.png","","","relaxing"
"","","","","","animation","151","1149247","0.0-151.0","1920x1080","","4057.600000000559","82.28","img/238/5.5/0.5/bw/001.png","","","relaxing"
"","","","","","animation","152","1152555","0.0-152.0","1920x1080","","3307","1.32","img/117/2.5/2/bw/001.png","","","relaxing"
"","","","","","animation","153","1156311","0.0-153.0","1920x1080","","3754.5999999996275","99","img/314/5.5/1.5/bw/001.png","","","relaxing"
"","","","","","animation","154","1159788","0.0-154.0","1920x1080","","3475.7999999998137","61.64","img/117/4/1.5/bw/001.png","","","relaxing"
"","","","","","animation","155","1162022","0.0-155.0","1920x1080","","2233.600000000559","0.00","img/117/2.5/0.5/bw/001.png","","","relaxing"
"","","","","","animation","156","1166159","0.0-156.0","1920x1080","","4135.200000000186","30","img/238/4.5/0.5/bw/001.png","","","relaxing"
"","","","","","animation","157","1169289","0.0-157.0","1920x1080","","3129","100","img/238/5.5/2/bw/001.png","","","relaxing"
"","","","","","animation","158","1172847","0.0-158.0","1920x1080","","3557.2999999998137","97","img/117/5.5/1/bw/001.png","","","relaxing"
"","","","","","html-button-response","159","1193739","0.0-159.0","1920x1080","","20890.200000000186","","<div class=""intro"">You are about to view a new series of animations.<br><br></div><div class=""intro"">You will evaluate them based on a different descriptor.<br><br></div><div class=""intro"">Move the slider to indicate how <strong style=""text-transform:capitalize"">INTERESTING</strong> you find each animation.<br><br></div><div class=""intro"">0 = Least Interesting<br></div><div class=""intro"">1 = Most Interesting<br><br></div><div class=""intro"">Remember to use the <strong><em>entire range</em></strong> of the slider to make your ratings.<br></div><div class=""intro"">Please <strong><em>take your time</em></strong> and carefully consider each rating you make.<br><br></div>","0","",""
"","","","","","call-function","160","1193740","0.0-160.0","1920x1080","","","","","","",""
"","","","","","animation","161","1203038","0.0-161.0","1920x1080","","9297.400000000373","78","img/117/4.5/1/bw/001.png","","","interesting"
"","","","","","animation","162","1209071","0.0-162.0","1920x1080","","6031.799999999814","92.99","img/238/5.5/0.5/bw/001.png","","","interesting"
"","","","","","animation","163","1212446","0.0-163.0","1920x1080","","3374.5999999996275","94.58","img/314/5.5/2/bw/001.png","","","interesting"
"","","","","","animation","164","1216295","0.0-164.0","1920x1080","","3847.300000000745","94.97","img/117/5.5/2/bw/001.png","","","interesting"
"","","","","","animation","165","1223121","0.0-165.0","1920x1080","","6825.5","34.39","img/117/2.5/0.66667/bw/001.png","","","interesting"
"","","","","","animation","166","1227504","0.0-166.0","1920x1080","","4381.700000000186","100","img/117/4.5/0.5/bw/001.png","","","interesting"
"","","","","","animation","167","1233638","0.0-167.0","1920x1080","","6131.0999999996275","96","img/117/3.5/2/bw/001.png","","","interesting"
"","","","","","animation","168","1237758","0.0-168.0","1920x1080","","4119.199999999255","59.13","img/238/2.5/0.66667/bw/001.png","","","interesting"
"","","","","","animation","169","1242326","0.0-169.0","1920x1080","","4566.799999999814","99","img/117/4/1.5/bw/001.png","","","interesting"
"","","","","","animation","170","1246422","0.0-170.0","1920x1080","","4094.2000000001863","62.83","img/314/2.5/1/bw/001.png","","","interesting"
"","","","","","animation","171","1251304","0.0-171.0","1920x1080","","4881.299999999814","99","img/117/4.5/1.5/bw/001.png","","","interesting"
"","","","","","animation","172","1256678","0.0-172.0","1920x1080","","5372.700000000186","100","img/117/5.5/0.5/bw/001.png","","","interesting"
"","","","","","animation","173","1312278","0.0-173.0","1920x1080","","55599.200000000186","85.58","img/314/5.5/0.66667/bw/001.png","","","interesting"
"","","","","","animation","174","1319406","0.0-174.0","1920x1080","","7125.399999999441","34.39","img/314/2.5/2/bw/001.png","","","interesting"
"","","","","","animation","175","1322654","0.0-175.0","1920x1080","","3246.7000000001863","92.99","img/117/5.5/1/bw/001.png","","","interesting"
"","","","","","animation","176","1328710","0.0-176.0","1920x1080","","6055.200000000186","98","img/314/3.5/2/bw/001.png","","","interesting"
"","","","","","animation","177","1331071","0.0-177.0","1920x1080","","2358.9000000003725","98","img/314/4.5/1.5/bw/001.png","","","interesting"
"","","","","","animation","178","1334104","0.0-178.0","1920x1080","","3032.4000000003725","39.15","img/314/2.5/1.5/bw/001.png","","","interesting"
"","","","","","animation","179","1338679","0.0-179.0","1920x1080","","4573.799999999814","86.38","img/238/4.5/1.5/bw/001.png","","","interesting"
"","","","","","animation","180","1341590","0.0-180.0","1920x1080","","2910.300000000745","97","img/314/4/2/bw/001.png","","","interesting"
"","","","","","animation","181","1344390","0.0-181.0","1920x1080","","2799.100000000559","23.68","img/238/2.5/1.5/bw/001.png","","","interesting"
"","","","","","animation","182","1347895","0.0-182.0","1920x1080","","3503.2000000001863","99","img/238/5.5/0.66667/bw/001.png","","","interesting"
"","","","","","animation","183","1351774","0.0-183.0","1920x1080","","3878.600000000559","23.28","img/117/2.5/1/bw/001.png","","","interesting"
"","","","","","animation","184","1356154","0.0-184.0","1920x1080","","4378.200000000186","99","img/314/4.5/0.5/bw/001.png","","","interesting"
"","","","","","animation","185","1361654","0.0-185.0","1920x1080","","5498.9000000003725","56","img/117/2.5/2/bw/001.png","","","interesting"
"","","","","","animation","186","1364479","0.0-186.0","1920x1080","","2823.300000000745","99","img/117/4.5/0.66667/bw/001.png","","","interesting"
"","","","","","animation","187","1367671","0.0-187.0","1920x1080","","3190.9000000003725","89.95","img/117/4/1/bw/001.png","","","interesting"
"","","","","","animation","188","1370879","0.0-188.0","1920x1080","","3206.600000000559","96","img/117/4/2/bw/001.png","","","interesting"
"","","","","","animation","189","1373847","0.0-189.0","1920x1080","","2967","96","img/314/4/0.66667/bw/001.png","","","interesting"
"","","","","","animation","190","1378937","0.0-190.0","1920x1080","","5089.299999999814","100","img/117/3.5/0.5/bw/001.png","","","interesting"
"","","","","","animation","191","1382958","0.0-191.0","1920x1080","","4020.2000000001863","47.09","img/238/2.5/1/bw/001.png","","","interesting"
"","","","","","animation","192","1386126","0.0-192.0","1920x1080","","3167.0999999996275","100","img/314/5.5/1/bw/001.png","","","interesting"
"","","","","","animation","193","1388774","0.0-193.0","1920x1080","","2646.7999999998137","87.70","img/238/4/1.5/bw/001.png","","","interesting"
"","","","","","animation","194","1392937","0.0-194.0","1920x1080","","4161.899999999441","67.72","img/314/2.5/0.5/bw/001.png","","","interesting"
"","","","","","animation","195","1396236","0.0-195.0","1920x1080","","3298.7000000001863","99","img/314/4.5/1/bw/001.png","","","interesting"
"","","","","","animation","196","1399020","0.0-196.0","1920x1080","","2782.5999999996275","97","img/314/4.5/0.66667/bw/001.png","","","interesting"
"","","","","","animation","197","1402221","0.0-197.0","1920x1080","","3199.9000000003725","91.67","img/238/4.5/2/bw/001.png","","","interesting"
"","","","","","animation","198","1404758","0.0-198.0","1920x1080","","2535.0999999996275","90.34","img/314/4/1.5/bw/001.png","","","interesting"
"","","","","","animation","199","1408970","0.0-199.0","1920x1080","","4210.9000000003725","99","img/117/4.5/2/bw/001.png","","","interesting"
"","","","","","animation","200","1413078","0.0-200.0","1920x1080","","4106.700000000186","95","img/238/4/1/bw/001.png","","","interesting"
"","","","","","animation","201","1428487","0.0-201.0","1920x1080","","15407.600000000559","99","img/314/4/0.5/bw/001.png","","","interesting"
"","","","","","animation","202","1432405","0.0-202.0","1920x1080","","3917.5","67.20","img/117/3.5/1.5/bw/001.png","","","interesting"
"","","","","","animation","203","1441503","0.0-203.0","1920x1080","","9096.200000000186","89.68","img/238/3.5/2/bw/001.png","","","interesting"
"","","","","","animation","204","1444374","0.0-204.0","1920x1080","","2869.9000000003725","92.86","img/238/4.5/0.5/bw/001.png","","","interesting"
"","","","","","animation","205","1446903","0.0-205.0","1920x1080","","2528.5","100","img/314/3.5/0.5/bw/001.png","","","interesting"
"","","","","","animation","206","1450038","0.0-206.0","1920x1080","","3133.2000000001863","100","img/238/4.5/1/bw/001.png","","","interesting"
"","","","","","animation","207","1454903","0.0-207.0","1920x1080","","4864","100","img/314/3.5/1.5/bw/001.png","","","interesting"
"","","","","","animation","208","1458437","0.0-208.0","1920x1080","","3532.7999999998137","83.99","img/238/5.5/1/bw/001.png","","","interesting"
"","","","","","animation","209","1461353","0.0-209.0","1920x1080","","2914.7000000001863","88.76","img/117/5.5/1.5/bw/001.png","","","interesting"
"","","","","","animation","210","1464236","0.0-210.0","1920x1080","","2881.7999999998137","97","img/238/4.5/0.66667/bw/001.png","","","interesting"
"","","","","","animation","211","1468703","0.0-211.0","1920x1080","","4465.9000000003725","99","img/117/5.5/0.66667/bw/001.png","","","interesting"
"","","","","","animation","212","1472153","0.0-212.0","1920x1080","","3448.2999999998137","100","img/238/3.5/0.5/bw/001.png","","","interesting"
"","","","","","animation","213","1475413","0.0-213.0","1920x1080","","3259.399999999441","91.93","img/238/3.5/1/bw/001.png","","","interesting"
"","","","","","animation","214","1478053","0.0-214.0","1920x1080","","2637.5999999996275","95","img/314/3.5/0.66667/bw/001.png","","","interesting"
"","","","","","animation","215","1481309","0.0-215.0","1920x1080","","3255.2000000001863","93.65","img/238/3.5/0.66667/bw/001.png","","","interesting"
"","","","","","animation","216","1485653","0.0-216.0","1920x1080","","4342.399999999441","81.88","img/314/4.5/2/bw/001.png","","","interesting"
"","","","","","animation","217","1488093","0.0-217.0","1920x1080","","2439.100000000559","95","img/117/4/0.66667/bw/001.png","","","interesting"
"","","","","","animation","218","1491670","0.0-218.0","1920x1080","","3575.0999999996275","51","img/238/2.5/0.5/bw/001.png","","","interesting"
"","","","","","animation","219","1522837","0.0-219.0","1920x1080","","31165.200000000186","22.35","img/117/2.5/1.5/bw/001.png","","","interesting"
"","","","","","animation","220","1536126","0.0-220.0","1920x1080","","13288.200000000186","85","img/314/3.5/1/bw/001.png","","","interesting"
"","","","","","animation","221","1539358","0.0-221.0","1920x1080","","3230.2999999998137","91.01","img/117/3.5/0.66667/bw/001.png","","","interesting"
"","","","","","animation","222","1541894","0.0-222.0","1920x1080","","2534.7999999998137","92.33","img/314/4/1/bw/001.png","","","interesting"
"","","","","","animation","223","1544174","0.0-223.0","1920x1080","","2277.2999999998137","92.20","img/314/5.5/0.5/bw/001.png","","","interesting"
"","","","","","animation","224","1546958","0.0-224.0","1920x1080","","2782.7000000001863","95","img/238/4/0.5/bw/001.png","","","interesting"
"","","","","","animation","225","1550086","0.0-225.0","1920x1080","","3127.5","28.84","img/238/2.5/2/bw/001.png","","","interesting"
"","","","","","animation","226","1553254","0.0-226.0","1920x1080","","3166.2000000001863","59","img/238/5.5/2/bw/001.png","","","interesting"
"","","","","","animation","227","1557220","0.0-227.0","1920x1080","","3965.2000000001863","69.31","img/314/5.5/1.5/bw/001.png","","","interesting"
"","","","","","animation","228","1566770","0.0-228.0","1920x1080","","9548.599999999627","43.78","img/314/2.5/0.66667/bw/001.png","","","interesting"
"","","","","","animation","229","1571070","0.0-229.0","1920x1080","","4298.800000000745","44","img/117/2.5/0.5/bw/001.png","","","interesting"
"","","","","","animation","230","1574358","0.0-230.0","1920x1080","","3287.2999999998137","94.05","img/117/4/0.5/bw/001.png","","","interesting"
"","","","","","animation","231","1577326","0.0-231.0","1920x1080","","2966.699999999255","99","img/117/3.5/1/bw/001.png","","","interesting"
"","","","","","animation","232","1581606","0.0-232.0","1920x1080","","4279.199999999255","62.04","img/238/5.5/1.5/bw/001.png","","","interesting"
"","","","","","animation","233","1586710","0.0-233.0","1920x1080","","5100.399999999441","71.83","img/238/4/2/bw/001.png","","","interesting"
"","","","","","animation","234","1590336","0.0-234.0","1920x1080","","3625.5","85.45","img/238/4/0.66667/bw/001.png","","","interesting"
"","","","","","animation","235","1592953","0.0-235.0","1920x1080","","2615.4000000003725","94","img/238/3.5/1.5/bw/001.png","","","interesting"
"","","","","","html-button-response","236","1617391","0.0-236.0","1920x1080","","24436.10000000056","","<div class=""intro"">You are about to view a new series of animations.<br><br></div><div class=""intro"">You will evaluate them based on a different descriptor.<br><br></div><div class=""intro"">Move the slider to indicate how <strong style=""text-transform:capitalize"">APPEALING</strong> you find each animation.<br><br></div><div class=""intro"">0 = Least Appealing<br></div><div class=""intro"">1 = Most Appealing<br><br></div><div class=""intro"">Remember to use the <strong><em>entire range</em></strong> of the slider to make your ratings.<br></div><div class=""intro"">Please <strong><em>take your time</em></strong> and carefully consider each rating you make.<br><br></div>","0","",""
"","","","","","call-function","237","1617406","0.0-237.0","1920x1080","","","","","","",""
"","","","","","animation","238","1622486","0.0-238.0","1920x1080","","5080","54.63","img/117/3.5/0.5/bw/001.png","","","appealing"
"","","","","","animation","239","1624557","0.0-239.0","1920x1080","","2070","57.67","img/238/4/0.5/bw/001.png","","","appealing"
"","","","","","animation","240","1630069","0.0-240.0","1920x1080","","5510.699999999255","75.00","img/117/4/2/bw/001.png","","","appealing"
"","","","","","animation","241","1633835","0.0-241.0","1920x1080","","3763.7999999998137","20.11","img/238/2.5/0.66667/bw/001.png","","","appealing"
"","","","","","animation","242","1636189","0.0-242.0","1920x1080","","2351.899999999441","60","img/238/3.5/2/bw/001.png","","","appealing"
"","","","","","animation","243","1639052","0.0-243.0","1920x1080","","2862.5","87.04","img/238/5.5/2/bw/001.png","","","appealing"
"","","","","","animation","244","1641436","0.0-244.0","1920x1080","","2382","74.34","img/117/4.5/1/bw/001.png","","","appealing"
"","","","","","animation","245","1644169","0.0-245.0","1920x1080","","2732.2000000001863","87.96","img/117/4.5/0.5/bw/001.png","","","appealing"
"","","","","","animation","246","1647002","0.0-246.0","1920x1080","","2832","87","img/117/5.5/0.5/bw/001.png","","","appealing"
"","","","","","animation","247","1652221","0.0-247.0","1920x1080","","5217.100000000559","40.08","img/238/3.5/1.5/bw/001.png","","","appealing"
"","","","","","animation","248","1655135","0.0-248.0","1920x1080","","2913.7999999998137","41.14","img/117/2.5/2/bw/001.png","","","appealing"
"","","","","","animation","249","1658053","0.0-249.0","1920x1080","","2915.899999999441","94","img/314/5.5/0.5/bw/001.png","","","appealing"
"","","","","","animation","250","1661869","0.0-250.0","1920x1080","","3815","73.15","img/314/4/2/bw/001.png","","","appealing"
"","","","","","animation","251","1664619","0.0-251.0","1920x1080","","2748.9000000003725","74.34","img/238/4.5/1/bw/001.png","","","appealing"
"","","","","","animation","252","1668485","0.0-252.0","1920x1080","","3864.899999999441","97","img/238/5.5/0.5/bw/001.png","","","appealing"
"","","","","","animation","253","1672741","0.0-253.0","1920x1080","","4254.200000000186","75.53","img/314/3.5/0.66667/bw/001.png","","","appealing"
"","","","","","animation","254","1677101","0.0-254.0","1920x1080","","4359.200000000186","36.38","img/314/2.5/1/bw/001.png","","","appealing"
"","","","","","animation","255","1684893","0.0-255.0","1920x1080","","7789.200000000186","49.74","img/238/5.5/0.66667/bw/001.png","","","appealing"
"","","","","","animation","256","1701124","0.0-256.0","1920x1080","","16229.900000000373","62.83","img/314/3.5/2/bw/001.png","","","appealing"
"","","","","","animation","257","1705973","0.0-257.0","1920x1080","","4847.200000000186","43","img/314/3.5/1.5/bw/001.png","","","appealing"
"","","","","","animation","258","1708454","0.0-258.0","1920x1080","","2478.7000000001863","37.57","img/117/2.5/1.5/bw/001.png","","","appealing"
"","","","","","animation","259","1711452","0.0-259.0","1920x1080","","2996.7999999998137","50.53","img/117/2.5/1/bw/001.png","","","appealing"
"","","","","","animation","260","1713509","0.0-260.0","1920x1080","","2055.600000000559","74.21","img/238/4/1/bw/001.png","","","appealing"
"","","","","","animation","261","1717019","0.0-261.0","1920x1080","","3508.399999999441","82.14","img/314/5.5/1/bw/001.png","","","appealing"
"","","","","","animation","262","1720436","0.0-262.0","1920x1080","","3415.399999999441","37.04","img/238/3.5/0.66667/bw/001.png","","","appealing"
"","","","","","animation","263","1722390","0.0-263.0","1920x1080","","1953.1000000005588","50.66","img/238/4/0.66667/bw/001.png","","","appealing"
"","","","","","animation","264","1728853","0.0-264.0","1920x1080","","6461.300000000745","15","img/314/2.5/0.66667/bw/001.png","","","appealing"
"","","","","","animation","265","1731052","0.0-265.0","1920x1080","","2197.7999999998137","71.43","img/117/4.5/0.66667/bw/001.png","","","appealing"
"","","","","","animation","266","1733935","0.0-266.0","1920x1080","","2881.4000000003725","75","img/117/4/0.66667/bw/001.png","","","appealing"
"","","","","","animation","267","1737822","0.0-267.0","1920x1080","","3885.7999999998137","96","img/314/5.5/0.66667/bw/001.png","","","appealing"
"","","","","","animation","268","1740590","0.0-268.0","1920x1080","","2765.5","40","img/238/2.5/2/bw/001.png","","","appealing"
"","","","","","animation","269","1743336","0.0-269.0","1920x1080","","2744.5","48.15","img/117/3.5/2/bw/001.png","","","appealing"
"","","","","","animation","270","1745819","0.0-270.0","1920x1080","","2481.9000000003725","81.75","img/314/4/0.5/bw/001.png","","","appealing"
"","","","","","animation","271","1751221","0.0-271.0","1920x1080","","5400.4000000003725","0","img/117/2.5/0.66667/bw/001.png","","","appealing"
"","","","","","animation","272","1753903","0.0-272.0","1920x1080","","2680.399999999441","84.13","img/117/4.5/1.5/bw/001.png","","","appealing"
"","","","","","animation","273","1757005","0.0-273.0","1920x1080","","3100.9000000003725","20.77","img/238/3.5/1/bw/001.png","","","appealing"
"","","","","","animation","274","1760893","0.0-274.0","1920x1080","","3885.7999999998137","66.40","img/314/3.5/0.5/bw/001.png","","","appealing"
"","","","","","animation","275","1767502","0.0-275.0","1920x1080","","6608.0999999996275","82.67","img/314/4.5/0.5/bw/001.png","","","appealing"
"","","","","","animation","276","1771725","0.0-276.0","1920x1080","","4221.5","57","img/238/4/1.5/bw/001.png","","","appealing"
"","","","","","animation","277","1777509","0.0-277.0","1920x1080","","5782.4000000003725","76","img/314/4.5/1.5/bw/001.png","","","appealing"
"","","","","","animation","278","1784381","0.0-278.0","1920x1080","","6869.5","88","img/314/4.5/2/bw/001.png","","","appealing"
"","","","","","animation","279","1820941","0.0-279.0","1920x1080","","36558.09999999963","38","img/117/3.5/0.66667/bw/001.png","","","appealing"
"","","","","","animation","280","1823425","0.0-280.0","1920x1080","","2482.100000000559","70.37","img/238/4.5/2/bw/001.png","","","appealing"
"","","","","","animation","281","1825907","0.0-281.0","1920x1080","","2480","25.13","img/314/2.5/0.5/bw/001.png","","","appealing"
"","","","","","animation","282","1828036","0.0-282.0","1920x1080","","2128.5","47.49","img/314/4.5/0.66667/bw/001.png","","","appealing"
"","","","","","animation","283","1830589","0.0-283.0","1920x1080","","2551.5","73.81","img/117/5.5/1/bw/001.png","","","appealing"
"","","","","","animation","284","1833036","0.0-284.0","1920x1080","","2445.0999999996275","91.01","img/117/5.5/2/bw/001.png","","","appealing"
"","","","","","animation","285","1835541","0.0-285.0","1920x1080","","2503","75.40","img/117/4/1/bw/001.png","","","appealing"
"","","","","","animation","286","1837419","0.0-286.0","1920x1080","","1876.3999999994412","59.13","img/314/4/1.5/bw/001.png","","","appealing"
"","","","","","animation","287","1839820","0.0-287.0","1920x1080","","2400.5","93.25","img/117/5.5/1.5/bw/001.png","","","appealing"
"","","","","","animation","288","1844685","0.0-288.0","1920x1080","","4863.199999999255","94.05","img/314/5.5/1.5/bw/001.png","","","appealing"
"","","","","","animation","289","1847952","0.0-289.0","1920x1080","","3265.899999999441","55.42","img/117/3.5/1.5/bw/001.png","","","appealing"
"","","","","","animation","290","1850485","0.0-290.0","1920x1080","","2531","31.88","img/238/4.5/0.66667/bw/001.png","","","appealing"
"","","","","","animation","291","1852696","0.0-291.0","1920x1080","","2209.399999999441","77.91","img/238/4.5/0.5/bw/001.png","","","appealing"
"","","","","","animation","292","1854702","0.0-292.0","1920x1080","","2004.4000000003725","26","img/238/2.5/0.5/bw/001.png","","","appealing"
"","","","","","animation","293","1856599","0.0-293.0","1920x1080","","1895.7000000001863","73.28","img/238/5.5/1.5/bw/001.png","","","appealing"
"","","","","","animation","294","1859196","0.0-294.0","1920x1080","","2596","27","img/314/3.5/1/bw/001.png","","","appealing"
"","","","","","animation","295","1861805","0.0-295.0","1920x1080","","2607","38.23","img/314/4/1/bw/001.png","","","appealing"
"","","","","","animation","296","1865652","0.0-296.0","1920x1080","","3846.2999999998137","100","img/238/5.5/1/bw/001.png","","","appealing"
"","","","","","animation","297","1867724","0.0-297.0","1920x1080","","2069.899999999441","53.57","img/117/4/1.5/bw/001.png","","","appealing"
"","","","","","animation","298","1870992","0.0-298.0","1920x1080","","3266.7000000001863","27.12","img/314/2.5/1.5/bw/001.png","","","appealing"
"","","","","","animation","299","1873452","0.0-299.0","1920x1080","","2458.9000000003725","7.28","img/314/2.5/2/bw/001.png","","","appealing"
"","","","","","animation","300","1875757","0.0-300.0","1920x1080","","2303","80.69","img/314/5.5/2/bw/001.png","","","appealing"
"","","","","","animation","301","1877552","0.0-301.0","1920x1080","","1793.7999999998137","51.72","img/314/4/0.66667/bw/001.png","","","appealing"
"","","","","","animation","302","1881207","0.0-302.0","1920x1080","","3653.5","20.63","img/117/2.5/0.5/bw/001.png","","","appealing"
"","","","","","animation","303","1884758","0.0-303.0","1920x1080","","3546.9000000003725","42.46","img/238/3.5/0.5/bw/001.png","","","appealing"
"","","","","","animation","304","1887257","0.0-304.0","1920x1080","","2497.399999999441","74.60","img/314/4.5/1/bw/001.png","","","appealing"
"","","","","","animation","305","1889795","0.0-305.0","1920x1080","","2536.4000000003725","19.58","img/238/2.5/1.5/bw/001.png","","","appealing"
"","","","","","animation","306","1893840","0.0-306.0","1920x1080","","4043.5","26","img/238/4/2/bw/001.png","","","appealing"
"","","","","","animation","307","1896274","0.0-307.0","1920x1080","","2432.7000000001863","33.07","img/117/3.5/1/bw/001.png","","","appealing"
"","","","","","animation","308","1898925","0.0-308.0","1920x1080","","2649.4000000003725","92","img/117/5.5/0.66667/bw/001.png","","","appealing"
"","","","","","animation","309","1901788","0.0-309.0","1920x1080","","2861.300000000745","27.51","img/117/4.5/2/bw/001.png","","","appealing"
"","","","","","animation","310","1903868","0.0-310.0","1920x1080","","2078.600000000559","19.31","img/238/2.5/1/bw/001.png","","","appealing"
"","","","","","animation","311","1906362","0.0-311.0","1920x1080","","2492.699999999255","25.40","img/238/4.5/1.5/bw/001.png","","","appealing"
"","","","","","animation","312","1909408","0.0-312.0","1920x1080","","3044.2000000001863","23.68","img/117/4/0.5/bw/001.png","","","appealing"
"","","","","","html-button-response","313","1928419","0.0-313.0","1920x1080","","19009","","<div class=""intro"">You are about to view a new series of animations.<br><br></div><div class=""intro"">You will evaluate them based on a different descriptor.<br><br></div><div class=""intro"">Move the slider to indicate how <strong style=""text-transform:capitalize"">NATURAL</strong> you find each animation.<br><br></div><div class=""intro"">0 = Least Natural<br></div><div class=""intro"">1 = Most Natural<br><br></div><div class=""intro"">Remember to use the <strong><em>entire range</em></strong> of the slider to make your ratings.<br></div><div class=""intro"">Please <strong><em>take your time</em></strong> and carefully consider each rating you make.<br><br></div>","0","",""
"","","","","","call-function","314","1928420","0.0-314.0","1920x1080","","","","","","",""
"","","","","","animation","315","1932303","0.0-315.0","1920x1080","","3882.7999999998137","11.24","img/314/3.5/0.5/bw/001.png","","","natural"
"","","","","","animation","316","1935253","0.0-316.0","1920x1080","","2948.899999999441","89.68","img/238/5.5/1.5/bw/001.png","","","natural"
"","","","","","animation","317","1942689","0.0-317.0","1920x1080","","7434.5999999996275","88.89","img/314/2.5/1.5/bw/001.png","","","natural"
"","","","","","animation","318","1946828","0.0-318.0","1920x1080","","4137.0999999996275","68.39","img/314/3.5/1/bw/001.png","","","natural"
"","","","","","animation","319","1950730","0.0-319.0","1920x1080","","3901.2999999998137","97","img/314/4.5/1/bw/001.png","","","natural"
"","","","","","animation","320","1956302","0.0-320.0","1920x1080","","5570.200000000186","29.50","img/117/2.5/0.5/bw/001.png","","","natural"
"","","","","","animation","321","1961311","0.0-321.0","1920x1080","","5007.5","66.01","img/238/2.5/2/bw/001.png","","","natural"
"","","","","","animation","322","1968361","0.0-322.0","1920x1080","","7048.9000000003725","0.79","img/238/4/0.66667/bw/001.png","","","natural"
"","","","","","animation","323","1977184","0.0-323.0","1920x1080","","8820.800000000745","99","img/238/4/2/bw/001.png","","","natural"
"","","","","","animation","324","1980392","0.0-324.0","1920x1080","","3205.7999999998137","99","img/117/4.5/2/bw/001.png","","","natural"
"","","","","","animation","325","1983903","0.0-325.0","1920x1080","","3510","63.23","img/117/3.5/0.66667/bw/001.png","","","natural"
"","","","","","animation","326","1987335","0.0-326.0","1920x1080","","3430.7999999998137","74.34","img/314/3.5/0.66667/bw/001.png","","","natural"
"","","","","","animation","327","1991779","0.0-327.0","1920x1080","","4442.4000000003725","41.53","img/117/2.5/1.5/bw/001.png","","","natural"
"","","","","","animation","328","1998565","0.0-328.0","1920x1080","","6784.4000000003725","91.14","img/314/4.5/1.5/bw/001.png","","","natural"
"","","","","","animation","329","2005661","0.0-329.0","1920x1080","","7093.899999999441","85.58","img/314/4/2/bw/001.png","","","natural"
"","","","","","animation","330","2017227","0.0-330.0","1920x1080","","11562.199999999255","34","img/117/4.5/0.5/bw/001.png","","","natural"
"","","","","","animation","331","2021179","0.0-331.0","1920x1080","","3951","40.08","img/314/4.5/0.66667/bw/001.png","","","natural"
"","","","","","animation","332","2028973","0.0-332.0","1920x1080","","7791.5","98","img/238/5.5/0.66667/bw/001.png","","","natural"
"","","","","","animation","333","2032573","0.0-333.0","1920x1080","","3597.9000000003725","30.95","img/117/3.5/2/bw/001.png","","","natural"
"","","","","","animation","334","2106712","0.0-334.0","1920x1080","","74137.09999999963","62.43","img/314/4.5/0.5/bw/001.png","","","natural"
"","","","","","animation","335","2110243","0.0-335.0","1920x1080","","3529.600000000559","92","img/117/5.5/1.5/bw/001.png","","","natural"
"","","","","","animation","336","2112506","0.0-336.0","1920x1080","","2261.5","29.76","img/238/3.5/0.66667/bw/001.png","","","natural"
"","","","","","animation","337","2114819","0.0-337.0","1920x1080","","2311.5999999996275","40.87","img/117/2.5/2/bw/001.png","","","natural"
"","","","","","animation","338","2117225","0.0-338.0","1920x1080","","2405.0999999996275","96","img/238/5.5/0.5/bw/001.png","","","natural"
"","","","","","animation","339","2120102","0.0-339.0","1920x1080","","2874.600000000559","9.79","img/314/2.5/0.66667/bw/001.png","","","natural"
"","","","","","animation","340","2122770","0.0-340.0","1920x1080","","2666.7000000001863","19.44","img/314/2.5/1/bw/001.png","","","natural"
"","","","","","animation","341","2125053","0.0-341.0","1920x1080","","2281.9000000003725","95","img/314/4.5/2/bw/001.png","","","natural"
"","","","","","animation","342","2128072","0.0-342.0","1920x1080","","3018","99","img/314/5.5/2/bw/001.png","","","natural"
"","","","","","animation","343","2131753","0.0-343.0","1920x1080","","3679.399999999441","99","img/238/5.5/2/bw/001.png","","","natural"
"","","","","","animation","344","2139040","0.0-344.0","1920x1080","","7284.700000000186","20.24","img/314/3.5/1.5/bw/001.png","","","natural"
"","","","","","animation","345","2143158","0.0-345.0","1920x1080","","4116.600000000559","20.11","img/238/3.5/1.5/bw/001.png","","","natural"
"","","","","","animation","346","2146621","0.0-346.0","1920x1080","","3461.7000000001863","2.91","img/238/2.5/0.66667/bw/001.png","","","natural"
"","","","","","animation","347","2149822","0.0-347.0","1920x1080","","3198.7000000001863","82.80","img/238/4.5/2/bw/001.png","","","natural"
"","","","","","animation","348","2155808","0.0-348.0","1920x1080","","5985.5999999996275","88.36","img/238/4.5/1/bw/001.png","","","natural"
"","","","","","animation","349","2163711","0.0-349.0","1920x1080","","7900.5","74.87","img/117/4.5/1/bw/001.png","","","natural"
"","","","","","animation","350","2168169","0.0-350.0","1920x1080","","4457.0999999996275","79.10","img/117/4/2/bw/001.png","","","natural"
"","","","","","animation","351","2177168","0.0-351.0","1920x1080","","8997.400000000373","92.20","img/314/4/1.5/bw/001.png","","","natural"
"","","","","","animation","352","2180789","0.0-352.0","1920x1080","","3619.0999999996275","55.56","img/238/4.5/0.5/bw/001.png","","","natural"
"","","","","","animation","353","2183040","0.0-353.0","1920x1080","","2249.5","42.33","img/238/3.5/1/bw/001.png","","","natural"
"","","","","","animation","354","2186035","0.0-354.0","1920x1080","","2993.2999999998137","81","img/117/5.5/2/bw/001.png","","","natural"
"","","","","","animation","355","2188406","0.0-355.0","1920x1080","","2369.300000000745","31","img/314/4/0.5/bw/001.png","","","natural"
"","","","","","animation","356","2191453","0.0-356.0","1920x1080","","3045.2000000001863","84.66","img/238/4/1/bw/001.png","","","natural"
"","","","","","animation","357","2193724","0.0-357.0","1920x1080","","2270","71","img/117/4/0.5/bw/001.png","","","natural"
"","","","","","animation","358","2197527","0.0-358.0","1920x1080","","3801.800000000745","24.87","img/117/3.5/0.5/bw/001.png","","","natural"
"","","","","","animation","359","2201928","0.0-359.0","1920x1080","","4398.399999999441","85.98","img/314/5.5/1/bw/001.png","","","natural"
"","","","","","animation","360","2206951","0.0-360.0","1920x1080","","5021.799999999814","81.61","img/238/3.5/2/bw/001.png","","","natural"
"","","","","","animation","361","2211620","0.0-361.0","1920x1080","","4666.600000000559","21.96","img/314/2.5/2/bw/001.png","","","natural"
"","","","","","animation","362","2214069","0.0-362.0","1920x1080","","2447.7000000001863","73.28","img/117/3.5/1.5/bw/001.png","","","natural"
"","","","","","animation","363","2217118","0.0-363.0","1920x1080","","3047.9000000003725","84.26","img/117/5.5/1/bw/001.png","","","natural"
"","","","","","animation","364","2223441","0.0-364.0","1920x1080","","6322.700000000186","88.23","img/238/4.5/1.5/bw/001.png","","","natural"
"","","","","","animation","365","2226333","0.0-365.0","1920x1080","","2889.2000000001863","86.77","img/314/3.5/2/bw/001.png","","","natural"
"","","","","","animation","366","2230287","0.0-366.0","1920x1080","","3953.2999999998137","87.83","img/117/3.5/1/bw/001.png","","","natural"
"","","","","","animation","367","2234451","0.0-367.0","1920x1080","","4161.4000000003725","99","img/314/5.5/1.5/bw/001.png","","","natural"
"","","","","","animation","368","2237235","0.0-368.0","1920x1080","","2782.5999999996275","99","img/314/5.5/0.5/bw/001.png","","","natural"
"","","","","","animation","369","2241000","0.0-369.0","1920x1080","","3762.5999999996275","1.72","img/117/2.5/1/bw/001.png","","","natural"
"","","","","","animation","370","2243307","0.0-370.0","1920x1080","","2304.9000000003725","75","img/238/4/0.5/bw/001.png","","","natural"
"","","","","","animation","371","2246093","0.0-371.0","1920x1080","","2784.399999999441","94.18","img/117/5.5/0.5/bw/001.png","","","natural"
"","","","","","animation","372","2248933","0.0-372.0","1920x1080","","2838.7000000001863","76","img/117/4/1.5/bw/001.png","","","natural"
"","","","","","animation","373","2253100","0.0-373.0","1920x1080","","4165.200000000186","0.40","img/314/2.5/0.5/bw/001.png","","","natural"
"","","","","","animation","374","2297909","0.0-374.0","1920x1080","","44808.700000000186","85.45","img/117/4.5/0.66667/bw/001.png","","","natural"
"","","","","","animation","375","2305634","0.0-375.0","1920x1080","","7723.100000000559","74.74","img/314/4/0.66667/bw/001.png","","","natural"
"","","","","","animation","376","2309148","0.0-376.0","1920x1080","","3512.9000000003725","86.90","img/314/5.5/0.66667/bw/001.png","","","natural"
"","","","","","animation","377","2311766","0.0-377.0","1920x1080","","2616.2999999998137","12.57","img/238/4/1.5/bw/001.png","","","natural"
"","","","","","animation","378","2314898","0.0-378.0","1920x1080","","3130.5","90.48","img/314/4/1/bw/001.png","","","natural"
"","","","","","animation","379","2318417","0.0-379.0","1920x1080","","3516.5999999996275","87","img/117/4/1/bw/001.png","","","natural"
"","","","","","animation","380","2321586","0.0-380.0","1920x1080","","3168","1.19","img/238/2.5/1.5/bw/001.png","","","natural"
"","","","","","animation","381","2326066","0.0-381.0","1920x1080","","4477.699999999255","0.93","img/238/2.5/0.5/bw/001.png","","","natural"
"","","","","","animation","382","2329345","0.0-382.0","1920x1080","","3276.7000000001863","3","img/238/2.5/1/bw/001.png","","","natural"
"","","","","","animation","383","2332050","0.0-383.0","1920x1080","","2703.399999999441","48","img/238/3.5/0.5/bw/001.png","","","natural"
"","","","","","animation","384","2335779","0.0-384.0","1920x1080","","3720","99","img/117/5.5/0.66667/bw/001.png","","","natural"
"","","","","","animation","385","2339366","0.0-385.0","1920x1080","","3586","89.29","img/238/5.5/1/bw/001.png","","","natural"
"","","","","","animation","386","2342628","0.0-386.0","1920x1080","","3259.699999999255","99","img/117/4.5/1.5/bw/001.png","","","natural"
"","","","","","animation","387","2354514","0.0-387.0","1920x1080","","11885.600000000559","2.12","img/117/2.5/0.66667/bw/001.png","","","natural"
"","","","","","animation","388","2360749","0.0-388.0","1920x1080","","6229.899999999441","90.34","img/238/4.5/0.66667/bw/001.png","","","natural"
"","","","","","animation","389","2366200","0.0-389.0","1920x1080","","5448.5","95","img/117/4/0.66667/bw/001.png","","","natural"
"","","","","","html-button-response","390","2394033","0.0-390.0","1920x1080","","27829.700000000186","","<strong>Study Debriefing</strong><br><p class=""debrief""><strong>Background:</strong> The patterns you rated are called <em>fractals</em>. The term fractal describes a class of irregular curves or shapes for which any suitably chosen part is similar in shape to a given larger or smaller part when magnified or reduced to the same size. Fractal properties are found throughout the natural and manmade world. The series of animations you saw today displayed animated fractal patterns of a varying complexity.</p><p class=""debrief""><strong>Purpose of this study:</strong> We hope to better understand how the perception of static fractals differs from the perception of animated fractals, and how the speed of the animated patterns influences people&apos;s perception of them. Fractals allow us to study the perception of aesthetic properties (e.g. the perceived level of beauty in an image) without using recognizable content, which makes them an excellent tool for studying abstract aesthetic judgement.</p><p class=""debrief""><strong>Your part:</strong> Your participation has helped us to further understand how humans perceive these patterns across different levels of speed and complexity. This research with allow us to better understand how the visual system and brain process our ever-changing visual environments.<p class=""debrief""><strong>Feedback and Further information:</strong> If you have additional questions about this study, please feel free to ask the researcher, Nathan Gonzales-Hess at nhess @ uoregon.edu. If you have any questions concerning your rights as a research participant, please contact Research Compliance Services, 5237 University of Oregon, Eugene, OR 97403, 541-346-2510, or email researchCompliance @ uoregon.edu. You can also email the Human Subjects Coordinator for psychology and linguistics research at hscoord @ uoregon.edu. ","0","",""
"","","","","","html-button-response","391","2397897","0.0-391.0","1920x1080","","3859.4000000003725","","Thank you for participating in this study. <br>Please click below to finish the experiment and submit your responses.<br><br>","0","",""
"true","","","","","fullscreen","392","2398909","0.0-392.0","1920x1080","14:42 20/5/2022","","","","","",""
