"success","timeout","failed_images","failed_audio","failed_video","trial_type","trial_index","time_elapsed","internal_node_id","resolution","timeStamp","rt","response","stimulus","button_pressed","value","descriptor"
"true","false","[]","[]","[]","preload","0","21284","0.0-0.0","1920x1080","","","","","","",""
"true","false","[]","[]","[]","preload","1","41037","0.0-1.0","1920x1080","","","","","","",""
"true","false","[]","[]","[]","preload","2","61673","0.0-2.0","1920x1080","","","","","","",""
"true","","","","","fullscreen","3","209996","0.0-3.0","1920x1080","10:1 20/5/2022","","","","","",""
"","","","","","survey-html-form","4","217000","0.0-4.0","1920x1080","","7001.800000011921","{""age"":""19"",""gender"":""Female""}","","","",""
"","","","","","html-button-response","5","254753","0.0-5.0","1920x1080","","37752","","<div class=""complex"">You are going to see a series of animations.<br><br></div><div class=""complex"">Move the slider to indicate how <strong style=""text-transform:capitalize"">COMPLEX</strong> you find each animation.<br><br></div><div class=""complex"">0 = Least Complex<br></div><div class=""complex"">1 = Most Complex<br><br></div><div class=""complex"">Remember to use the <strong><em>entire range</em></strong> of the slider to make your ratings.<br></div><div class=""complex"">Please <strong><em>take your time</em></strong> and carefully consider each rating you make.<br><br></div><div class=""complex"">The study has five sections and will take about 45 minutes to complete.<br><br></div>","0","",""
"","","","","","call-function","6","254754","0.0-6.0","1920x1080","","","","","","",""
"","","","","","animation","7","272537","0.0-7.0","1920x1080","","17780.5","67.59","img/314/4/2/bw/001.png","","","complex"
"","","","","","animation","8","285368","0.0-8.0","1920x1080","","12830","99","img/314/3.5/2/bw/001.png","","","complex"
"","","","","","animation","9","293432","0.0-9.0","1920x1080","","8062.699999988079","37.43","img/314/4.5/2/bw/001.png","","","complex"
"","","","","","animation","10","300224","0.0-10.0","1920x1080","","6791.299999982119","100","img/117/2.5/0.66667/bw/001.png","","","complex"
"","","","","","animation","11","307417","0.0-11.0","1920x1080","","7191.799999982119","2.78","img/117/5.5/1.5/bw/001.png","","","complex"
"","","","","","animation","12","313689","0.0-12.0","1920x1080","","6271.100000023842","15.74","img/238/4.5/1.5/bw/001.png","","","complex"
"","","","","","animation","13","318496","0.0-13.0","1920x1080","","4806.5999999940395","1.19","img/314/5.5/2/bw/001.png","","","complex"
"","","","","","animation","14","322392","0.0-14.0","1920x1080","","3895.0999999940395","100","img/314/2.5/0.66667/bw/001.png","","","complex"
"","","","","","animation","15","328808","0.0-15.0","1920x1080","","6415.399999976158","46.83","img/314/4.5/0.66667/bw/001.png","","","complex"
"","","","","","animation","16","332272","0.0-16.0","1920x1080","","3462.699999988079","100","img/238/2.5/0.5/bw/001.png","","","complex"
"","","","","","animation","17","337776","0.0-17.0","1920x1080","","5503.299999982119","75.26","img/314/2.5/2/bw/001.png","","","complex"
"","","","","","animation","18","342696","0.0-18.0","1920x1080","","4919.899999976158","0.79","img/238/5.5/0.66667/bw/001.png","","","complex"
"","","","","","animation","19","347312","0.0-19.0","1920x1080","","4614.699999988079","38.89","img/117/3.5/1.5/bw/001.png","","","complex"
"","","","","","animation","20","351552","0.0-20.0","1920x1080","","4239.0999999940395","82.80","img/314/2.5/1.5/bw/001.png","","","complex"
"","","","","","animation","21","357496","0.0-21.0","1920x1080","","5943.699999988079","58.99","img/238/4/0.66667/bw/001.png","","","complex"
"","","","","","animation","22","363440","0.0-22.0","1920x1080","","5943.200000017881","2","img/117/5.5/2/bw/001.png","","","complex"
"","","","","","animation","23","369384","0.0-23.0","1920x1080","","5942.799999982119","27","img/117/4.5/0.66667/bw/001.png","","","complex"
"","","","","","animation","24","374768","0.0-24.0","1920x1080","","5383.799999982119","0.93","img/314/5.5/0.5/bw/001.png","","","complex"
"","","","","","animation","25","379736","0.0-25.0","1920x1080","","4967.600000023842","56.88","img/117/3.5/1/bw/001.png","","","complex"
"","","","","","animation","26","392232","0.0-26.0","1920x1080","","12495","67.20","img/314/4/0.66667/bw/001.png","","","complex"
"","","","","","animation","27","405232","0.0-27.0","1920x1080","","12998.90000000596","26.72","img/117/4.5/2/bw/001.png","","","complex"
"","","","","","animation","28","408848","0.0-28.0","1920x1080","","3615","0.40","img/238/5.5/2/bw/001.png","","","complex"
"","","","","","animation","29","414376","0.0-29.0","1920x1080","","5527.5","99","img/117/2.5/0.5/bw/001.png","","","complex"
"","","","","","animation","30","424584","0.0-30.0","1920x1080","","10207.09999999404","57.80","img/238/3.5/2/bw/001.png","","","complex"
"","","","","","animation","31","434760","0.0-31.0","1920x1080","","10174.59999999404","44.71","img/238/4.5/1/bw/001.png","","","complex"
"","","","","","animation","32","444321","0.0-32.0","1920x1080","","9560.90000000596","47.88","img/314/3.5/1.5/bw/001.png","","","complex"
"","","","","","animation","33","449800","0.0-33.0","1920x1080","","5477.5","49.60","img/117/3.5/2/bw/001.png","","","complex"
"","","","","","animation","34","456744","0.0-34.0","1920x1080","","6943.100000023842","11.38","img/238/5.5/0.5/bw/001.png","","","complex"
"","","","","","animation","35","463791","0.0-35.0","1920x1080","","7047","29.63","img/238/4/1.5/bw/001.png","","","complex"
"","","","","","animation","36","469944","0.0-36.0","1920x1080","","6151.199999988079","16.93","img/117/4.5/1.5/bw/001.png","","","complex"
"","","","","","animation","37","475983","0.0-37.0","1920x1080","","6038.799999982119","53.57","img/314/4.5/0.5/bw/001.png","","","complex"
"","","","","","animation","38","479567","0.0-38.0","1920x1080","","3583.2999999821186","77.25","img/117/3.5/0.66667/bw/001.png","","","complex"
"","","","","","animation","39","484360","0.0-39.0","1920x1080","","4791.799999982119","1.32","img/117/5.5/0.66667/bw/001.png","","","complex"
"","","","","","animation","40","488504","0.0-40.0","1920x1080","","4143","100","img/238/2.5/1/bw/001.png","","","complex"
"","","","","","animation","41","495175","0.0-41.0","1920x1080","","6670.399999976158","5.16","img/314/5.5/0.66667/bw/001.png","","","complex"
"","","","","","animation","42","508016","0.0-42.0","1920x1080","","12839.299999982119","46.03","img/117/4/0.66667/bw/001.png","","","complex"
"","","","","","animation","43","515896","0.0-43.0","1920x1080","","7879.699999988079","89.55","img/238/3.5/1.5/bw/001.png","","","complex"
"","","","","","animation","44","524368","0.0-44.0","1920x1080","","8470.90000000596","90","img/314/3.5/1/bw/001.png","","","complex"
"","","","","","animation","45","534089","0.0-45.0","1920x1080","","9719.699999988079","104.50","img/117/2.5/1/bw/001.png","","","complex"
"","","","","","animation","46","545960","0.0-46.0","1920x1080","","11870.200000017881","48","img/238/4.5/0.5/bw/001.png","","","complex"
"","","","","","animation","47","551128","0.0-47.0","1920x1080","","5167.100000023842","41.14","img/238/4/1/bw/001.png","","","complex"
"","","","","","animation","48","554928","0.0-48.0","1920x1080","","3799.2000000178814","54.50","img/238/3.5/0.5/bw/001.png","","","complex"
"","","","","","animation","49","559801","0.0-49.0","1920x1080","","4871.5","98","img/238/2.5/0.66667/bw/001.png","","","complex"
"","","","","","animation","50","563992","0.0-50.0","1920x1080","","4190.5999999940395","88.36","img/117/2.5/1.5/bw/001.png","","","complex"
"","","","","","animation","51","568280","0.0-51.0","1920x1080","","4287.5","0.40","img/238/5.5/1/bw/001.png","","","complex"
"","","","","","animation","52","575056","0.0-52.0","1920x1080","","6774.5999999940395","6","img/314/4.5/1.5/bw/001.png","","","complex"
"","","","","","animation","53","585096","0.0-53.0","1920x1080","","10039.200000017881","49.21","img/314/3.5/0.66667/bw/001.png","","","complex"
"","","","","","animation","54","595984","0.0-54.0","1920x1080","","10887.299999982119","74","img/238/2.5/1.5/bw/001.png","","","complex"
"","","","","","animation","55","605754","0.0-55.0","1920x1080","","9768.800000011921","2","img/117/5.5/0.5/bw/001.png","","","complex"
"","","","","","animation","56","612512","0.0-56.0","1920x1080","","6757.299999982119","64.02","img/238/3.5/0.66667/bw/001.png","","","complex"
"","","","","","animation","57","621371","0.0-57.0","1920x1080","","8857.09999999404","49.87","img/117/4/2/bw/001.png","","","complex"
"","","","","","animation","58","628808","0.0-58.0","1920x1080","","7435.800000011921","7.94","img/314/5.5/1.5/bw/001.png","","","complex"
"","","","","","animation","59","646024","0.0-59.0","1920x1080","","17214.59999999404","60.58","img/238/4/2/bw/001.png","","","complex"
"","","","","","animation","60","653328","0.0-60.0","1920x1080","","7303.199999988079","70.24","img/117/4/1/bw/001.png","","","complex"
"","","","","","animation","61","662672","0.0-61.0","1920x1080","","9342.699999988079","47.88","img/117/4/1.5/bw/001.png","","","complex"
"","","","","","animation","62","669200","0.0-62.0","1920x1080","","6527","0.00","img/238/5.5/1.5/bw/001.png","","","complex"
"","","","","","animation","63","678321","0.0-63.0","1920x1080","","9119.800000011921","14","img/117/5.5/1/bw/001.png","","","complex"
"","","","","","animation","64","685528","0.0-64.0","1920x1080","","7206","14.15","img/314/5.5/1/bw/001.png","","","complex"
"","","","","","animation","65","695080","0.0-65.0","1920x1080","","9551.09999999404","50.40","img/314/4/1/bw/001.png","","","complex"
"","","","","","animation","66","705248","0.0-66.0","1920x1080","","10167.199999988079","56.61","img/314/4.5/1/bw/001.png","","","complex"
"","","","","","animation","67","711848","0.0-67.0","1920x1080","","6598.9000000059605","68.12","img/238/3.5/1/bw/001.png","","","complex"
"","","","","","animation","68","718096","0.0-68.0","1920x1080","","6247","64.55","img/314/4/1.5/bw/001.png","","","complex"
"","","","","","animation","69","728823","0.0-69.0","1920x1080","","10725.799999982119","100","img/314/2.5/1/bw/001.png","","","complex"
"","","","","","animation","70","738232","0.0-70.0","1920x1080","","9407","100","img/314/2.5/0.5/bw/001.png","","","complex"
"","","","","","animation","71","744576","0.0-71.0","1920x1080","","6342.5","82.54","img/117/4/0.5/bw/001.png","","","complex"
"","","","","","animation","72","749187","0.0-72.0","1920x1080","","4609.700000017881","71","img/238/4.5/0.66667/bw/001.png","","","complex"
"","","","","","animation","73","753521","0.0-73.0","1920x1080","","4333.300000011921","92.99","img/314/3.5/0.5/bw/001.png","","","complex"
"","","","","","animation","74","757256","0.0-74.0","1920x1080","","3733.5","96","img/238/2.5/2/bw/001.png","","","complex"
"","","","","","animation","75","762824","0.0-75.0","1920x1080","","5567.0999999940395","62.04","img/117/4.5/1/bw/001.png","","","complex"
"","","","","","animation","76","767192","0.0-76.0","1920x1080","","4366.799999982119","73.15","img/314/4/0.5/bw/001.png","","","complex"
"","","","","","animation","77","770832","0.0-77.0","1920x1080","","3639.4000000059605","78.04","img/238/4/0.5/bw/001.png","","","complex"
"","","","","","animation","78","776976","0.0-78.0","1920x1080","","6142.800000011921","87","img/117/2.5/2/bw/001.png","","","complex"
"","","","","","animation","79","780896","0.0-79.0","1920x1080","","3919.2999999821186","87.96","img/117/3.5/0.5/bw/001.png","","","complex"
"","","","","","animation","80","787665","0.0-80.0","1920x1080","","6767","45.50","img/238/4.5/2/bw/001.png","","","complex"
"","","","","","animation","81","792217","0.0-81.0","1920x1080","","4550.9000000059605","61.77","img/117/4.5/0.5/bw/001.png","","","complex"
"","","","","","html-button-response","82","812307","0.0-82.0","1920x1080","","20088.70000001788","","<div class=""intro"">You are about to view a new series of animations.<br><br></div><div class=""intro"">You will evaluate them based on a different descriptor.<br><br></div><div class=""intro"">Move the slider to indicate how <strong style=""text-transform:capitalize"">INTERESTING</strong> you find each animation.<br><br></div><div class=""intro"">0 = Least Interesting<br></div><div class=""intro"">1 = Most Interesting<br><br></div><div class=""intro"">Remember to use the <strong><em>entire range</em></strong> of the slider to make your ratings.<br></div><div class=""intro"">Please <strong><em>take your time</em></strong> and carefully consider each rating you make.<br><br></div>","0","",""
"","","","","","call-function","83","812308","0.0-83.0","1920x1080","","","","","","",""
"","","","","","animation","84","824049","0.0-84.0","1920x1080","","11740.09999999404","38.36","img/238/4.5/0.66667/bw/001.png","","","interesting"
"","","","","","animation","85","831513","0.0-85.0","1920x1080","","7460.0999999940395","18.12","img/117/3.5/2/bw/001.png","","","interesting"
"","","","","","animation","86","835337","0.0-86.0","1920x1080","","3823.5","0.79","img/117/2.5/0.66667/bw/001.png","","","interesting"
"","","","","","animation","87","844387","0.0-87.0","1920x1080","","9049.100000023842","16.14","img/117/4.5/0.66667/bw/001.png","","","interesting"
"","","","","","animation","88","856988","0.0-88.0","1920x1080","","12599.59999999404","0","img/238/2.5/1.5/bw/001.png","","","interesting"
"","","","","","animation","89","863681","0.0-89.0","1920x1080","","6690.300000011921","100","img/117/5.5/1/bw/001.png","","","interesting"
"","","","","","animation","90","873287","0.0-90.0","1920x1080","","9605.800000011921","23.94","img/314/4/0.5/bw/001.png","","","interesting"
"","","","","","animation","91","879024","0.0-91.0","1920x1080","","5735.4000000059605","39.68","img/238/4/0.66667/bw/001.png","","","interesting"
"","","","","","animation","92","884003","0.0-92.0","1920x1080","","4978.5","9.39","img/314/3.5/0.66667/bw/001.png","","","interesting"
"","","","","","animation","93","889287","0.0-93.0","1920x1080","","5282.299999982119","6.35","img/314/3.5/2/bw/001.png","","","interesting"
"","","","","","animation","94","894008","0.0-94.0","1920x1080","","4719.4000000059605","99","img/314/5.5/0.5/bw/001.png","","","interesting"
"","","","","","animation","95","899303","0.0-95.0","1920x1080","","5294.5999999940395","0.40","img/117/2.5/1.5/bw/001.png","","","interesting"
"","","","","","animation","96","903369","0.0-96.0","1920x1080","","4064.9000000059605","11","img/314/3.5/1.5/bw/001.png","","","interesting"
"","","","","","animation","97","910103","0.0-97.0","1920x1080","","6732.9000000059605","45.24","img/117/4.5/0.5/bw/001.png","","","interesting"
"","","","","","animation","98","913560","0.0-98.0","1920x1080","","3455.5","31.08","img/117/4/1.5/bw/001.png","","","interesting"
"","","","","","animation","99","921271","0.0-99.0","1920x1080","","7710.299999982119","66.53","img/117/4.5/1.5/bw/001.png","","","interesting"
"","","","","","animation","100","926544","0.0-100.0","1920x1080","","5271.0999999940395","19.44","img/238/3.5/1/bw/001.png","","","interesting"
"","","","","","animation","101","931872","0.0-101.0","1920x1080","","5326.5","73.54","img/314/4.5/0.66667/bw/001.png","","","interesting"
"","","","","","animation","102","940992","0.0-102.0","1920x1080","","9118.59999999404","100","img/117/5.5/1.5/bw/001.png","","","interesting"
"","","","","","animation","103","947209","0.0-103.0","1920x1080","","6213.699999988079","100","img/314/5.5/1.5/bw/001.png","","","interesting"
"","","","","","animation","104","959737","0.0-104.0","1920x1080","","12527.700000017881","88","img/238/5.5/0.5/bw/001.png","","","interesting"
"","","","","","animation","105","966545","0.0-105.0","1920x1080","","6804.699999988079","33.86","img/238/4/1.5/bw/001.png","","","interesting"
"","","","","","animation","106","970960","0.0-106.0","1920x1080","","4414.4000000059605","19.31","img/117/3.5/0.5/bw/001.png","","","interesting"
"","","","","","animation","107","974836","0.0-107.0","1920x1080","","3874.7999999821186","13.36","img/314/3.5/1/bw/001.png","","","interesting"
"","","","","","animation","108","979281","0.0-108.0","1920x1080","","4443.4000000059605","49.74","img/117/4.5/2/bw/001.png","","","interesting"
"","","","","","animation","109","985425","0.0-109.0","1920x1080","","6142.199999988079","32.80","img/314/4/1/bw/001.png","","","interesting"
"","","","","","animation","110","991987","0.0-110.0","1920x1080","","6561.0999999940395","15.08","img/117/4/0.66667/bw/001.png","","","interesting"
"","","","","","animation","111","997003","0.0-111.0","1920x1080","","5013.399999976158","1.32","img/238/3.5/0.66667/bw/001.png","","","interesting"
"","","","","","animation","112","1002344","0.0-112.0","1920x1080","","5340.5","2.25","img/117/3.5/1/bw/001.png","","","interesting"
"","","","","","animation","113","1022560","0.0-113.0","1920x1080","","20214.19999998808","48.81","img/238/4/1/bw/001.png","","","interesting"
"","","","","","animation","114","1033440","0.0-114.0","1920x1080","","10874.800000011921","100","img/238/5.5/1.5/bw/001.png","","","interesting"
"","","","","","animation","115","1038808","0.0-115.0","1920x1080","","5366.5999999940395","10.58","img/117/3.5/0.66667/bw/001.png","","","interesting"
"","","","","","animation","116","1047056","0.0-116.0","1920x1080","","8246.300000011921","9.92","img/314/4/0.66667/bw/001.png","","","interesting"
"","","","","","animation","117","1050609","0.0-117.0","1920x1080","","3549.5","0","img/238/3.5/0.5/bw/001.png","","","interesting"
"","","","","","animation","118","1059320","0.0-118.0","1920x1080","","8710.300000011921","100","img/117/5.5/2/bw/001.png","","","interesting"
"","","","","","animation","119","1068409","0.0-119.0","1920x1080","","9086.5","100","img/314/5.5/0.66667/bw/001.png","","","interesting"
"","","","","","animation","120","1073481","0.0-120.0","1920x1080","","5070.0999999940395","63.36","img/238/4/2/bw/001.png","","","interesting"
"","","","","","animation","121","1078003","0.0-121.0","1920x1080","","4520.9000000059605","0","img/314/2.5/1.5/bw/001.png","","","interesting"
"","","","","","animation","122","1085403","0.0-122.0","1920x1080","","7398.800000011921","15.08","img/238/3.5/2/bw/001.png","","","interesting"
"","","","","","animation","123","1088504","0.0-123.0","1920x1080","","3100","0.00","img/117/2.5/0.5/bw/001.png","","","interesting"
"","","","","","animation","124","1092037","0.0-124.0","1920x1080","","3531.5","0","img/314/2.5/0.66667/bw/001.png","","","interesting"
"","","","","","animation","125","1100345","0.0-125.0","1920x1080","","8306.699999988079","12.30","img/238/3.5/1.5/bw/001.png","","","interesting"
"","","","","","animation","126","1103497","0.0-126.0","1920x1080","","3150.800000011921","0","img/238/2.5/0.5/bw/001.png","","","interesting"
"","","","","","animation","127","1109521","0.0-127.0","1920x1080","","6023.300000011921","66.53","img/314/4/2/bw/001.png","","","interesting"
"","","","","","animation","128","1126320","0.0-128.0","1920x1080","","16798.09999999404","36.64","img/314/2.5/2/bw/001.png","","","interesting"
"","","","","","animation","129","1130208","0.0-129.0","1920x1080","","3885.9000000059605","51.59","img/117/4/2/bw/001.png","","","interesting"
"","","","","","animation","130","1138280","0.0-130.0","1920x1080","","8070.800000011921","42.86","img/238/4.5/0.5/bw/001.png","","","interesting"
"","","","","","animation","131","1145344","0.0-131.0","1920x1080","","7062.200000017881","66.53","img/117/3.5/1.5/bw/001.png","","","interesting"
"","","","","","animation","132","1149403","0.0-132.0","1920x1080","","4057.199999988079","0","img/117/2.5/1/bw/001.png","","","interesting"
"","","","","","animation","133","1157435","0.0-133.0","1920x1080","","8031.300000011921","100","img/314/5.5/1/bw/001.png","","","interesting"
"","","","","","animation","134","1162920","0.0-134.0","1920x1080","","5483.199999988079","73.28","img/238/4.5/1.5/bw/001.png","","","interesting"
"","","","","","animation","135","1168040","0.0-135.0","1920x1080","","5119.0999999940395","100","img/117/5.5/0.66667/bw/001.png","","","interesting"
"","","","","","animation","136","1177328","0.0-136.0","1920x1080","","9286.700000017881","82.28","img/314/4.5/1/bw/001.png","","","interesting"
"","","","","","animation","137","1183712","0.0-137.0","1920x1080","","6382.5999999940395","100","img/238/5.5/1/bw/001.png","","","interesting"
"","","","","","animation","138","1188852","0.0-138.0","1920x1080","","5138.9000000059605","100","img/238/5.5/2/bw/001.png","","","interesting"
"","","","","","animation","139","1195303","0.0-139.0","1920x1080","","6449.699999988079","89.42","img/314/4.5/1.5/bw/001.png","","","interesting"
"","","","","","animation","140","1199923","0.0-140.0","1920x1080","","4617.9000000059605","99","img/238/5.5/0.66667/bw/001.png","","","interesting"
"","","","","","animation","141","1205344","0.0-141.0","1920x1080","","5417.700000017881","42.06","img/117/2.5/2/bw/001.png","","","interesting"
"","","","","","animation","142","1214652","0.0-142.0","1920x1080","","9306.59999999404","61.11","img/314/4/1.5/bw/001.png","","","interesting"
"","","","","","animation","143","1218752","0.0-143.0","1920x1080","","4098.699999988079","0","img/238/2.5/1/bw/001.png","","","interesting"
"","","","","","animation","144","1222285","0.0-144.0","1920x1080","","3531.7000000178814","0","img/314/2.5/1/bw/001.png","","","interesting"
"","","","","","animation","145","1226144","0.0-145.0","1920x1080","","3858.0999999940395","16.27","img/117/4/0.5/bw/001.png","","","interesting"
"","","","","","animation","146","1230480","0.0-146.0","1920x1080","","4334.800000011921","34.52","img/314/4.5/0.5/bw/001.png","","","interesting"
"","","","","","animation","147","1237935","0.0-147.0","1920x1080","","7454.4000000059605","50.13","img/117/5.5/0.5/bw/001.png","","","interesting"
"","","","","","animation","148","1243272","0.0-148.0","1920x1080","","5334.200000017881","40.34","img/238/4/0.5/bw/001.png","","","interesting"
"","","","","","animation","149","1247985","0.0-149.0","1920x1080","","4711.9000000059605","72.62","img/314/4.5/2/bw/001.png","","","interesting"
"","","","","","animation","150","1252312","0.0-150.0","1920x1080","","4325.300000011921","100","img/314/5.5/2/bw/001.png","","","interesting"
"","","","","","animation","151","1260471","0.0-151.0","1920x1080","","8158.299999982119","69.97","img/117/4.5/1/bw/001.png","","","interesting"
"","","","","","animation","152","1265385","0.0-152.0","1920x1080","","4912.0999999940395","70.37","img/238/4.5/1/bw/001.png","","","interesting"
"","","","","","animation","153","1269119","0.0-153.0","1920x1080","","3733.199999988079","0","img/238/2.5/0.66667/bw/001.png","","","interesting"
"","","","","","animation","154","1272319","0.0-154.0","1920x1080","","3198.9000000059605","0.00","img/314/2.5/0.5/bw/001.png","","","interesting"
"","","","","","animation","155","1278527","0.0-155.0","1920x1080","","6207","17.99","img/314/3.5/0.5/bw/001.png","","","interesting"
"","","","","","animation","156","1287219","0.0-156.0","1920x1080","","8689.700000017881","50.26","img/238/4.5/2/bw/001.png","","","interesting"
"","","","","","animation","157","1295963","0.0-157.0","1920x1080","","8738.90000000596","60.45","img/117/4/1/bw/001.png","","","interesting"
"","","","","","animation","158","1302699","0.0-158.0","1920x1080","","6734.800000011921","49.87","img/238/2.5/2/bw/001.png","","","interesting"
"","","","","","html-button-response","159","1326689","0.0-159.0","1920x1080","","23988.69999998808","","<div class=""intro"">You are about to view a new series of animations.<br><br></div><div class=""intro"">You will evaluate them based on a different descriptor.<br><br></div><div class=""intro"">Move the slider to indicate how <strong style=""text-transform:capitalize"">APPEALING</strong> you find each animation.<br><br></div><div class=""intro"">0 = Least Appealing<br></div><div class=""intro"">1 = Most Appealing<br><br></div><div class=""intro"">Remember to use the <strong><em>entire range</em></strong> of the slider to make your ratings.<br></div><div class=""intro"">Please <strong><em>take your time</em></strong> and carefully consider each rating you make.<br><br></div>","0","",""
"","","","","","call-function","160","1326693","0.0-160.0","1920x1080","","","","","","",""
"","","","","","animation","161","1338859","0.0-161.0","1920x1080","","12165.5","76","img/117/4/0.66667/bw/001.png","","","appealing"
"","","","","","animation","162","1343890","0.0-162.0","1920x1080","","5029.699999988079","99","img/117/5.5/0.5/bw/001.png","","","appealing"
"","","","","","animation","163","1348373","0.0-163.0","1920x1080","","4478.5999999940395","100","img/314/5.5/0.66667/bw/001.png","","","appealing"
"","","","","","animation","164","1354973","0.0-164.0","1920x1080","","6598.0999999940395","38.62","img/117/3.5/0.66667/bw/001.png","","","appealing"
"","","","","","animation","165","1362629","0.0-165.0","1920x1080","","7653.0999999940395","100","img/117/5.5/0.66667/bw/001.png","","","appealing"
"","","","","","animation","166","1371206","0.0-166.0","1920x1080","","8576.300000011921","50.53","img/117/3.5/1.5/bw/001.png","","","appealing"
"","","","","","animation","167","1374090","0.0-167.0","1920x1080","","2882.300000011921","0","img/238/2.5/0.66667/bw/001.png","","","appealing"
"","","","","","animation","168","1380565","0.0-168.0","1920x1080","","6473.9000000059605","42.20","img/314/4.5/0.5/bw/001.png","","","appealing"
"","","","","","animation","169","1385040","0.0-169.0","1920x1080","","4473.300000011921","15.61","img/238/3.5/0.5/bw/001.png","","","appealing"
"","","","","","animation","170","1389973","0.0-170.0","1920x1080","","4929.799999982119","100","img/117/5.5/2/bw/001.png","","","appealing"
"","","","","","animation","171","1400389","0.0-171.0","1920x1080","","10414.90000000596","78.17","img/314/4.5/1/bw/001.png","","","appealing"
"","","","","","animation","172","1407590","0.0-172.0","1920x1080","","7199.200000017881","72.09","img/117/4.5/0.5/bw/001.png","","","appealing"
"","","","","","animation","173","1415816","0.0-173.0","1920x1080","","8220","43.25","img/314/3.5/1.5/bw/001.png","","","appealing"
"","","","","","animation","174","1418880","0.0-174.0","1920x1080","","3062","0","img/117/2.5/0.66667/bw/001.png","","","appealing"
"","","","","","animation","175","1431010","0.0-175.0","1920x1080","","12127.300000011921","15.48","img/117/4/2/bw/001.png","","","appealing"
"","","","","","animation","176","1435361","0.0-176.0","1920x1080","","4349.399999976158","8.99","img/238/3.5/0.66667/bw/001.png","","","appealing"
"","","","","","animation","177","1438826","0.0-177.0","1920x1080","","3463","99","img/238/5.5/1/bw/001.png","","","appealing"
"","","","","","animation","178","1446048","0.0-178.0","1920x1080","","7220.5","21","img/238/4/1.5/bw/001.png","","","appealing"
"","","","","","animation","179","1448616","0.0-179.0","1920x1080","","2566.9000000059605","0","img/238/2.5/0.5/bw/001.png","","","appealing"
"","","","","","animation","180","1454010","0.0-180.0","1920x1080","","5392.300000011921","9.13","img/314/2.5/1.5/bw/001.png","","","appealing"
"","","","","","animation","181","1461826","0.0-181.0","1920x1080","","7814.9000000059605","29.89","img/314/4/1/bw/001.png","","","appealing"
"","","","","","animation","182","1467280","0.0-182.0","1920x1080","","5452.799999982119","18.65","img/314/3.5/0.5/bw/001.png","","","appealing"
"","","","","","animation","183","1478699","0.0-183.0","1920x1080","","11407.700000017881","39.42","img/238/4/1/bw/001.png","","","appealing"
"","","","","","animation","184","1486483","0.0-184.0","1920x1080","","7782.9000000059605","23.15","img/314/4/0.5/bw/001.png","","","appealing"
"","","","","","animation","185","1493147","0.0-185.0","1920x1080","","6662","31.75","img/238/4.5/0.66667/bw/001.png","","","appealing"
"","","","","","animation","186","1497563","0.0-186.0","1920x1080","","4414.0999999940395","0.53","img/238/2.5/1.5/bw/001.png","","","appealing"
"","","","","","animation","187","1505529","0.0-187.0","1920x1080","","7964.5","53.97","img/238/4.5/1.5/bw/001.png","","","appealing"
"","","","","","animation","188","1511163","0.0-188.0","1920x1080","","5632.200000017881","15.61","img/238/4/0.5/bw/001.png","","","appealing"
"","","","","","animation","189","1516931","0.0-189.0","1920x1080","","5766.5999999940395","100","img/117/5.5/1.5/bw/001.png","","","appealing"
"","","","","","animation","190","1521229","0.0-190.0","1920x1080","","4296.9000000059605","0","img/314/2.5/0.5/bw/001.png","","","appealing"
"","","","","","animation","191","1524867","0.0-191.0","1920x1080","","3636.5999999940395","0.00","img/117/2.5/1/bw/001.png","","","appealing"
"","","","","","animation","192","1537199","0.0-192.0","1920x1080","","12327.5","20.24","img/238/4/2/bw/001.png","","","appealing"
"","","","","","animation","193","1544574","0.0-193.0","1920x1080","","7373.699999988079","14.95","img/314/4/1.5/bw/001.png","","","appealing"
"","","","","","animation","194","1553765","0.0-194.0","1920x1080","","9188.40000000596","100","img/314/5.5/1.5/bw/001.png","","","appealing"
"","","","","","animation","195","1557054","0.0-195.0","1920x1080","","3286.4000000059605","0.40","img/314/2.5/0.66667/bw/001.png","","","appealing"
"","","","","","animation","196","1562982","0.0-196.0","1920x1080","","5926.5","5.95","img/314/2.5/2/bw/001.png","","","appealing"
"","","","","","animation","197","1568806","0.0-197.0","1920x1080","","5822.300000011921","82.14","img/314/4.5/1.5/bw/001.png","","","appealing"
"","","","","","animation","198","1574422","0.0-198.0","1920x1080","","5613.799999982119","67.33","img/238/4/0.66667/bw/001.png","","","appealing"
"","","","","","animation","199","1579548","0.0-199.0","1920x1080","","5122.800000011921","90.48","img/117/5.5/1/bw/001.png","","","appealing"
"","","","","","animation","200","1586149","0.0-200.0","1920x1080","","6599.4000000059605","73","img/238/4.5/1/bw/001.png","","","appealing"
"","","","","","animation","201","1592054","0.0-201.0","1920x1080","","5902.5","91.53","img/314/5.5/1/bw/001.png","","","appealing"
"","","","","","animation","202","1597838","0.0-202.0","1920x1080","","5781.700000017881","97","img/238/5.5/0.5/bw/001.png","","","appealing"
"","","","","","animation","203","1614158","0.0-203.0","1920x1080","","16317.59999999404","84.92","img/238/5.5/2/bw/001.png","","","appealing"
"","","","","","animation","204","1625032","0.0-204.0","1920x1080","","10871.699999988079","90.61","img/238/4.5/2/bw/001.png","","","appealing"
"","","","","","animation","205","1630966","0.0-205.0","1920x1080","","5932.0999999940395","40.87","img/314/3.5/0.66667/bw/001.png","","","appealing"
"","","","","","animation","206","1640015","0.0-206.0","1920x1080","","9042.799999982119","76","img/314/4.5/2/bw/001.png","","","appealing"
"","","","","","animation","207","1651214","0.0-207.0","1920x1080","","11197.799999982119","12.70","img/117/3.5/2/bw/001.png","","","appealing"
"","","","","","animation","208","1656837","0.0-208.0","1920x1080","","5621.700000017881","100","img/314/5.5/2/bw/001.png","","","appealing"
"","","","","","animation","209","1661831","0.0-209.0","1920x1080","","4991.5","0","img/117/2.5/1.5/bw/001.png","","","appealing"
"","","","","","animation","210","1671101","0.0-210.0","1920x1080","","9268.600000023842","100","img/238/5.5/0.66667/bw/001.png","","","appealing"
"","","","","","animation","211","1676098","0.0-211.0","1920x1080","","4993.0999999940395","61.90","img/117/4/0.5/bw/001.png","","","appealing"
"","","","","","animation","212","1681264","0.0-212.0","1920x1080","","5164.5999999940395","41.80","img/117/4/1.5/bw/001.png","","","appealing"
"","","","","","animation","213","1695837","0.0-213.0","1920x1080","","14571.600000023842","99","img/238/5.5/1.5/bw/001.png","","","appealing"
"","","","","","animation","214","1704837","0.0-214.0","1920x1080","","8998.5","40.34","img/314/3.5/2/bw/001.png","","","appealing"
"","","","","","animation","215","1713350","0.0-215.0","1920x1080","","8510.200000017881","7.41","img/117/3.5/0.5/bw/001.png","","","appealing"
"","","","","","animation","216","1717350","0.0-216.0","1920x1080","","3998.300000011921","0","img/314/2.5/1/bw/001.png","","","appealing"
"","","","","","animation","217","1727118","0.0-217.0","1920x1080","","9766.09999999404","20.37","img/314/4/2/bw/001.png","","","appealing"
"","","","","","animation","218","1732022","0.0-218.0","1920x1080","","4901.800000011921","50.40","img/314/4.5/0.66667/bw/001.png","","","appealing"
"","","","","","animation","219","1736615","0.0-219.0","1920x1080","","4591.200000017881","0","img/117/2.5/0.5/bw/001.png","","","appealing"
"","","","","","animation","220","1754548","0.0-220.0","1920x1080","","17931.90000000596","89","img/314/5.5/0.5/bw/001.png","","","appealing"
"","","","","","animation","221","1760686","0.0-221.0","1920x1080","","6136.4000000059605","33.07","img/314/3.5/1/bw/001.png","","","appealing"
"","","","","","animation","222","1764998","0.0-222.0","1920x1080","","4310.100000023842","30.69","img/117/4/1/bw/001.png","","","appealing"
"","","","","","animation","223","1771869","0.0-223.0","1920x1080","","6870","30.69","img/117/4.5/0.66667/bw/001.png","","","appealing"
"","","","","","animation","224","1777589","0.0-224.0","1920x1080","","5717.600000023842","50.79","img/117/4.5/2/bw/001.png","","","appealing"
"","","","","","animation","225","1785685","0.0-225.0","1920x1080","","8093.9000000059605","60.58","img/117/4.5/1.5/bw/001.png","","","appealing"
"","","","","","animation","226","1793221","0.0-226.0","1920x1080","","7534.299999982119","11.24","img/117/2.5/2/bw/001.png","","","appealing"
"","","","","","animation","227","1800081","0.0-227.0","1920x1080","","6856.799999982119","16.67","img/238/3.5/2/bw/001.png","","","appealing"
"","","","","","animation","228","1806790","0.0-228.0","1920x1080","","6707.0999999940395","45.50","img/238/4.5/0.5/bw/001.png","","","appealing"
"","","","","","animation","229","1817247","0.0-229.0","1920x1080","","10454.299999982119","15.87","img/238/2.5/2/bw/001.png","","","appealing"
"","","","","","animation","230","1826397","0.0-230.0","1920x1080","","9147.100000023842","2","img/238/2.5/1/bw/001.png","","","appealing"
"","","","","","animation","231","1835165","0.0-231.0","1920x1080","","8765.800000011921","5.42","img/238/3.5/1.5/bw/001.png","","","appealing"
"","","","","","animation","232","1844164","0.0-232.0","1920x1080","","8996.90000000596","37.96","img/117/3.5/1/bw/001.png","","","appealing"
"","","","","","animation","233","1853054","0.0-233.0","1920x1080","","8887.300000011921","26.98","img/238/3.5/1/bw/001.png","","","appealing"
"","","","","","animation","234","1861502","0.0-234.0","1920x1080","","8446","39.68","img/314/4/0.66667/bw/001.png","","","appealing"
"","","","","","animation","235","1867206","0.0-235.0","1920x1080","","5700.5999999940395","52.12","img/117/4.5/1/bw/001.png","","","appealing"
"","","","","","html-button-response","236","1888097","0.0-236.0","1920x1080","","20888.40000000596","","<div class=""intro"">You are about to view a new series of animations.<br><br></div><div class=""intro"">You will evaluate them based on a different descriptor.<br><br></div><div class=""intro"">Move the slider to indicate how <strong style=""text-transform:capitalize"">RELAXING</strong> you find each animation.<br><br></div><div class=""intro"">0 = Least Relaxing<br></div><div class=""intro"">1 = Most Relaxing<br><br></div><div class=""intro"">Remember to use the <strong><em>entire range</em></strong> of the slider to make your ratings.<br></div><div class=""intro"">Please <strong><em>take your time</em></strong> and carefully consider each rating you make.<br><br></div>","0","",""
"","","","","","call-function","237","1888098","0.0-237.0","1920x1080","","","","","","",""
"","","","","","animation","238","1898054","0.0-238.0","1920x1080","","9954.5","50.53","img/238/3.5/1.5/bw/001.png","","","relaxing"
"","","","","","animation","239","1903314","0.0-239.0","1920x1080","","5258.0999999940395","84.52","img/314/4.5/1/bw/001.png","","","relaxing"
"","","","","","animation","240","1910902","0.0-240.0","1920x1080","","7585.9000000059605","58.33","img/314/4/1/bw/001.png","","","relaxing"
"","","","","","animation","241","1917498","0.0-241.0","1920x1080","","6593.199999988079","73.41","img/117/4.5/1.5/bw/001.png","","","relaxing"
"","","","","","animation","242","1922054","0.0-242.0","1920x1080","","4554.5","100","img/117/5.5/2/bw/001.png","","","relaxing"
"","","","","","animation","243","1926714","0.0-243.0","1920x1080","","4657.699999988079","27.51","img/314/3.5/0.66667/bw/001.png","","","relaxing"
"","","","","","animation","244","1931750","0.0-244.0","1920x1080","","5033.9000000059605","100","img/238/5.5/2/bw/001.png","","","relaxing"
"","","","","","animation","245","1935638","0.0-245.0","1920x1080","","3886","0.00","img/117/2.5/0.66667/bw/001.png","","","relaxing"
"","","","","","animation","246","1940582","0.0-246.0","1920x1080","","4942.199999988079","100","img/117/5.5/1/bw/001.png","","","relaxing"
"","","","","","animation","247","1946081","0.0-247.0","1920x1080","","5496.9000000059605","100","img/238/5.5/1.5/bw/001.png","","","relaxing"
"","","","","","animation","248","1949963","0.0-248.0","1920x1080","","3881.2000000178814","0","img/314/2.5/1/bw/001.png","","","relaxing"
"","","","","","animation","249","1955965","0.0-249.0","1920x1080","","6000.200000017881","0","img/117/2.5/1/bw/001.png","","","relaxing"
"","","","","","animation","250","1960164","0.0-250.0","1920x1080","","4197","47.88","img/238/4/1.5/bw/001.png","","","relaxing"
"","","","","","animation","251","1965705","0.0-251.0","1920x1080","","5539.5999999940395","47.49","img/117/4.5/1/bw/001.png","","","relaxing"
"","","","","","animation","252","1969781","0.0-252.0","1920x1080","","4072.4000000059605","36.38","img/117/4/1/bw/001.png","","","relaxing"
"","","","","","animation","253","1973885","0.0-253.0","1920x1080","","4102","25.53","img/314/3.5/2/bw/001.png","","","relaxing"
"","","","","","animation","254","1980147","0.0-254.0","1920x1080","","6258.800000011921","38.23","img/117/4.5/2/bw/001.png","","","relaxing"
"","","","","","animation","255","1984230","0.0-255.0","1920x1080","","4081.300000011921","20.11","img/314/3.5/1/bw/001.png","","","relaxing"
"","","","","","animation","256","1989197","0.0-256.0","1920x1080","","4965.4000000059605","29.10","img/314/4/2/bw/001.png","","","relaxing"
"","","","","","animation","257","2000233","0.0-257.0","1920x1080","","11033.5","0","img/314/2.5/1.5/bw/001.png","","","relaxing"
"","","","","","animation","258","2009838","0.0-258.0","1920x1080","","9602.399999976158","7","img/238/4/0.5/bw/001.png","","","relaxing"
"","","","","","animation","259","2013430","0.0-259.0","1920x1080","","3590.9000000059605","7.94","img/238/3.5/0.5/bw/001.png","","","relaxing"
"","","","","","animation","260","2024672","0.0-260.0","1920x1080","","11240.699999988079","90","img/314/5.5/0.66667/bw/001.png","","","relaxing"
"","","","","","animation","261","2030318","0.0-261.0","1920x1080","","5642.4000000059605","44.31","img/314/4/0.5/bw/001.png","","","relaxing"
"","","","","","animation","262","2034047","0.0-262.0","1920x1080","","3727","0","img/314/2.5/0.66667/bw/001.png","","","relaxing"
"","","","","","animation","263","2041030","0.0-263.0","1920x1080","","6980.4000000059605","14.42","img/238/4.5/0.5/bw/001.png","","","relaxing"
"","","","","","animation","264","2050000","0.0-264.0","1920x1080","","8967.199999988079","10.45","img/117/3.5/1.5/bw/001.png","","","relaxing"
"","","","","","animation","265","2054025","0.0-265.0","1920x1080","","4021.7999999821186","2.12","img/117/3.5/0.5/bw/001.png","","","relaxing"
"","","","","","animation","266","2059961","0.0-266.0","1920x1080","","5932.9000000059605","26.85","img/117/4.5/0.5/bw/001.png","","","relaxing"
"","","","","","animation","267","2066135","0.0-267.0","1920x1080","","6171.699999988079","37.96","img/238/3.5/2/bw/001.png","","","relaxing"
"","","","","","animation","268","2073974","0.0-268.0","1920x1080","","7837","31","img/314/4.5/0.66667/bw/001.png","","","relaxing"
"","","","","","animation","269","2078070","0.0-269.0","1920x1080","","4093.600000023842","0.00","img/238/2.5/1/bw/001.png","","","relaxing"
"","","","","","animation","270","2083252","0.0-270.0","1920x1080","","5180.0999999940395","31.22","img/314/3.5/1.5/bw/001.png","","","relaxing"
"","","","","","animation","271","2099230","0.0-271.0","1920x1080","","15976.09999999404","80.56","img/314/4.5/2/bw/001.png","","","relaxing"
"","","","","","animation","272","2103563","0.0-272.0","1920x1080","","4330.800000011921","0","img/117/2.5/0.5/bw/001.png","","","relaxing"
"","","","","","animation","273","2108217","0.0-273.0","1920x1080","","4651.5","100","img/117/5.5/1.5/bw/001.png","","","relaxing"
"","","","","","animation","274","2112079","0.0-274.0","1920x1080","","3860.199999988079","44.97","img/238/4/1/bw/001.png","","","relaxing"
"","","","","","animation","275","2119197","0.0-275.0","1920x1080","","7115.199999988079","78.70","img/117/5.5/0.66667/bw/001.png","","","relaxing"
"","","","","","animation","276","2126566","0.0-276.0","1920x1080","","7366.800000011921","25.00","img/238/4/0.66667/bw/001.png","","","relaxing"
"","","","","","animation","277","2132870","0.0-277.0","1920x1080","","6301.9000000059605","84.92","img/314/5.5/0.5/bw/001.png","","","relaxing"
"","","","","","animation","278","2139198","0.0-278.0","1920x1080","","6324.0999999940395","77.38","img/238/4.5/2/bw/001.png","","","relaxing"
"","","","","","animation","279","2148486","0.0-279.0","1920x1080","","9286.09999999404","44.05","img/117/4/2/bw/001.png","","","relaxing"
"","","","","","animation","280","2152519","0.0-280.0","1920x1080","","4032","0","img/314/2.5/2/bw/001.png","","","relaxing"
"","","","","","animation","281","2156302","0.0-281.0","1920x1080","","3780.4000000059605","0","img/238/2.5/0.66667/bw/001.png","","","relaxing"
"","","","","","animation","282","2162446","0.0-282.0","1920x1080","","6142.5999999940395","3","img/117/2.5/2/bw/001.png","","","relaxing"
"","","","","","animation","283","2173296","0.0-283.0","1920x1080","","10847.799999982119","77","img/238/5.5/0.5/bw/001.png","","","relaxing"
"","","","","","animation","284","2179040","0.0-284.0","1920x1080","","5741.9000000059605","14.68","img/117/4/0.5/bw/001.png","","","relaxing"
"","","","","","animation","285","2183654","0.0-285.0","1920x1080","","4612.0999999940395","18.25","img/314/4/0.66667/bw/001.png","","","relaxing"
"","","","","","animation","286","2192934","0.0-286.0","1920x1080","","9276.800000011921","2","img/238/2.5/2/bw/001.png","","","relaxing"
"","","","","","animation","287","2196158","0.0-287.0","1920x1080","","3222.800000011921","0","img/314/2.5/0.5/bw/001.png","","","relaxing"
"","","","","","animation","288","2205334","0.0-288.0","1920x1080","","9173.09999999404","4","img/238/3.5/0.66667/bw/001.png","","","relaxing"
"","","","","","animation","289","2209969","0.0-289.0","1920x1080","","4633.199999988079","21.83","img/117/4.5/0.66667/bw/001.png","","","relaxing"
"","","","","","animation","290","2215813","0.0-290.0","1920x1080","","5842.199999988079","15.21","img/117/3.5/2/bw/001.png","","","relaxing"
"","","","","","animation","291","2229486","0.0-291.0","1920x1080","","13670.799999982119","30.03","img/238/4.5/1.5/bw/001.png","","","relaxing"
"","","","","","animation","292","2238663","0.0-292.0","1920x1080","","9173.800000011921","16.53","img/314/3.5/0.5/bw/001.png","","","relaxing"
"","","","","","animation","293","2251872","0.0-293.0","1920x1080","","13207.5","20","img/238/3.5/1/bw/001.png","","","relaxing"
"","","","","","animation","294","2259629","0.0-294.0","1920x1080","","7755.300000011921","78","img/238/5.5/0.66667/bw/001.png","","","relaxing"
"","","","","","animation","295","2266169","0.0-295.0","1920x1080","","6536.100000023842","6.75","img/117/3.5/0.66667/bw/001.png","","","relaxing"
"","","","","","animation","296","2274815","0.0-296.0","1920x1080","","8644","100","img/314/5.5/2/bw/001.png","","","relaxing"
"","","","","","animation","297","2281946","0.0-297.0","1920x1080","","7128.799999982119","78.04","img/117/5.5/0.5/bw/001.png","","","relaxing"
"","","","","","animation","298","2286197","0.0-298.0","1920x1080","","4247.800000011921","100","img/314/5.5/1.5/bw/001.png","","","relaxing"
"","","","","","animation","299","2290981","0.0-299.0","1920x1080","","4781.800000011921","0","img/238/2.5/0.5/bw/001.png","","","relaxing"
"","","","","","animation","300","2313677","0.0-300.0","1920x1080","","22695.5","100","img/238/5.5/1/bw/001.png","","","relaxing"
"","","","","","animation","301","2321877","0.0-301.0","1920x1080","","8198.200000017881","30.69","img/238/4/2/bw/001.png","","","relaxing"
"","","","","","animation","302","2352284","0.0-302.0","1920x1080","","30404.40000000596","42.59","img/238/4.5/0.66667/bw/001.png","","","relaxing"
"","","","","","animation","303","2356225","0.0-303.0","1920x1080","","3938.800000011921","4.63","img/117/2.5/1.5/bw/001.png","","","relaxing"
"","","","","","animation","304","2359510","0.0-304.0","1920x1080","","3281.9000000059605","0","img/238/2.5/1.5/bw/001.png","","","relaxing"
"","","","","","animation","305","2363395","0.0-305.0","1920x1080","","3883.7000000178814","21.03","img/314/4.5/0.5/bw/001.png","","","relaxing"
"","","","","","animation","306","2378364","0.0-306.0","1920x1080","","14969.5","40.21","img/238/4.5/1/bw/001.png","","","relaxing"
"","","","","","animation","307","2383545","0.0-307.0","1920x1080","","5176.799999982119","19.31","img/117/4/1.5/bw/001.png","","","relaxing"
"","","","","","animation","308","2390315","0.0-308.0","1920x1080","","6767","19.97","img/117/3.5/1/bw/001.png","","","relaxing"
"","","","","","animation","309","2396841","0.0-309.0","1920x1080","","6524","28.17","img/314/4/1.5/bw/001.png","","","relaxing"
"","","","","","animation","310","2410649","0.0-310.0","1920x1080","","13805.59999999404","16.14","img/117/4/0.66667/bw/001.png","","","relaxing"
"","","","","","animation","311","2415325","0.0-311.0","1920x1080","","4673.899999976158","100","img/314/5.5/1/bw/001.png","","","relaxing"
"","","","","","animation","312","2424290","0.0-312.0","1920x1080","","8963","68.12","img/314/4.5/1.5/bw/001.png","","","relaxing"
"","","","","","html-button-response","313","2453441","0.0-313.0","1920x1080","","29150.09999999404","","<div class=""intro"">You are about to view a new series of animations.<br><br></div><div class=""intro"">You will evaluate them based on a different descriptor.<br><br></div><div class=""intro"">Move the slider to indicate how <strong style=""text-transform:capitalize"">NATURAL</strong> you find each animation.<br><br></div><div class=""intro"">0 = Least Natural<br></div><div class=""intro"">1 = Most Natural<br><br></div><div class=""intro"">Remember to use the <strong><em>entire range</em></strong> of the slider to make your ratings.<br></div><div class=""intro"">Please <strong><em>take your time</em></strong> and carefully consider each rating you make.<br><br></div>","0","",""
"","","","","","call-function","314","2453445","0.0-314.0","1920x1080","","","","","","",""
"","","","","","animation","315","2467605","0.0-315.0","1920x1080","","14159.799999982119","61","img/238/3.5/0.5/bw/001.png","","","natural"
"","","","","","animation","316","2474905","0.0-316.0","1920x1080","","7297.799999982119","52.91","img/238/3.5/1/bw/001.png","","","natural"
"","","","","","animation","317","2482539","0.0-317.0","1920x1080","","7630.699999988079","40.74","img/314/4/1.5/bw/001.png","","","natural"
"","","","","","animation","318","2487006","0.0-318.0","1920x1080","","4465.899999976158","0.13","img/314/2.5/0.66667/bw/001.png","","","natural"
"","","","","","animation","319","2498478","0.0-319.0","1920x1080","","11471.300000011921","40","img/117/4.5/0.5/bw/001.png","","","natural"
"","","","","","animation","320","2503612","0.0-320.0","1920x1080","","5132.5999999940395","31.61","img/314/3.5/1.5/bw/001.png","","","natural"
"","","","","","animation","321","2508404","0.0-321.0","1920x1080","","4789.299999982119","49.87","img/314/4.5/0.5/bw/001.png","","","natural"
"","","","","","animation","322","2511372","0.0-322.0","1920x1080","","2966.9000000059605","0.13","img/117/2.5/1/bw/001.png","","","natural"
"","","","","","animation","323","2519973","0.0-323.0","1920x1080","","8598.800000011921","46.96","img/117/4/0.66667/bw/001.png","","","natural"
"","","","","","animation","324","2525021","0.0-324.0","1920x1080","","5044.0999999940395","60.32","img/314/3.5/0.66667/bw/001.png","","","natural"
"","","","","","animation","325","2538118","0.0-325.0","1920x1080","","13095.700000017881","61.38","img/238/4/0.5/bw/001.png","","","natural"
"","","","","","animation","326","2543905","0.0-326.0","1920x1080","","5784.799999982119","0.13","img/238/2.5/1/bw/001.png","","","natural"
"","","","","","animation","327","2555051","0.0-327.0","1920x1080","","11145.399999976158","23.68","img/314/5.5/1/bw/001.png","","","natural"
"","","","","","animation","328","2560205","0.0-328.0","1920x1080","","5152.4000000059605","18","img/314/5.5/1.5/bw/001.png","","","natural"
"","","","","","animation","329","2563266","0.0-329.0","1920x1080","","3058.199999988079","0.53","img/314/2.5/1/bw/001.png","","","natural"
"","","","","","animation","330","2568241","0.0-330.0","1920x1080","","4973.4000000059605","19.05","img/314/5.5/2/bw/001.png","","","natural"
"","","","","","animation","331","2572675","0.0-331.0","1920x1080","","4431.700000017881","54.23","img/117/3.5/1/bw/001.png","","","natural"
"","","","","","animation","332","2578965","0.0-332.0","1920x1080","","6287.699999988079","39.68","img/238/4/2/bw/001.png","","","natural"
"","","","","","animation","333","2585707","0.0-333.0","1920x1080","","6738.5999999940395","0.00","img/117/2.5/0.66667/bw/001.png","","","natural"
"","","","","","animation","334","2591968","0.0-334.0","1920x1080","","6258.799999982119","26.32","img/238/4/1.5/bw/001.png","","","natural"
"","","","","","animation","335","2596018","0.0-335.0","1920x1080","","4048.0999999940395","17.72","img/314/4.5/2/bw/001.png","","","natural"
"","","","","","animation","336","2601616","0.0-336.0","1920x1080","","5595.5","11.38","img/117/3.5/2/bw/001.png","","","natural"
"","","","","","animation","337","2617452","0.0-337.0","1920x1080","","15833.800000011921","4","img/238/2.5/0.5/bw/001.png","","","natural"
"","","","","","animation","338","2624393","0.0-338.0","1920x1080","","6940.299999982119","29.50","img/117/4/1/bw/001.png","","","natural"
"","","","","","animation","339","2633222","0.0-339.0","1920x1080","","8825.90000000596","3","img/238/2.5/1.5/bw/001.png","","","natural"
"","","","","","animation","340","2646249","0.0-340.0","1920x1080","","13024.800000011921","33.07","img/238/4.5/1.5/bw/001.png","","","natural"
"","","","","","animation","341","2650971","0.0-341.0","1920x1080","","4718","50.40","img/238/4.5/0.5/bw/001.png","","","natural"
"","","","","","animation","342","2656504","0.0-342.0","1920x1080","","5528.300000011921","19.58","img/238/5.5/1.5/bw/001.png","","","natural"
"","","","","","animation","343","2662206","0.0-343.0","1920x1080","","5699","0","img/238/2.5/0.66667/bw/001.png","","","natural"
"","","","","","animation","344","2667003","0.0-344.0","1920x1080","","4795.9000000059605","15.74","img/314/5.5/0.5/bw/001.png","","","natural"
"","","","","","animation","345","2677166","0.0-345.0","1920x1080","","10161.800000011921","0.00","img/314/2.5/1.5/bw/001.png","","","natural"
"","","","","","animation","346","2684002","0.0-346.0","1920x1080","","6833.699999988079","49.74","img/314/4.5/1.5/bw/001.png","","","natural"
"","","","","","animation","347","2690757","0.0-347.0","1920x1080","","6753.799999982119","49.60","img/238/4.5/1/bw/001.png","","","natural"
"","","","","","animation","348","2698249","0.0-348.0","1920x1080","","7489.799999982119","32","img/314/5.5/0.66667/bw/001.png","","","natural"
"","","","","","animation","349","2705177","0.0-349.0","1920x1080","","6924.5","39.81","img/314/4.5/1/bw/001.png","","","natural"
"","","","","","animation","350","2710051","0.0-350.0","1920x1080","","4873.199999988079","16.01","img/117/5.5/1/bw/001.png","","","natural"
"","","","","","animation","351","2718516","0.0-351.0","1920x1080","","8462.800000011921","27.12","img/238/5.5/0.5/bw/001.png","","","natural"
"","","","","","animation","352","2729753","0.0-352.0","1920x1080","","11234.09999999404","0.40","img/117/2.5/2/bw/001.png","","","natural"
"","","","","","animation","353","2740965","0.0-353.0","1920x1080","","11207.299999982119","63.10","img/238/3.5/2/bw/001.png","","","natural"
"","","","","","animation","354","2746617","0.0-354.0","1920x1080","","5650.5999999940395","22.09","img/117/5.5/0.66667/bw/001.png","","","natural"
"","","","","","animation","355","2753186","0.0-355.0","1920x1080","","6564.5999999940395","5","img/117/2.5/0.5/bw/001.png","","","natural"
"","","","","","animation","356","2757532","0.0-356.0","1920x1080","","4344.199999988079","73.68","img/314/4/0.5/bw/001.png","","","natural"
"","","","","","animation","357","2763593","0.0-357.0","1920x1080","","6058.300000011921","41.27","img/238/4.5/2/bw/001.png","","","natural"
"","","","","","animation","358","2775891","0.0-358.0","1920x1080","","12296.5","62","img/314/3.5/1/bw/001.png","","","natural"
"","","","","","animation","359","2780238","0.0-359.0","1920x1080","","4345","17.72","img/238/5.5/1/bw/001.png","","","natural"
"","","","","","animation","360","2792411","0.0-360.0","1920x1080","","12170.59999999404","70.77","img/117/3.5/0.66667/bw/001.png","","","natural"
"","","","","","animation","361","2797525","0.0-361.0","1920x1080","","5109.4000000059605","79.10","img/238/3.5/1.5/bw/001.png","","","natural"
"","","","","","animation","362","2801483","0.0-362.0","1920x1080","","3955.4000000059605","38.89","img/117/4.5/1.5/bw/001.png","","","natural"
"","","","","","animation","363","2808051","0.0-363.0","1920x1080","","6566.800000011921","89.15","img/238/4/0.66667/bw/001.png","","","natural"
"","","","","","animation","364","2812853","0.0-364.0","1920x1080","","4790.0999999940395","78.70","img/314/4/1/bw/001.png","","","natural"
"","","","","","animation","365","2817195","0.0-365.0","1920x1080","","4340.699999988079","5.16","img/117/2.5/1.5/bw/001.png","","","natural"
"","","","","","animation","366","2821999","0.0-366.0","1920x1080","","4800.200000017881","13.23","img/238/5.5/2/bw/001.png","","","natural"
"","","","","","animation","367","2829850","0.0-367.0","1920x1080","","7849","36.77","img/314/3.5/2/bw/001.png","","","natural"
"","","","","","animation","368","2834827","0.0-368.0","1920x1080","","4973.399999976158","30.42","img/314/3.5/0.5/bw/001.png","","","natural"
"","","","","","animation","369","2844541","0.0-369.0","1920x1080","","9712.600000023842","22","img/314/4/2/bw/001.png","","","natural"
"","","","","","animation","370","2848698","0.0-370.0","1920x1080","","4155.4000000059605","21.30","img/117/5.5/2/bw/001.png","","","natural"
"","","","","","animation","371","2855025","0.0-371.0","1920x1080","","6324.4000000059605","15.21","img/238/5.5/0.66667/bw/001.png","","","natural"
"","","","","","animation","372","2862265","0.0-372.0","1920x1080","","7238","62.96","img/238/4.5/0.66667/bw/001.png","","","natural"
"","","","","","animation","373","2866331","0.0-373.0","1920x1080","","4064.0999999940395","0.13","img/314/2.5/0.5/bw/001.png","","","natural"
"","","","","","animation","374","2870209","0.0-374.0","1920x1080","","3875.4000000059605","48.54","img/117/3.5/0.5/bw/001.png","","","natural"
"","","","","","animation","375","2874781","0.0-375.0","1920x1080","","4570.199999988079","28.31","img/117/4/1.5/bw/001.png","","","natural"
"","","","","","animation","376","2881483","0.0-376.0","1920x1080","","6699.5","20.11","img/117/4.5/1/bw/001.png","","","natural"
"","","","","","animation","377","2896731","0.0-377.0","1920x1080","","15246.90000000596","49.60","img/238/3.5/0.66667/bw/001.png","","","natural"
"","","","","","animation","378","2901174","0.0-378.0","1920x1080","","4440.5","85.05","img/314/4.5/0.66667/bw/001.png","","","natural"
"","","","","","animation","379","2905234","0.0-379.0","1920x1080","","4057","28.17","img/117/4.5/2/bw/001.png","","","natural"
"","","","","","animation","380","2908633","0.0-380.0","1920x1080","","3397.4000000059605","18.52","img/117/5.5/1.5/bw/001.png","","","natural"
"","","","","","animation","381","2915166","0.0-381.0","1920x1080","","6527.299999982119","51.59","img/314/4/0.66667/bw/001.png","","","natural"
"","","","","","animation","382","2919931","0.0-382.0","1920x1080","","4763.100000023842","0.40","img/238/2.5/2/bw/001.png","","","natural"
"","","","","","animation","383","2923287","0.0-383.0","1920x1080","","3353.5","0","img/314/2.5/2/bw/001.png","","","natural"
"","","","","","animation","384","2930786","0.0-384.0","1920x1080","","7496.800000011921","16.53","img/117/4/2/bw/001.png","","","natural"
"","","","","","animation","385","2937182","0.0-385.0","1920x1080","","6394.5999999940395","64.29","img/238/4/1/bw/001.png","","","natural"
"","","","","","animation","386","2941715","0.0-386.0","1920x1080","","4530.200000017881","67.46","img/117/4.5/0.66667/bw/001.png","","","natural"
"","","","","","animation","387","2945799","0.0-387.0","1920x1080","","4080.7999999821186","81.22","img/117/4/0.5/bw/001.png","","","natural"
"","","","","","animation","388","2951775","0.0-388.0","1920x1080","","5973.5999999940395","65.34","img/117/3.5/1.5/bw/001.png","","","natural"
"","","","","","animation","389","2957748","0.0-389.0","1920x1080","","5971.0999999940395","13.49","img/117/5.5/0.5/bw/001.png","","","natural"
"","","","","","html-button-response","390","3038172","0.0-390.0","1920x1080","","80421.20000001788","","<strong>Study Debriefing</strong><br><p class=""debrief""><strong>Background:</strong> The patterns you rated are called <em>fractals</em>. The term fractal describes a class of irregular curves or shapes for which any suitably chosen part is similar in shape to a given larger or smaller part when magnified or reduced to the same size. Fractal properties are found throughout the natural and manmade world. The series of animations you saw today displayed animated fractal patterns of a varying complexity.</p><p class=""debrief""><strong>Purpose of this study:</strong> We hope to better understand how the perception of static fractals differs from the perception of animated fractals, and how the speed of the animated patterns influences people&apos;s perception of them. Fractals allow us to study the perception of aesthetic properties (e.g. the perceived level of beauty in an image) without using recognizable content, which makes them an excellent tool for studying abstract aesthetic judgement.</p><p class=""debrief""><strong>Your part:</strong> Your participation has helped us to further understand how humans perceive these patterns across different levels of speed and complexity. This research with allow us to better understand how the visual system and brain process our ever-changing visual environments.<p class=""debrief""><strong>Feedback and Further information:</strong> If you have additional questions about this study, please feel free to ask the researcher, Nathan Gonzales-Hess at nhess @ uoregon.edu. If you have any questions concerning your rights as a research participant, please contact Research Compliance Services, 5237 University of Oregon, Eugene, OR 97403, 541-346-2510, or email researchCompliance @ uoregon.edu. You can also email the Human Subjects Coordinator for psychology and linguistics research at hscoord @ uoregon.edu. ","0","",""
"","","","","","html-button-response","391","3050413","0.0-391.0","1920x1080","","12233.800000011921","","Thank you for participating in this study. <br>Please click below to finish the experiment and submit your responses.<br><br>","0","",""
"true","","","","","fullscreen","392","3051424","0.0-392.0","1920x1080","10:51 20/5/2022","","","","","",""
