"success","timeout","failed_images","failed_audio","failed_video","trial_type","trial_index","time_elapsed","internal_node_id","resolution","timeStamp","rt","response","stimulus","button_pressed","value","descriptor"
"true","false","[]","[]","[]","preload","0","33125","0.0-0.0","1920x1080","","","","","","",""
"true","false","[]","[]","[]","preload","1","63741","0.0-1.0","1920x1080","","","","","","",""
"true","false","[]","[]","[]","preload","2","95004","0.0-2.0","1920x1080","","","","","","",""
"true","","","","","fullscreen","3","99867","0.0-3.0","1920x1080","10:57 17/10/2022","","","","","",""
"","","","","","survey-html-form","4","109303","0.0-4.0","1920x1080","","9433.199999988079","{""age"":""18"",""gender"":""female""}","","","",""
"","","","","","html-button-response","5","159031","0.0-5.0","1920x1080","","49726.69999998808","","<div class=""complex"">You are going to see a series of animations.<br><br></div><div class=""complex"">Move the slider to indicate how <strong style=""text-transform:capitalize"">COMPLEX</strong> you find each animation.<br><br></div><div class=""complex"">0 = Least Complex<br></div><div class=""complex"">1 = Most Complex<br><br></div><div class=""complex"">Remember to use the <strong><em>entire range</em></strong> of the slider to make your ratings.<br></div><div class=""complex"">Please <strong><em>take your time</em></strong> and carefully consider each rating you make.<br><br></div><div class=""complex"">The study has five sections and will take about 45 minutes to complete.<br><br></div>","0","",""
"","","","","","call-function","6","159031","0.0-6.0","1920x1080","","","","","","",""
"","","","","","animation","7","168030","0.0-7.0","1920x1080","","8996.300000011921","87.83","img/238/4/1/bw/001.png","","","complex"
"","","","","","animation","8","176918","0.0-8.0","1920x1080","","8886.899999976158","99","img/117/4.5/1.5/bw/001.png","","","complex"
"","","","","","animation","9","182185","0.0-9.0","1920x1080","","5263.400000035763","27.51","img/238/4/0.5/bw/001.png","","","complex"
"","","","","","animation","10","190057","0.0-10.0","1920x1080","","7871.200000047684","32","img/314/4.5/0.66667/bw/001.png","","","complex"
"","","","","","animation","11","199121","0.0-11.0","1920x1080","","9063.300000011921","48","img/238/3.5/2/bw/001.png","","","complex"
"","","","","","animation","12","205785","0.0-12.0","1920x1080","","6663.399999976158","11.51","img/117/5.5/1/bw/001.png","","","complex"
"","","","","","animation","13","213513","0.0-13.0","1920x1080","","7727.300000011921","9.39","img/314/2.5/2/bw/001.png","","","complex"
"","","","","","animation","14","222361","0.0-14.0","1920x1080","","8847.5","26","img/238/3.5/1.5/bw/001.png","","","complex"
"","","","","","animation","15","226042","0.0-15.0","1920x1080","","3679.600000023842","47.62","img/117/3.5/1.5/bw/001.png","","","complex"
"","","","","","animation","16","230481","0.0-16.0","1920x1080","","4438.799999952316","28.31","img/238/4/2/bw/001.png","","","complex"
"","","","","","animation","17","234857","0.0-17.0","1920x1080","","4375.300000011921","61.64","img/238/3.5/0.5/bw/001.png","","","complex"
"","","","","","animation","18","242257","0.0-18.0","1920x1080","","7375.5","50.53","img/238/5.5/0.5/bw/001.png","","","complex"
"","","","","","animation","19","246617","0.0-19.0","1920x1080","","4358.5","30.16","img/314/5.5/2/bw/001.png","","","complex"
"","","","","","animation","20","252450","0.0-20.0","1920x1080","","5832.899999976158","75.40","img/117/4/1.5/bw/001.png","","","complex"
"","","","","","animation","21","259201","0.0-21.0","1920x1080","","6749.699999988079","65.74","img/117/3.5/1/bw/001.png","","","complex"
"","","","","","animation","22","264145","0.0-22.0","1920x1080","","4943.699999988079","33.20","img/117/4.5/2/bw/001.png","","","complex"
"","","","","","animation","23","270985","0.0-23.0","1920x1080","","6838.800000011921","13.49","img/238/4.5/0.66667/bw/001.png","","","complex"
"","","","","","animation","24","280537","0.0-24.0","1920x1080","","9551.199999988079","57.94","img/314/4/0.66667/bw/001.png","","","complex"
"","","","","","animation","25","283601","0.0-25.0","1920x1080","","3063.400000035763","69.58","img/238/3.5/1/bw/001.png","","","complex"
"","","","","","animation","26","286921","0.0-26.0","1920x1080","","3319.199999988079","32.14","img/238/4/1.5/bw/001.png","","","complex"
"","","","","","animation","27","292777","0.0-27.0","1920x1080","","5855.200000047684","0","img/238/2.5/0.66667/bw/001.png","","","complex"
"","","","","","animation","28","296866","0.0-28.0","1920x1080","","4088.300000011921","13.36","img/314/5.5/1/bw/001.png","","","complex"
"","","","","","animation","29","302808","0.0-29.0","1920x1080","","5918","25.13","img/314/4/1/bw/001.png","","","complex"
"","","","","","animation","30","307016","0.0-30.0","1920x1080","","4207.199999988079","61.38","img/117/5.5/2/bw/001.png","","","complex"
"","","","","","animation","31","311200","0.0-31.0","1920x1080","","4183.800000011921","73.81","img/117/4.5/1/bw/001.png","","","complex"
"","","","","","animation","32","316184","0.0-32.0","1920x1080","","4983.100000023842","2.78","img/117/2.5/1.5/bw/001.png","","","complex"
"","","","","","animation","33","321696","0.0-33.0","1920x1080","","5510.900000035763","25.66","img/314/5.5/0.66667/bw/001.png","","","complex"
"","","","","","animation","34","326648","0.0-34.0","1920x1080","","4950.800000011921","0.93","img/238/2.5/1/bw/001.png","","","complex"
"","","","","","animation","35","331680","0.0-35.0","1920x1080","","5031.800000011921","12.30","img/117/3.5/0.5/bw/001.png","","","complex"
"","","","","","animation","36","336424","0.0-36.0","1920x1080","","4743","25.93","img/238/4.5/1/bw/001.png","","","complex"
"","","","","","animation","37","344448","0.0-37.0","1920x1080","","8023.800000011921","50.13","img/314/5.5/0.5/bw/001.png","","","complex"
"","","","","","animation","38","349424","0.0-38.0","1920x1080","","4975","24.47","img/238/4.5/0.5/bw/001.png","","","complex"
"","","","","","animation","39","354528","0.0-39.0","1920x1080","","5103.100000023842","71.56","img/314/4.5/1/bw/001.png","","","complex"
"","","","","","animation","40","357657","0.0-40.0","1920x1080","","3127.800000011921","4.89","img/117/2.5/2/bw/001.png","","","complex"
"","","","","","animation","41","361162","0.0-41.0","1920x1080","","3478.800000011921","66.40","img/117/5.5/0.66667/bw/001.png","","","complex"
"","","","","","animation","42","365050","0.0-42.0","1920x1080","","3886.699999988079","2.78","img/238/2.5/0.5/bw/001.png","","","complex"
"","","","","","animation","43","369394","0.0-43.0","1920x1080","","4343.599999964237","8.60","img/314/3.5/0.5/bw/001.png","","","complex"
"","","","","","animation","44","374906","0.0-44.0","1920x1080","","5510.899999976158","35.58","img/238/5.5/1.5/bw/001.png","","","complex"
"","","","","","animation","45","379746","0.0-45.0","1920x1080","","4839.5","80.03","img/117/5.5/0.5/bw/001.png","","","complex"
"","","","","","animation","46","383826","0.0-46.0","1920x1080","","4079.099999964237","63.49","img/117/3.5/0.66667/bw/001.png","","","complex"
"","","","","","animation","47","389746","0.0-47.0","1920x1080","","5919.099999964237","71","img/238/5.5/0.66667/bw/001.png","","","complex"
"","","","","","animation","48","395218","0.0-48.0","1920x1080","","5470.5","73.81","img/314/5.5/1.5/bw/001.png","","","complex"
"","","","","","animation","49","400716","0.0-49.0","1920x1080","","5496.900000035763","25","img/117/3.5/2/bw/001.png","","","complex"
"","","","","","animation","50","405906","0.0-50.0","1920x1080","","5189.900000035763","14.29","img/117/4/2/bw/001.png","","","complex"
"","","","","","animation","51","410683","0.0-51.0","1920x1080","","4776.599999964237","60.98","img/117/4.5/0.5/bw/001.png","","","complex"
"","","","","","animation","52","421146","0.0-52.0","1920x1080","","10437.300000011921","59.79","img/117/4.5/0.66667/bw/001.png","","","complex"
"","","","","","animation","53","424340","0.0-53.0","1920x1080","","3192.899999976158","0","img/314/2.5/1.5/bw/001.png","","","complex"
"","","","","","animation","54","429410","0.0-54.0","1920x1080","","5069.5","14.68","img/314/3.5/0.66667/bw/001.png","","","complex"
"","","","","","animation","55","434908","0.0-55.0","1920x1080","","5496.899999976158","25.13","img/117/4/0.5/bw/001.png","","","complex"
"","","","","","animation","56","437994","0.0-56.0","1920x1080","","3085.399999976158","16.27","img/314/3.5/1.5/bw/001.png","","","complex"
"","","","","","animation","57","442275","0.0-57.0","1920x1080","","4280","33.60","img/314/4/0.5/bw/001.png","","","complex"
"","","","","","animation","58","446708","0.0-58.0","1920x1080","","4429.700000047684","0.79","img/314/2.5/0.5/bw/001.png","","","complex"
"","","","","","animation","59","450362","0.0-59.0","1920x1080","","3653.5","25.79","img/117/4/1/bw/001.png","","","complex"
"","","","","","animation","60","455586","0.0-60.0","1920x1080","","5223.300000011921","59.79","img/314/4.5/2/bw/001.png","","","complex"
"","","","","","animation","61","463682","0.0-61.0","1920x1080","","8095","86.38","img/238/4.5/1.5/bw/001.png","","","complex"
"","","","","","animation","62","468730","0.0-62.0","1920x1080","","5046.900000035763","81.48","img/314/4/1.5/bw/001.png","","","complex"
"","","","","","animation","63","473394","0.0-63.0","1920x1080","","4663.300000011921","48.41","img/314/3.5/1/bw/001.png","","","complex"
"","","","","","animation","64","479677","0.0-64.0","1920x1080","","6262.700000047684","74","img/117/5.5/1.5/bw/001.png","","","complex"
"","","","","","animation","65","484797","0.0-65.0","1920x1080","","5119.600000023842","65","img/238/4/0.66667/bw/001.png","","","complex"
"","","","","","animation","66","491789","0.0-66.0","1920x1080","","6991.5","50.00","img/314/4.5/1.5/bw/001.png","","","complex"
"","","","","","animation","67","495813","0.0-67.0","1920x1080","","4022.699999988079","0.00","img/314/2.5/0.66667/bw/001.png","","","complex"
"","","","","","animation","68","500911","0.0-68.0","1920x1080","","5096.5","84.79","img/314/4/2/bw/001.png","","","complex"
"","","","","","animation","69","505381","0.0-69.0","1920x1080","","4469.700000047684","0.40","img/117/2.5/0.66667/bw/001.png","","","complex"
"","","","","","animation","70","513549","0.0-70.0","1920x1080","","8166.900000035763","39.68","img/238/5.5/2/bw/001.png","","","complex"
"","","","","","animation","71","519365","0.0-71.0","1920x1080","","5814.899999976158","55","img/238/4.5/2/bw/001.png","","","complex"
"","","","","","animation","72","522527","0.0-72.0","1920x1080","","3160.300000011921","1.32","img/238/2.5/2/bw/001.png","","","complex"
"","","","","","animation","73","528229","0.0-73.0","1920x1080","","5701.199999988079","15.21","img/238/5.5/1/bw/001.png","","","complex"
"","","","","","animation","74","531253","0.0-74.0","1920x1080","","3023.399999976158","0","img/238/2.5/1.5/bw/001.png","","","complex"
"","","","","","animation","75","534789","0.0-75.0","1920x1080","","3535.300000011921","0","img/117/2.5/1/bw/001.png","","","complex"
"","","","","","animation","76","543695","0.0-76.0","1920x1080","","8902.599999964237","50.00","img/117/4/0.66667/bw/001.png","","","complex"
"","","","","","animation","77","548415","0.0-77.0","1920x1080","","4719.300000011921","47.49","img/238/3.5/0.66667/bw/001.png","","","complex"
"","","","","","animation","78","556367","0.0-78.0","1920x1080","","7950.900000035763","60.85","img/314/4.5/0.5/bw/001.png","","","complex"
"","","","","","animation","79","562807","0.0-79.0","1920x1080","","6439.199999988079","38","img/314/3.5/2/bw/001.png","","","complex"
"","","","","","animation","80","566223","0.0-80.0","1920x1080","","3412.5","0","img/117/2.5/0.5/bw/001.png","","","complex"
"","","","","","animation","81","574178","0.0-81.0","1920x1080","","7954.199999988079","2.65","img/314/2.5/1/bw/001.png","","","complex"
"","","","","","html-button-response","82","593216","0.0-82.0","1920x1080","","19036.099999964237","","<div class=""intro"">You are about to view a new series of animations.<br><br></div><div class=""intro"">You will evaluate them based on a different descriptor.<br><br></div><div class=""intro"">Move the slider to indicate how <strong style=""text-transform:capitalize"">NATURAL</strong> you find each animation.<br><br></div><div class=""intro"">0 = Least Natural<br></div><div class=""intro"">1 = Most Natural<br><br></div><div class=""intro"">Remember to use the <strong><em>entire range</em></strong> of the slider to make your ratings.<br></div><div class=""intro"">Please <strong><em>take your time</em></strong> and carefully consider each rating you make.<br><br></div>","0","",""
"","","","","","call-function","83","593216","0.0-83.0","1920x1080","","","","","","",""
"","","","","","animation","84","598807","0.0-84.0","1920x1080","","5589.699999988079","80.82","img/117/4.5/1/bw/001.png","","","natural"
"","","","","","animation","85","604947","0.0-85.0","1920x1080","","6136.600000023842","76.19","img/314/4.5/1/bw/001.png","","","natural"
"","","","","","animation","86","610321","0.0-86.0","1920x1080","","5373.5","10.45","img/238/3.5/0.5/bw/001.png","","","natural"
"","","","","","animation","87","615914","0.0-87.0","1920x1080","","5591.800000011921","7.01","img/314/2.5/0.5/bw/001.png","","","natural"
"","","","","","animation","88","624665","0.0-88.0","1920x1080","","8749.699999988079","100","img/117/5.5/2/bw/001.png","","","natural"
"","","","","","animation","89","628049","0.0-89.0","1920x1080","","3382.599999964237","46.96","img/117/4/1.5/bw/001.png","","","natural"
"","","","","","animation","90","635049","0.0-90.0","1920x1080","","6999.100000023842","90.48","img/238/5.5/1/bw/001.png","","","natural"
"","","","","","animation","91","639026","0.0-91.0","1920x1080","","3975.300000011921","17.86","img/238/2.5/1/bw/001.png","","","natural"
"","","","","","animation","92","644781","0.0-92.0","1920x1080","","5754.200000047684","87.17","img/117/5.5/1/bw/001.png","","","natural"
"","","","","","animation","93","649580","0.0-93.0","1920x1080","","4797.5","0","img/238/2.5/1.5/bw/001.png","","","natural"
"","","","","","animation","94","654098","0.0-94.0","1920x1080","","4517.199999988079","50.40","img/238/4/2/bw/001.png","","","natural"
"","","","","","animation","95","657826","0.0-95.0","1920x1080","","3725.899999976158","32.14","img/314/3.5/2/bw/001.png","","","natural"
"","","","","","animation","96","664364","0.0-96.0","1920x1080","","6542.700000047684","17.46","img/238/4/1/bw/001.png","","","natural"
"","","","","","animation","97","668276","0.0-97.0","1920x1080","","3910.699999988079","58.99","img/117/4.5/2/bw/001.png","","","natural"
"","","","","","animation","98","672805","0.0-98.0","1920x1080","","4527.199999988079","0","img/314/2.5/1.5/bw/001.png","","","natural"
"","","","","","animation","99","677996","0.0-99.0","1920x1080","","5191","12.30","img/238/4/0.66667/bw/001.png","","","natural"
"","","","","","animation","100","685364","0.0-100.0","1920x1080","","7367.100000023842","38","img/117/4.5/0.66667/bw/001.png","","","natural"
"","","","","","animation","101","688716","0.0-101.0","1920x1080","","3351.2000000476837","22.09","img/238/3.5/1/bw/001.png","","","natural"
"","","","","","animation","102","691775","0.0-102.0","1920x1080","","3057.600000023842","5.16","img/238/3.5/0.66667/bw/001.png","","","natural"
"","","","","","animation","103","698380","0.0-103.0","1920x1080","","6604.800000011921","96","img/314/5.5/2/bw/001.png","","","natural"
"","","","","","animation","104","705125","0.0-104.0","1920x1080","","6743.699999988079","5.03","img/238/3.5/1.5/bw/001.png","","","natural"
"","","","","","animation","105","708796","0.0-105.0","1920x1080","","3670.100000023842","69.97","img/238/4.5/2/bw/001.png","","","natural"
"","","","","","animation","106","713300","0.0-106.0","1920x1080","","4503","85.19","img/117/5.5/0.66667/bw/001.png","","","natural"
"","","","","","animation","107","716596","0.0-107.0","1920x1080","","3294.800000011921","23.41","img/117/3.5/0.66667/bw/001.png","","","natural"
"","","","","","animation","108","720065","0.0-108.0","1920x1080","","3462.699999988079","8.86","img/117/3.5/1.5/bw/001.png","","","natural"
"","","","","","animation","109","723137","0.0-109.0","1920x1080","","3071.100000023842","0","img/117/2.5/1.5/bw/001.png","","","natural"
"","","","","","animation","110","728264","0.0-110.0","1920x1080","","5126.800000011921","98","img/314/5.5/1/bw/001.png","","","natural"
"","","","","","animation","111","731147","0.0-111.0","1920x1080","","2881.100000023842","0.40","img/314/2.5/1/bw/001.png","","","natural"
"","","","","","animation","112","734496","0.0-112.0","1920x1080","","3348.5","6.08","img/314/4/0.5/bw/001.png","","","natural"
"","","","","","animation","113","739113","0.0-113.0","1920x1080","","4615.600000023842","29.76","img/117/4/1/bw/001.png","","","natural"
"","","","","","animation","114","741785","0.0-114.0","1920x1080","","2671.2000000476837","23.94","img/314/3.5/0.5/bw/001.png","","","natural"
"","","","","","animation","115","745617","0.0-115.0","1920x1080","","3830.800000011921","27.51","img/314/3.5/1/bw/001.png","","","natural"
"","","","","","animation","116","749401","0.0-116.0","1920x1080","","3783.300000011921","0.93","img/314/2.5/0.66667/bw/001.png","","","natural"
"","","","","","animation","117","752841","0.0-117.0","1920x1080","","3439.099999964237","58.86","img/117/4.5/0.5/bw/001.png","","","natural"
"","","","","","animation","118","757364","0.0-118.0","1920x1080","","4521.300000011921","0.53","img/238/2.5/2/bw/001.png","","","natural"
"","","","","","animation","119","763364","0.0-119.0","1920x1080","","5999.100000023842","57","img/314/4.5/1.5/bw/001.png","","","natural"
"","","","","","animation","120","766857","0.0-120.0","1920x1080","","3491.400000035763","35.58","img/238/3.5/2/bw/001.png","","","natural"
"","","","","","animation","121","771241","0.0-121.0","1920x1080","","4383","84.79","img/238/5.5/0.5/bw/001.png","","","natural"
"","","","","","animation","122","773969","0.0-122.0","1920x1080","","2727","64.42","img/238/4.5/1/bw/001.png","","","natural"
"","","","","","animation","123","777946","0.0-123.0","1920x1080","","3976.300000011921","58.20","img/117/4.5/1.5/bw/001.png","","","natural"
"","","","","","animation","124","781414","0.0-124.0","1920x1080","","3470","55.82","img/238/4.5/1.5/bw/001.png","","","natural"
"","","","","","animation","125","784143","0.0-125.0","1920x1080","","2728.300000011921","4.76","img/117/2.5/2/bw/001.png","","","natural"
"","","","","","animation","126","786886","0.0-126.0","1920x1080","","2741.800000011921","0","img/117/2.5/1/bw/001.png","","","natural"
"","","","","","animation","127","791534","0.0-127.0","1920x1080","","4646.700000047684","42.33","img/314/4/0.66667/bw/001.png","","","natural"
"","","","","","animation","128","795222","0.0-128.0","1920x1080","","3687.300000011921","46.16","img/117/3.5/2/bw/001.png","","","natural"
"","","","","","animation","129","798382","0.0-129.0","1920x1080","","3158.5","57.41","img/314/4.5/0.66667/bw/001.png","","","natural"
"","","","","","animation","130","801670","0.0-130.0","1920x1080","","3287.300000011921","85.05","img/117/5.5/1.5/bw/001.png","","","natural"
"","","","","","animation","131","806360","0.0-131.0","1920x1080","","4688.600000023842","79.23","img/314/4/1.5/bw/001.png","","","natural"
"","","","","","animation","132","809094","0.0-132.0","1920x1080","","2732.5","0","img/117/2.5/0.5/bw/001.png","","","natural"
"","","","","","animation","133","815830","0.0-133.0","1920x1080","","6735.199999988079","26.19","img/314/3.5/1.5/bw/001.png","","","natural"
"","","","","","animation","134","818982","0.0-134.0","1920x1080","","3151.099999964237","35.98","img/314/4/2/bw/001.png","","","natural"
"","","","","","animation","135","824454","0.0-135.0","1920x1080","","5471.5","99","img/238/5.5/1.5/bw/001.png","","","natural"
"","","","","","animation","136","828894","0.0-136.0","1920x1080","","4437.699999988079","100","img/314/5.5/0.5/bw/001.png","","","natural"
"","","","","","animation","137","833934","0.0-137.0","1920x1080","","5039.199999988079","88.76","img/238/5.5/0.66667/bw/001.png","","","natural"
"","","","","","animation","138","837479","0.0-138.0","1920x1080","","3543.800000011921","0","img/314/2.5/2/bw/001.png","","","natural"
"","","","","","animation","139","840334","0.0-139.0","1920x1080","","2853.800000011921","39.15","img/314/4/1/bw/001.png","","","natural"
"","","","","","animation","140","844198","0.0-140.0","1920x1080","","3863.5","50.40","img/238/4/0.5/bw/001.png","","","natural"
"","","","","","animation","141","850745","0.0-141.0","1920x1080","","6545","74.34","img/314/4.5/2/bw/001.png","","","natural"
"","","","","","animation","142","853095","0.0-142.0","1920x1080","","2348.800000011921","0","img/238/2.5/0.66667/bw/001.png","","","natural"
"","","","","","animation","143","861150","0.0-143.0","1920x1080","","8053.700000047684","50","img/117/4/0.66667/bw/001.png","","","natural"
"","","","","","animation","144","866470","0.0-144.0","1920x1080","","5319.099999964237","83.73","img/238/5.5/2/bw/001.png","","","natural"
"","","","","","animation","145","870027","0.0-145.0","1920x1080","","3556.199999988079","26.59","img/314/3.5/0.66667/bw/001.png","","","natural"
"","","","","","animation","146","874110","0.0-146.0","1920x1080","","4082.2999999523163","8.47","img/117/3.5/1/bw/001.png","","","natural"
"","","","","","animation","147","878118","0.0-147.0","1920x1080","","4006.5","63.36","img/238/4.5/0.66667/bw/001.png","","","natural"
"","","","","","animation","148","881318","0.0-148.0","1920x1080","","3199.100000023842","63.36","img/117/4/2/bw/001.png","","","natural"
"","","","","","animation","149","884429","0.0-149.0","1920x1080","","3110.5","0.00","img/117/2.5/0.66667/bw/001.png","","","natural"
"","","","","","animation","150","887486","0.0-150.0","1920x1080","","3055.399999976158","91.27","img/117/5.5/0.5/bw/001.png","","","natural"
"","","","","","animation","151","891045","0.0-151.0","1920x1080","","3558.600000023842","80.29","img/238/4.5/0.5/bw/001.png","","","natural"
"","","","","","animation","152","896382","0.0-152.0","1920x1080","","5335.5","45.24","img/238/4/1.5/bw/001.png","","","natural"
"","","","","","animation","153","899444","0.0-153.0","1920x1080","","3062.800000011921","63.62","img/117/4/0.5/bw/001.png","","","natural"
"","","","","","animation","154","902885","0.0-154.0","1920x1080","","3439.5","0.13","img/238/2.5/0.5/bw/001.png","","","natural"
"","","","","","animation","155","906765","0.0-155.0","1920x1080","","3879.100000023842","97","img/314/5.5/0.66667/bw/001.png","","","natural"
"","","","","","animation","156","909542","0.0-156.0","1920x1080","","2775.899999976158","64.81","img/314/4.5/0.5/bw/001.png","","","natural"
"","","","","","animation","157","912661","0.0-157.0","1920x1080","","3118.599999964237","8.86","img/117/3.5/0.5/bw/001.png","","","natural"
"","","","","","animation","158","916460","0.0-158.0","1920x1080","","3797.599999964237","100","img/314/5.5/1.5/bw/001.png","","","natural"
"","","","","","html-button-response","159","938133","0.0-159.0","1920x1080","","21671.5","","<div class=""intro"">You are about to view a new series of animations.<br><br></div><div class=""intro"">You will evaluate them based on a different descriptor.<br><br></div><div class=""intro"">Move the slider to indicate how <strong style=""text-transform:capitalize"">APPEALING</strong> you find each animation.<br><br></div><div class=""intro"">0 = Least Appealing<br></div><div class=""intro"">1 = Most Appealing<br><br></div><div class=""intro"">Remember to use the <strong><em>entire range</em></strong> of the slider to make your ratings.<br></div><div class=""intro"">Please <strong><em>take your time</em></strong> and carefully consider each rating you make.<br><br></div>","0","",""
"","","","","","call-function","160","938135","0.0-160.0","1920x1080","","","","","","",""
"","","","","","animation","161","941781","0.0-161.0","1920x1080","","3645.399999976158","73.41","img/238/4.5/0.5/bw/001.png","","","appealing"
"","","","","","animation","162","944125","0.0-162.0","1920x1080","","2343.300000011921","30.16","img/117/4/0.5/bw/001.png","","","appealing"
"","","","","","animation","163","946917","0.0-163.0","1920x1080","","2790.100000023842","41.01","img/238/4/1.5/bw/001.png","","","appealing"
"","","","","","animation","164","950360","0.0-164.0","1920x1080","","3442.899999976158","22.62","img/238/4/1/bw/001.png","","","appealing"
"","","","","","animation","165","952996","0.0-165.0","1920x1080","","2635","3.17","img/238/2.5/1.5/bw/001.png","","","appealing"
"","","","","","animation","166","956975","0.0-166.0","1920x1080","","3977.600000023842","20.11","img/117/3.5/1/bw/001.png","","","appealing"
"","","","","","animation","167","960040","0.0-167.0","1920x1080","","3067.900000035763","95","img/117/5.5/1.5/bw/001.png","","","appealing"
"","","","","","animation","168","963205","0.0-168.0","1920x1080","","3164","100","img/314/5.5/1/bw/001.png","","","appealing"
"","","","","","animation","169","967192","0.0-169.0","1920x1080","","3985.699999988079","3.17","img/314/2.5/1.5/bw/001.png","","","appealing"
"","","","","","animation","170","970338","0.0-170.0","1920x1080","","3145.199999988079","49.87","img/117/4/0.66667/bw/001.png","","","appealing"
"","","","","","animation","171","974371","0.0-171.0","1920x1080","","4031.5","5","img/117/2.5/1/bw/001.png","","","appealing"
"","","","","","animation","172","978408","0.0-172.0","1920x1080","","4035.899999976158","1.59","img/314/2.5/0.5/bw/001.png","","","appealing"
"","","","","","animation","173","982221","0.0-173.0","1920x1080","","3812","100","img/238/5.5/1/bw/001.png","","","appealing"
"","","","","","animation","174","987521","0.0-174.0","1920x1080","","5299","94","img/314/5.5/0.5/bw/001.png","","","appealing"
"","","","","","animation","175","992672","0.0-175.0","1920x1080","","5149.699999988079","85.98","img/238/5.5/0.5/bw/001.png","","","appealing"
"","","","","","animation","176","995128","0.0-176.0","1920x1080","","2455.2000000476837","5.82","img/238/2.5/0.66667/bw/001.png","","","appealing"
"","","","","","animation","177","1000024","0.0-177.0","1920x1080","","4894.599999964237","45.50","img/117/4.5/0.66667/bw/001.png","","","appealing"
"","","","","","animation","178","1003648","0.0-178.0","1920x1080","","3623.2000000476837","0","img/117/2.5/0.5/bw/001.png","","","appealing"
"","","","","","animation","179","1006632","0.0-179.0","1920x1080","","2982.699999988079","2.25","img/117/2.5/0.66667/bw/001.png","","","appealing"
"","","","","","animation","180","1012088","0.0-180.0","1920x1080","","5454.699999988079","32","img/117/3.5/1.5/bw/001.png","","","appealing"
"","","","","","animation","181","1015721","0.0-181.0","1920x1080","","3631.899999976158","65.61","img/314/4.5/2/bw/001.png","","","appealing"
"","","","","","animation","182","1021249","0.0-182.0","1920x1080","","5526.199999988079","69.84","img/117/4.5/1/bw/001.png","","","appealing"
"","","","","","animation","183","1023408","0.0-183.0","1920x1080","","2158","5.29","img/117/2.5/2/bw/001.png","","","appealing"
"","","","","","animation","184","1027128","0.0-184.0","1920x1080","","3719.600000023842","23.94","img/238/4/0.5/bw/001.png","","","appealing"
"","","","","","animation","185","1031105","0.0-185.0","1920x1080","","3974.399999976158","60.45","img/238/4.5/1/bw/001.png","","","appealing"
"","","","","","animation","186","1034281","0.0-186.0","1920x1080","","3174.899999976158","48.02","img/117/4/1/bw/001.png","","","appealing"
"","","","","","animation","187","1040065","0.0-187.0","1920x1080","","5782.600000023842","60.85","img/314/4.5/0.66667/bw/001.png","","","appealing"
"","","","","","animation","188","1044664","0.0-188.0","1920x1080","","4598.600000023842","85.32","img/117/4.5/2/bw/001.png","","","appealing"
"","","","","","animation","189","1048922","0.0-189.0","1920x1080","","4256.100000023842","11.90","img/117/3.5/0.66667/bw/001.png","","","appealing"
"","","","","","animation","190","1051944","0.0-190.0","1920x1080","","3021.5","84.26","img/314/4.5/1/bw/001.png","","","appealing"
"","","","","","animation","191","1056312","0.0-191.0","1920x1080","","4366.800000011921","100","img/314/5.5/2/bw/001.png","","","appealing"
"","","","","","animation","192","1059544","0.0-192.0","1920x1080","","3230.800000011921","55.16","img/238/4/0.66667/bw/001.png","","","appealing"
"","","","","","animation","193","1064256","0.0-193.0","1920x1080","","4710.600000023842","99","img/117/5.5/0.66667/bw/001.png","","","appealing"
"","","","","","animation","194","1068608","0.0-194.0","1920x1080","","4350.800000011921","7.14","img/314/3.5/0.66667/bw/001.png","","","appealing"
"","","","","","animation","195","1073424","0.0-195.0","1920x1080","","4815","52","img/314/4/1.5/bw/001.png","","","appealing"
"","","","","","animation","196","1076880","0.0-196.0","1920x1080","","3455.100000023842","100","img/314/5.5/0.66667/bw/001.png","","","appealing"
"","","","","","animation","197","1080434","0.0-197.0","1920x1080","","3556.600000023842","0.00","img/238/2.5/2/bw/001.png","","","appealing"
"","","","","","animation","198","1084140","0.0-198.0","1920x1080","","3704.800000011921","0.13","img/117/2.5/1.5/bw/001.png","","","appealing"
"","","","","","animation","199","1089019","0.0-199.0","1920x1080","","4878.5","0.53","img/314/3.5/1/bw/001.png","","","appealing"
"","","","","","animation","200","1092172","0.0-200.0","1920x1080","","3151.2000000476837","41.53","img/117/4/2/bw/001.png","","","appealing"
"","","","","","animation","201","1100724","0.0-201.0","1920x1080","","8550.800000011921","53.97","img/314/3.5/0.5/bw/001.png","","","appealing"
"","","","","","animation","202","1104940","0.0-202.0","1920x1080","","4214.800000011921","75.40","img/117/4.5/1.5/bw/001.png","","","appealing"
"","","","","","animation","203","1109150","0.0-203.0","1920x1080","","4209.200000047684","48.28","img/117/3.5/2/bw/001.png","","","appealing"
"","","","","","animation","204","1114017","0.0-204.0","1920x1080","","4865.899999976158","76.59","img/314/4.5/1.5/bw/001.png","","","appealing"
"","","","","","animation","205","1120171","0.0-205.0","1920x1080","","6153.199999988079","31.35","img/238/3.5/1.5/bw/001.png","","","appealing"
"","","","","","animation","206","1123540","0.0-206.0","1920x1080","","3367.100000023842","28.44","img/314/4/0.5/bw/001.png","","","appealing"
"","","","","","animation","207","1126035","0.0-207.0","1920x1080","","2494.5","1.32","img/314/2.5/2/bw/001.png","","","appealing"
"","","","","","animation","208","1128734","0.0-208.0","1920x1080","","2697.199999988079","0","img/238/2.5/0.5/bw/001.png","","","appealing"
"","","","","","animation","209","1133851","0.0-209.0","1920x1080","","5116.600000023842","10.32","img/238/3.5/0.66667/bw/001.png","","","appealing"
"","","","","","animation","210","1136683","0.0-210.0","1920x1080","","2830.899999976158","49.21","img/314/4.5/0.5/bw/001.png","","","appealing"
"","","","","","animation","211","1140019","0.0-211.0","1920x1080","","3334.599999964237","96","img/238/5.5/1.5/bw/001.png","","","appealing"
"","","","","","animation","212","1142507","0.0-212.0","1920x1080","","2487.100000023842","56.35","img/314/3.5/2/bw/001.png","","","appealing"
"","","","","","animation","213","1146035","0.0-213.0","1920x1080","","3526.600000023842","100","img/117/5.5/0.5/bw/001.png","","","appealing"
"","","","","","animation","214","1151783","0.0-214.0","1920x1080","","5746.599999964237","100","img/117/5.5/2/bw/001.png","","","appealing"
"","","","","","animation","215","1156366","0.0-215.0","1920x1080","","4582","92.99","img/238/4.5/2/bw/001.png","","","appealing"
"","","","","","animation","216","1159867","0.0-216.0","1920x1080","","3499.300000011921","73.54","img/314/4/1/bw/001.png","","","appealing"
"","","","","","animation","217","1163416","0.0-217.0","1920x1080","","3548","40.08","img/238/4.5/0.66667/bw/001.png","","","appealing"
"","","","","","animation","218","1167019","0.0-218.0","1920x1080","","3601.400000035763","35.05","img/314/4/0.66667/bw/001.png","","","appealing"
"","","","","","animation","219","1178967","0.0-219.0","1920x1080","","11946.5","99","img/117/5.5/1/bw/001.png","","","appealing"
"","","","","","animation","220","1182891","0.0-220.0","1920x1080","","3923.800000011921","94.97","img/238/5.5/2/bw/001.png","","","appealing"
"","","","","","animation","221","1190334","0.0-221.0","1920x1080","","7441.099999964237","90.08","img/238/5.5/0.66667/bw/001.png","","","appealing"
"","","","","","animation","222","1195167","0.0-222.0","1920x1080","","4832.099999964237","35","img/238/3.5/2/bw/001.png","","","appealing"
"","","","","","animation","223","1198417","0.0-223.0","1920x1080","","3249","0","img/238/2.5/1/bw/001.png","","","appealing"
"","","","","","animation","224","1203889","0.0-224.0","1920x1080","","5473.200000047684","79","img/238/4.5/1.5/bw/001.png","","","appealing"
"","","","","","animation","225","1206632","0.0-225.0","1920x1080","","2742.199999988079","66.40","img/238/4/2/bw/001.png","","","appealing"
"","","","","","animation","226","1210415","0.0-226.0","1920x1080","","3781.800000011921","100","img/314/5.5/1.5/bw/001.png","","","appealing"
"","","","","","animation","227","1213521","0.0-227.0","1920x1080","","3104.300000011921","30.69","img/238/3.5/0.5/bw/001.png","","","appealing"
"","","","","","animation","228","1218032","0.0-228.0","1920x1080","","4510.5","0.13","img/314/2.5/0.66667/bw/001.png","","","appealing"
"","","","","","animation","229","1221120","0.0-229.0","1920x1080","","3087.2000000476837","61.51","img/117/4.5/0.5/bw/001.png","","","appealing"
"","","","","","animation","230","1223997","0.0-230.0","1920x1080","","2875.399999976158","31.22","img/238/3.5/1/bw/001.png","","","appealing"
"","","","","","animation","231","1229264","0.0-231.0","1920x1080","","5265.700000047684","49.60","img/117/4/1.5/bw/001.png","","","appealing"
"","","","","","animation","232","1235553","0.0-232.0","1920x1080","","6287.5","12.83","img/117/3.5/0.5/bw/001.png","","","appealing"
"","","","","","animation","233","1239321","0.0-233.0","1920x1080","","3766.699999988079","32.54","img/314/3.5/1.5/bw/001.png","","","appealing"
"","","","","","animation","234","1242657","0.0-234.0","1920x1080","","3335","41.14","img/314/4/2/bw/001.png","","","appealing"
"","","","","","animation","235","1245857","0.0-235.0","1920x1080","","3198.899999976158","0.13","img/314/2.5/1/bw/001.png","","","appealing"
"","","","","","html-button-response","236","1264253","0.0-236.0","1920x1080","","18389","","<div class=""intro"">You are about to view a new series of animations.<br><br></div><div class=""intro"">You will evaluate them based on a different descriptor.<br><br></div><div class=""intro"">Move the slider to indicate how <strong style=""text-transform:capitalize"">RELAXING</strong> you find each animation.<br><br></div><div class=""intro"">0 = Least Relaxing<br></div><div class=""intro"">1 = Most Relaxing<br><br></div><div class=""intro"">Remember to use the <strong><em>entire range</em></strong> of the slider to make your ratings.<br></div><div class=""intro"">Please <strong><em>take your time</em></strong> and carefully consider each rating you make.<br><br></div>","0","",""
"","","","","","call-function","237","1264255","0.0-237.0","1920x1080","","","","","","",""
"","","","","","animation","238","1270636","0.0-238.0","1920x1080","","6381.100000023842","86.51","img/238/5.5/1/bw/001.png","","","relaxing"
"","","","","","animation","239","1275878","0.0-239.0","1920x1080","","5240.600000023842","17","img/117/4/0.66667/bw/001.png","","","relaxing"
"","","","","","animation","240","1278190","0.0-240.0","1920x1080","","2311.100000023842","6.35","img/238/3.5/0.66667/bw/001.png","","","relaxing"
"","","","","","animation","241","1281319","0.0-241.0","1920x1080","","3127.5","6.35","img/314/3.5/0.5/bw/001.png","","","relaxing"
"","","","","","animation","242","1285263","0.0-242.0","1920x1080","","3941.899999976158","100","img/238/5.5/1.5/bw/001.png","","","relaxing"
"","","","","","animation","243","1289254","0.0-243.0","1920x1080","","3990.2000000476837","74.07","img/238/4.5/1.5/bw/001.png","","","relaxing"
"","","","","","animation","244","1294190","0.0-244.0","1920x1080","","4935","3","img/238/3.5/0.5/bw/001.png","","","relaxing"
"","","","","","animation","245","1299920","0.0-245.0","1920x1080","","5728.300000011921","88.36","img/117/4.5/2/bw/001.png","","","relaxing"
"","","","","","animation","246","1305003","0.0-246.0","1920x1080","","5081.399999976158","15","img/314/3.5/0.66667/bw/001.png","","","relaxing"
"","","","","","animation","247","1308742","0.0-247.0","1920x1080","","3738.300000011921","32.41","img/238/4.5/1/bw/001.png","","","relaxing"
"","","","","","animation","248","1315990","0.0-248.0","1920x1080","","7246.699999988079","34.52","img/238/4/1.5/bw/001.png","","","relaxing"
"","","","","","animation","249","1320747","0.0-249.0","1920x1080","","4761.400000035763","92.20","img/238/5.5/0.66667/bw/001.png","","","relaxing"
"","","","","","animation","250","1324536","0.0-250.0","1920x1080","","3787.900000035763","36.11","img/238/4.5/0.5/bw/001.png","","","relaxing"
"","","","","","animation","251","1329080","0.0-251.0","1920x1080","","4542.899999976158","0","img/117/2.5/0.66667/bw/001.png","","","relaxing"
"","","","","","animation","252","1333381","0.0-252.0","1920x1080","","4298.799999952316","4.63","img/117/2.5/2/bw/001.png","","","relaxing"
"","","","","","animation","253","1337331","0.0-253.0","1920x1080","","3948.5","1.98","img/314/3.5/1.5/bw/001.png","","","relaxing"
"","","","","","animation","254","1341897","0.0-254.0","1920x1080","","4565","86.51","img/117/5.5/0.5/bw/001.png","","","relaxing"
"","","","","","animation","255","1346104","0.0-255.0","1920x1080","","4205.600000023842","10.32","img/314/3.5/2/bw/001.png","","","relaxing"
"","","","","","animation","256","1350616","0.0-256.0","1920x1080","","4510.599999964237","18.78","img/314/3.5/1/bw/001.png","","","relaxing"
"","","","","","animation","257","1355056","0.0-257.0","1920x1080","","4438.899999976158","62.43","img/238/4.5/0.66667/bw/001.png","","","relaxing"
"","","","","","animation","258","1358104","0.0-258.0","1920x1080","","3047","0","img/314/2.5/0.5/bw/001.png","","","relaxing"
"","","","","","animation","259","1363432","0.0-259.0","1920x1080","","5326.300000011921","12","img/314/4/1/bw/001.png","","","relaxing"
"","","","","","animation","260","1366984","0.0-260.0","1920x1080","","3551","44.84","img/117/4.5/1.5/bw/001.png","","","relaxing"
"","","","","","animation","261","1371016","0.0-261.0","1920x1080","","4030.400000035763","19.18","img/117/3.5/1.5/bw/001.png","","","relaxing"
"","","","","","animation","262","1376768","0.0-262.0","1920x1080","","5751.200000047684","100","img/314/5.5/0.66667/bw/001.png","","","relaxing"
"","","","","","animation","263","1379271","0.0-263.0","1920x1080","","2502.800000011921","0.79","img/117/2.5/1.5/bw/001.png","","","relaxing"
"","","","","","animation","264","1383013","0.0-264.0","1920x1080","","3739.7999999523163","71.30","img/314/4.5/1.5/bw/001.png","","","relaxing"
"","","","","","animation","265","1385763","0.0-265.0","1920x1080","","2749.099999964237","0","img/238/2.5/1.5/bw/001.png","","","relaxing"
"","","","","","animation","266","1389047","0.0-266.0","1920x1080","","3282.899999976158","20.77","img/238/4/0.5/bw/001.png","","","relaxing"
"","","","","","animation","267","1391596","0.0-267.0","1920x1080","","2547.5","10.98","img/117/4/0.5/bw/001.png","","","relaxing"
"","","","","","animation","268","1394913","0.0-268.0","1920x1080","","3315.800000011921","0.53","img/238/2.5/0.5/bw/001.png","","","relaxing"
"","","","","","animation","269","1402613","0.0-269.0","1920x1080","","7698.5","15.74","img/238/3.5/1.5/bw/001.png","","","relaxing"
"","","","","","animation","270","1405496","0.0-270.0","1920x1080","","2882.300000011921","69.31","img/238/4/1/bw/001.png","","","relaxing"
"","","","","","animation","271","1408463","0.0-271.0","1920x1080","","2965.800000011921","58.60","img/238/3.5/2/bw/001.png","","","relaxing"
"","","","","","animation","272","1415180","0.0-272.0","1920x1080","","6715.800000011921","0","img/238/2.5/1/bw/001.png","","","relaxing"
"","","","","","animation","273","1420999","0.0-273.0","1920x1080","","5817.099999964237","72.22","img/117/4/2/bw/001.png","","","relaxing"
"","","","","","animation","274","1425680","0.0-274.0","1920x1080","","4679.5","13.23","img/117/3.5/1/bw/001.png","","","relaxing"
"","","","","","animation","275","1429383","0.0-275.0","1920x1080","","3702.300000011921","70.50","img/314/4.5/2/bw/001.png","","","relaxing"
"","","","","","animation","276","1433719","0.0-276.0","1920x1080","","4334.700000047684","100","img/238/5.5/2/bw/001.png","","","relaxing"
"","","","","","animation","277","1439561","0.0-277.0","1920x1080","","5841.900000035763","90.34","img/314/5.5/0.5/bw/001.png","","","relaxing"
"","","","","","animation","278","1444394","0.0-278.0","1920x1080","","4832.100000023842","89.68","img/238/5.5/0.5/bw/001.png","","","relaxing"
"","","","","","animation","279","1450301","0.0-279.0","1920x1080","","5905.700000047684","99","img/117/5.5/1.5/bw/001.png","","","relaxing"
"","","","","","animation","280","1454228","0.0-280.0","1920x1080","","3924.5","7.41","img/238/3.5/1/bw/001.png","","","relaxing"
"","","","","","animation","281","1458661","0.0-281.0","1920x1080","","4432.099999964237","0.40","img/314/2.5/1/bw/001.png","","","relaxing"
"","","","","","animation","282","1462128","0.0-282.0","1920x1080","","3465.600000023842","28.17","img/314/4/0.5/bw/001.png","","","relaxing"
"","","","","","animation","283","1466328","0.0-283.0","1920x1080","","4198.5","72.62","img/238/4/2/bw/001.png","","","relaxing"
"","","","","","animation","284","1469094","0.0-284.0","1920x1080","","2765.5","0","img/117/2.5/1/bw/001.png","","","relaxing"
"","","","","","animation","285","1472095","0.0-285.0","1920x1080","","2999.2000000476837","0.53","img/314/2.5/0.66667/bw/001.png","","","relaxing"
"","","","","","animation","286","1476311","0.0-286.0","1920x1080","","4214.199999988079","81.48","img/117/5.5/1/bw/001.png","","","relaxing"
"","","","","","animation","287","1480394","0.0-287.0","1920x1080","","4081.699999988079","71.56","img/314/4/2/bw/001.png","","","relaxing"
"","","","","","animation","288","1484349","0.0-288.0","1920x1080","","3953.900000035763","55.03","img/238/4/0.66667/bw/001.png","","","relaxing"
"","","","","","animation","289","1488811","0.0-289.0","1920x1080","","4460.100000023842","0","img/314/2.5/1.5/bw/001.png","","","relaxing"
"","","","","","animation","290","1493844","0.0-290.0","1920x1080","","5032.399999976158","5.95","img/117/3.5/0.66667/bw/001.png","","","relaxing"
"","","","","","animation","291","1497878","0.0-291.0","1920x1080","","4031.800000011921","0.40","img/238/2.5/0.66667/bw/001.png","","","relaxing"
"","","","","","animation","292","1506885","0.0-292.0","1920x1080","","9006.100000023842","67.20","img/117/4.5/0.66667/bw/001.png","","","relaxing"
"","","","","","animation","293","1509749","0.0-293.0","1920x1080","","2862.600000023842","0","img/238/2.5/2/bw/001.png","","","relaxing"
"","","","","","animation","294","1513031","0.0-294.0","1920x1080","","3280.600000023842","44","img/314/4/0.66667/bw/001.png","","","relaxing"
"","","","","","animation","295","1516461","0.0-295.0","1920x1080","","3428.199999988079","63.36","img/314/4.5/1/bw/001.png","","","relaxing"
"","","","","","animation","296","1518845","0.0-296.0","1920x1080","","2382.5","74.07","img/314/4.5/0.5/bw/001.png","","","relaxing"
"","","","","","animation","297","1522028","0.0-297.0","1920x1080","","3181.800000011921","52.91","img/314/4/1.5/bw/001.png","","","relaxing"
"","","","","","animation","298","1525861","0.0-298.0","1920x1080","","3831.900000035763","89.02","img/314/5.5/1.5/bw/001.png","","","relaxing"
"","","","","","animation","299","1529101","0.0-299.0","1920x1080","","3238.7999999523163","57.01","img/117/4/1.5/bw/001.png","","","relaxing"
"","","","","","animation","300","1534461","0.0-300.0","1920x1080","","5358.799999952316","69","img/314/4.5/0.66667/bw/001.png","","","relaxing"
"","","","","","animation","301","1538013","0.0-301.0","1920x1080","","3550.5","100","img/314/5.5/1/bw/001.png","","","relaxing"
"","","","","","animation","302","1541165","0.0-302.0","1920x1080","","3150.899999976158","100","img/314/5.5/2/bw/001.png","","","relaxing"
"","","","","","animation","303","1545349","0.0-303.0","1920x1080","","4182.300000011921","47.22","img/117/3.5/2/bw/001.png","","","relaxing"
"","","","","","animation","304","1552333","0.0-304.0","1920x1080","","6982.5","86","img/117/5.5/0.66667/bw/001.png","","","relaxing"
"","","","","","animation","305","1555561","0.0-305.0","1920x1080","","3223.699999988079","0.79","img/314/2.5/2/bw/001.png","","","relaxing"
"","","","","","animation","306","1558797","0.0-306.0","1920x1080","","3233.899999976158","0","img/117/2.5/0.5/bw/001.png","","","relaxing"
"","","","","","animation","307","1568519","0.0-307.0","1920x1080","","9719","100","img/117/5.5/2/bw/001.png","","","relaxing"
"","","","","","animation","308","1574262","0.0-308.0","1920x1080","","5742.5","53.84","img/117/4.5/0.5/bw/001.png","","","relaxing"
"","","","","","animation","309","1577750","0.0-309.0","1920x1080","","3486.899999976158","72.88","img/238/4.5/2/bw/001.png","","","relaxing"
"","","","","","animation","310","1581697","0.0-310.0","1920x1080","","3945.399999976158","34.26","img/117/4.5/1/bw/001.png","","","relaxing"
"","","","","","animation","311","1584846","0.0-311.0","1920x1080","","3148","0.93","img/117/3.5/0.5/bw/001.png","","","relaxing"
"","","","","","animation","312","1591634","0.0-312.0","1920x1080","","6786.300000011921","9.13","img/117/4/1/bw/001.png","","","relaxing"
"","","","","","html-button-response","313","1614119","0.0-313.0","1920x1080","","22451.900000035763","","<div class=""intro"">You are about to view a new series of animations.<br><br></div><div class=""intro"">You will evaluate them based on a different descriptor.<br><br></div><div class=""intro"">Move the slider to indicate how <strong style=""text-transform:capitalize"">INTERESTING</strong> you find each animation.<br><br></div><div class=""intro"">0 = Least Interesting<br></div><div class=""intro"">1 = Most Interesting<br><br></div><div class=""intro"">Remember to use the <strong><em>entire range</em></strong> of the slider to make your ratings.<br></div><div class=""intro"">Please <strong><em>take your time</em></strong> and carefully consider each rating you make.<br><br></div>","0","",""
"","","","","","call-function","314","1614122","0.0-314.0","1920x1080","","","","","","",""
"","","","","","animation","315","1617982","0.0-315.0","1920x1080","","3859.699999988079","79.50","img/117/4/2/bw/001.png","","","interesting"
"","","","","","animation","316","1622214","0.0-316.0","1920x1080","","4230.600000023842","78.84","img/238/4.5/1.5/bw/001.png","","","interesting"
"","","","","","animation","317","1628962","0.0-317.0","1920x1080","","6746.699999988079","80","img/117/5.5/2/bw/001.png","","","interesting"
"","","","","","animation","318","1632030","0.0-318.0","1920x1080","","3066.5","69.58","img/314/4/2/bw/001.png","","","interesting"
"","","","","","animation","319","1635162","0.0-319.0","1920x1080","","3130.699999988079","25.00","img/314/4/0.66667/bw/001.png","","","interesting"
"","","","","","animation","320","1638702","0.0-320.0","1920x1080","","3538.899999976158","62.43","img/238/4/0.5/bw/001.png","","","interesting"
"","","","","","animation","321","1641319","0.0-321.0","1920x1080","","2614.900000035763","7.14","img/117/3.5/1/bw/001.png","","","interesting"
"","","","","","animation","322","1646846","0.0-322.0","1920x1080","","5526.300000011921","54","img/314/4/1.5/bw/001.png","","","interesting"
"","","","","","animation","323","1650014","0.0-323.0","1920x1080","","3166.7000000476837","0.40","img/314/2.5/1/bw/001.png","","","interesting"
"","","","","","animation","324","1652903","0.0-324.0","1920x1080","","2886.600000023842","79.37","img/238/4.5/2/bw/001.png","","","interesting"
"","","","","","animation","325","1656235","0.0-325.0","1920x1080","","3330.800000011921","0.93","img/117/2.5/2/bw/001.png","","","interesting"
"","","","","","animation","326","1660229","0.0-326.0","1920x1080","","3992.800000011921","0.40","img/117/2.5/1.5/bw/001.png","","","interesting"
"","","","","","animation","327","1666303","0.0-327.0","1920x1080","","6071.600000023842","62.70","img/314/5.5/2/bw/001.png","","","interesting"
"","","","","","animation","328","1669718","0.0-328.0","1920x1080","","3414","84.66","img/314/5.5/1/bw/001.png","","","interesting"
"","","","","","animation","329","1672362","0.0-329.0","1920x1080","","2642.699999988079","0.53","img/238/2.5/1/bw/001.png","","","interesting"
"","","","","","animation","330","1675663","0.0-330.0","1920x1080","","3297.199999988079","92.86","img/238/5.5/1/bw/001.png","","","interesting"
"","","","","","animation","331","1678582","0.0-331.0","1920x1080","","2918.2000000476837","0","img/238/2.5/2/bw/001.png","","","interesting"
"","","","","","animation","332","1682554","0.0-332.0","1920x1080","","3961.800000011921","94.05","img/238/5.5/1.5/bw/001.png","","","interesting"
"","","","","","animation","333","1686710","0.0-333.0","1920x1080","","4154.200000047684","77.51","img/117/4/1.5/bw/001.png","","","interesting"
"","","","","","animation","334","1690230","0.0-334.0","1920x1080","","3518.300000011921","49.87","img/314/4.5/0.66667/bw/001.png","","","interesting"
"","","","","","animation","335","1694137","0.0-335.0","1920x1080","","3906","55.95","img/238/4/0.66667/bw/001.png","","","interesting"
"","","","","","animation","336","1696861","0.0-336.0","1920x1080","","2722.600000023842","0","img/238/2.5/0.5/bw/001.png","","","interesting"
"","","","","","animation","337","1699370","0.0-337.0","1920x1080","","2507.800000011921","49.07","img/314/4.5/1.5/bw/001.png","","","interesting"
"","","","","","animation","338","1702142","0.0-338.0","1920x1080","","2770.400000035763","69.84","img/238/5.5/0.5/bw/001.png","","","interesting"
"","","","","","animation","339","1706670","0.0-339.0","1920x1080","","4526.699999988079","32.94","img/238/3.5/1/bw/001.png","","","interesting"
"","","","","","animation","340","1709563","0.0-340.0","1920x1080","","2891.699999988079","0","img/238/2.5/1.5/bw/001.png","","","interesting"
"","","","","","animation","341","1716153","0.0-341.0","1920x1080","","6588.800000011921","87.04","img/238/5.5/2/bw/001.png","","","interesting"
"","","","","","animation","342","1718790","0.0-342.0","1920x1080","","2634.899999976158","63.62","img/314/4.5/1/bw/001.png","","","interesting"
"","","","","","animation","343","1721854","0.0-343.0","1920x1080","","3062.5","20.11","img/314/3.5/0.5/bw/001.png","","","interesting"
"","","","","","animation","344","1726192","0.0-344.0","1920x1080","","4337","24.74","img/117/4/1/bw/001.png","","","interesting"
"","","","","","animation","345","1729536","0.0-345.0","1920x1080","","3342.399999976158","58.20","img/117/3.5/1.5/bw/001.png","","","interesting"
"","","","","","animation","346","1734359","0.0-346.0","1920x1080","","4821.699999988079","96","img/117/5.5/1.5/bw/001.png","","","interesting"
"","","","","","animation","347","1737120","0.0-347.0","1920x1080","","2758.300000011921","96","img/238/4.5/0.66667/bw/001.png","","","interesting"
"","","","","","animation","348","1739688","0.0-348.0","1920x1080","","2566","77.25","img/314/4.5/2/bw/001.png","","","interesting"
"","","","","","animation","349","1743754","0.0-349.0","1920x1080","","4064.5","66.40","img/238/3.5/2/bw/001.png","","","interesting"
"","","","","","animation","350","1747387","0.0-350.0","1920x1080","","3632.300000011921","60.85","img/314/3.5/1.5/bw/001.png","","","interesting"
"","","","","","animation","351","1751844","0.0-351.0","1920x1080","","4455.600000023842","76","img/314/4/1/bw/001.png","","","interesting"
"","","","","","animation","352","1755238","0.0-352.0","1920x1080","","3392.600000023842","57.28","img/117/4/0.5/bw/001.png","","","interesting"
"","","","","","animation","353","1757490","0.0-353.0","1920x1080","","2250.699999988079","0.79","img/314/2.5/0.66667/bw/001.png","","","interesting"
"","","","","","animation","354","1760990","0.0-354.0","1920x1080","","3498.300000011921","11.51","img/117/3.5/0.5/bw/001.png","","","interesting"
"","","","","","animation","355","1770358","0.0-355.0","1920x1080","","9367.100000023842","20.37","img/117/3.5/0.66667/bw/001.png","","","interesting"
"","","","","","animation","356","1772854","0.0-356.0","1920x1080","","2494.300000011921","73.54","img/314/4/0.5/bw/001.png","","","interesting"
"","","","","","animation","357","1775662","0.0-357.0","1920x1080","","2806.600000023842","87.96","img/238/4.5/0.5/bw/001.png","","","interesting"
"","","","","","animation","358","1779159","0.0-358.0","1920x1080","","3495.600000023842","78.31","img/238/4/2/bw/001.png","","","interesting"
"","","","","","animation","359","1782342","0.0-359.0","1920x1080","","3181.7000000476837","98","img/238/5.5/0.66667/bw/001.png","","","interesting"
"","","","","","animation","360","1787206","0.0-360.0","1920x1080","","4862.199999988079","0.79","img/117/2.5/0.5/bw/001.png","","","interesting"
"","","","","","animation","361","1801038","0.0-361.0","1920x1080","","13829.5","85.19","img/117/5.5/1/bw/001.png","","","interesting"
"","","","","","animation","362","1803559","0.0-362.0","1920x1080","","2517.899999976158","62.83","img/238/4.5/1/bw/001.png","","","interesting"
"","","","","","animation","363","1806393","0.0-363.0","1920x1080","","2833.300000011921","10.19","img/117/3.5/2/bw/001.png","","","interesting"
"","","","","","animation","364","1809002","0.0-364.0","1920x1080","","2607.100000023842","0.53","img/238/2.5/0.66667/bw/001.png","","","interesting"
"","","","","","animation","365","1811904","0.0-365.0","1920x1080","","2901.100000023842","16.27","img/238/3.5/0.66667/bw/001.png","","","interesting"
"","","","","","animation","366","1814263","0.0-366.0","1920x1080","","2357","43.78","img/238/4/1.5/bw/001.png","","","interesting"
"","","","","","animation","367","1817555","0.0-367.0","1920x1080","","3290.899999976158","98","img/314/5.5/0.66667/bw/001.png","","","interesting"
"","","","","","animation","368","1821559","0.0-368.0","1920x1080","","4002.5","100","img/314/5.5/1.5/bw/001.png","","","interesting"
"","","","","","animation","369","1824721","0.0-369.0","1920x1080","","3160","14.15","img/314/3.5/0.66667/bw/001.png","","","interesting"
"","","","","","animation","370","1827434","0.0-370.0","1920x1080","","2712.199999988079","0.40","img/117/2.5/0.66667/bw/001.png","","","interesting"
"","","","","","animation","371","1831170","0.0-371.0","1920x1080","","3734.900000035763","46.83","img/117/4.5/0.5/bw/001.png","","","interesting"
"","","","","","animation","372","1836813","0.0-372.0","1920x1080","","5641.600000023842","81.48","img/117/5.5/0.66667/bw/001.png","","","interesting"
"","","","","","animation","373","1839313","0.0-373.0","1920x1080","","2497.800000011921","55.95","img/117/4.5/0.66667/bw/001.png","","","interesting"
"","","","","","animation","374","1845542","0.0-374.0","1920x1080","","6228.099999964237","51","img/314/3.5/2/bw/001.png","","","interesting"
"","","","","","animation","375","1849459","0.0-375.0","1920x1080","","3914.800000011921","39.55","img/117/4/0.66667/bw/001.png","","","interesting"
"","","","","","animation","376","1853324","0.0-376.0","1920x1080","","3863.699999988079","22.22","img/238/3.5/0.5/bw/001.png","","","interesting"
"","","","","","animation","377","1856421","0.0-377.0","1920x1080","","3095","72.35","img/238/3.5/1.5/bw/001.png","","","interesting"
"","","","","","animation","378","1859261","0.0-378.0","1920x1080","","2851.099999964237","0.00","img/314/2.5/1.5/bw/001.png","","","interesting"
"","","","","","animation","379","1861709","0.0-379.0","1920x1080","","2445.900000035763","2.12","img/314/2.5/0.5/bw/001.png","","","interesting"
"","","","","","animation","380","1864462","0.0-380.0","1920x1080","","2752.599999964237","67.46","img/117/5.5/0.5/bw/001.png","","","interesting"
"","","","","","animation","381","1867492","0.0-381.0","1920x1080","","3028.2999999523163","78.70","img/117/4.5/1.5/bw/001.png","","","interesting"
"","","","","","animation","382","1870642","0.0-382.0","1920x1080","","3149.399999976158","0.40","img/117/2.5/1/bw/001.png","","","interesting"
"","","","","","animation","383","1877996","0.0-383.0","1920x1080","","7351.699999988079","8.86","img/314/3.5/1/bw/001.png","","","interesting"
"","","","","","animation","384","1881977","0.0-384.0","1920x1080","","3980.399999976158","0.00","img/314/2.5/2/bw/001.png","","","interesting"
"","","","","","animation","385","1885762","0.0-385.0","1920x1080","","3782.900000035763","70.37","img/238/4/1/bw/001.png","","","interesting"
"","","","","","animation","386","1890562","0.0-386.0","1920x1080","","4798.300000011921","100","img/314/5.5/0.5/bw/001.png","","","interesting"
"","","","","","animation","387","1894031","0.0-387.0","1920x1080","","3466.400000035763","64.68","img/314/4.5/0.5/bw/001.png","","","interesting"
"","","","","","animation","388","1897426","0.0-388.0","1920x1080","","3394","77.38","img/117/4.5/1/bw/001.png","","","interesting"
"","","","","","animation","389","1903309","0.0-389.0","1920x1080","","5881.200000047684","80.82","img/117/4.5/2/bw/001.png","","","interesting"
"","","","","","html-button-response","390","1944406","0.0-390.0","1920x1080","","41083.59999996424","","<strong>Study Debriefing</strong><br><p class=""debrief""><strong>Background:</strong> The patterns you rated are called <em>fractals</em>. The term fractal describes a class of irregular curves or shapes for which any suitably chosen part is similar in shape to a given larger or smaller part when magnified or reduced to the same size. Fractal properties are found throughout the natural and manmade world. The series of animations you saw today displayed animated fractal patterns of a varying complexity.</p><p class=""debrief""><strong>Purpose of this study:</strong> We hope to better understand how the perception of static fractals differs from the perception of animated fractals, and how the speed of the animated patterns influences people&apos;s perception of them. Fractals allow us to study the perception of aesthetic properties (e.g. the perceived level of beauty in an image) without using recognizable content, which makes them an excellent tool for studying abstract aesthetic judgement.</p><p class=""debrief""><strong>Your part:</strong> Your participation has helped us to further understand how humans perceive these patterns across different levels of speed and complexity. This research with allow us to better understand how the visual system and brain process our ever-changing visual environments.<p class=""debrief""><strong>Feedback and Further information:</strong> If you have additional questions about this study, please feel free to ask the researcher, Nathan Gonzales-Hess at nhess @ uoregon.edu. If you have any questions concerning your rights as a research participant, please contact Research Compliance Services, 5237 University of Oregon, Eugene, OR 97403, 541-346-2510, or email researchCompliance @ uoregon.edu. You can also email the Human Subjects Coordinator for psychology and linguistics research at hscoord @ uoregon.edu. ","0","",""
"","","","","","html-button-response","391","1947720","0.0-391.0","1920x1080","","3309.900000035763","","Thank you for participating in this study. <br>Please click below to finish the experiment and submit your responses.<br><br>","0","",""
"true","","","","","fullscreen","392","1948727","0.0-392.0","1920x1080","11:28 17/10/2022","","","","","",""
