"success","timeout","failed_images","failed_audio","failed_video","trial_type","trial_index","time_elapsed","internal_node_id","resolution","timeStamp","rt","response","stimulus","button_pressed","value","descriptor"
"true","false","[]","[]","[]","preload","0","5976","0.0-0.0","1920x1080","","","","","","",""
"true","false","[]","[]","[]","preload","1","12127","0.0-1.0","1920x1080","","","","","","",""
"true","false","[]","[]","[]","preload","2","18048","0.0-2.0","1920x1080","","","","","","",""
"true","","","","","fullscreen","3","214255","0.0-3.0","1920x1080","11:26 3/11/2022","","","","","",""
"","","","","","survey-html-form","4","221493","0.0-4.0","1920x1080","","7235.399999991059","{""age"":""18"",""gender"":""female""}","","","",""
"","","","","","html-button-response","5","276933","0.0-5.0","1920x1080","","55439","","<div class=""complex"">You are going to see a series of animations.<br><br></div><div class=""complex"">Move the slider to indicate how <strong style=""text-transform:capitalize"">COMPLEX</strong> you find each animation.<br><br></div><div class=""complex"">0 = Least Complex<br></div><div class=""complex"">1 = Most Complex<br><br></div><div class=""complex"">Remember to use the <strong><em>entire range</em></strong> of the slider to make your ratings.<br></div><div class=""complex"">Please <strong><em>take your time</em></strong> and carefully consider each rating you make.<br><br></div><div class=""complex"">The study has five sections and will take about 45 minutes to complete.<br><br></div>","0","",""
"","","","","","call-function","6","276933","0.0-6.0","1920x1080","","","","","","",""
"","","","","","animation","7","314908","0.0-7.0","1920x1080","","37972.40000000596","64.02","img/117/4/1.5/bw/001.png","","","complex"
"","","","","","animation","8","320988","0.0-8.0","1920x1080","","6077.899999991059","27.38","img/314/5.5/0.66667/bw/001.png","","","complex"
"","","","","","animation","9","326891","0.0-9.0","1920x1080","","5903.20000000298","80.29","img/117/2.5/0.66667/bw/001.png","","","complex"
"","","","","","animation","10","349701","0.0-10.0","1920x1080","","22808.19999998808","60.58","img/238/5.5/1.5/bw/001.png","","","complex"
"","","","","","animation","11","355628","0.0-11.0","1920x1080","","5926.199999988079","64.02","img/117/4/0.66667/bw/001.png","","","complex"
"","","","","","animation","12","361485","0.0-12.0","1920x1080","","5855.79999999702","45.90","img/238/4.5/0.5/bw/001.png","","","complex"
"","","","","","animation","13","371909","0.0-13.0","1920x1080","","10423.10000000894","82.80","img/238/2.5/0.66667/bw/001.png","","","complex"
"","","","","","animation","14","378845","0.0-14.0","1920x1080","","6935.4000000059605","50.53","img/238/5.5/0.66667/bw/001.png","","","complex"
"","","","","","animation","15","388052","0.0-15.0","1920x1080","","9206.79999999702","73.54","img/117/3.5/2/bw/001.png","","","complex"
"","","","","","animation","16","403509","0.0-16.0","1920x1080","","15455.5","73.15","img/314/3.5/1/bw/001.png","","","complex"
"","","","","","animation","17","421693","0.0-17.0","1920x1080","","18182.80000001192","56.35","img/117/4/2/bw/001.png","","","complex"
"","","","","","animation","18","425909","0.0-18.0","1920x1080","","4215","74.47","img/117/3.5/1/bw/001.png","","","complex"
"","","","","","animation","19","435533","0.0-19.0","1920x1080","","9623.300000011921","71.30","img/314/3.5/1.5/bw/001.png","","","complex"
"","","","","","animation","20","458596","0.0-20.0","1920x1080","","23063","69.97","img/314/4/1.5/bw/001.png","","","complex"
"","","","","","animation","21","469524","0.0-21.0","1920x1080","","10927","77.91","img/117/4/0.5/bw/001.png","","","complex"
"","","","","","animation","22","481901","0.0-22.0","1920x1080","","12376.39999999106","60.71","img/238/3.5/1.5/bw/001.png","","","complex"
"","","","","","animation","23","489556","0.0-23.0","1920x1080","","7654.199999988079","21.43","img/314/5.5/1.5/bw/001.png","","","complex"
"","","","","","animation","24","495372","0.0-24.0","1920x1080","","5815","17.33","img/238/5.5/2/bw/001.png","","","complex"
"","","","","","animation","25","499077","0.0-25.0","1920x1080","","3703.5","87.96","img/314/2.5/0.5/bw/001.png","","","complex"
"","","","","","animation","26","505213","0.0-26.0","1920x1080","","6135.100000008941","53.57","img/238/4/1/bw/001.png","","","complex"
"","","","","","animation","27","512877","0.0-27.0","1920x1080","","7663.5","91.53","img/117/2.5/0.5/bw/001.png","","","complex"
"","","","","","animation","28","516597","0.0-28.0","1920x1080","","3719.0999999940395","39.29","img/117/5.5/0.5/bw/001.png","","","complex"
"","","","","","animation","29","527277","0.0-29.0","1920x1080","","10679.10000000894","50.13","img/314/4.5/1.5/bw/001.png","","","complex"
"","","","","","animation","30","530797","0.0-30.0","1920x1080","","3519.5","93.65","img/238/2.5/1.5/bw/001.png","","","complex"
"","","","","","animation","31","533605","0.0-31.0","1920x1080","","2806.699999988079","84.52","img/238/3.5/0.66667/bw/001.png","","","complex"
"","","","","","animation","32","538165","0.0-32.0","1920x1080","","4558.5","55.69","img/314/4.5/2/bw/001.png","","","complex"
"","","","","","animation","33","564221","0.0-33.0","1920x1080","","26054.59999999404","51.98","img/314/4/2/bw/001.png","","","complex"
"","","","","","animation","34","571397","0.0-34.0","1920x1080","","7175.9000000059605","53","img/314/4.5/1/bw/001.png","","","complex"
"","","","","","animation","35","576053","0.0-35.0","1920x1080","","4655","70.24","img/314/4/0.66667/bw/001.png","","","complex"
"","","","","","animation","36","579325","0.0-36.0","1920x1080","","3271","82.28","img/117/3.5/0.66667/bw/001.png","","","complex"
"","","","","","animation","37","611469","0.0-37.0","1920x1080","","32142.79999999702","66.80","img/117/4.5/0.66667/bw/001.png","","","complex"
"","","","","","animation","38","616925","0.0-38.0","1920x1080","","5455.300000011921","97","img/238/2.5/2/bw/001.png","","","complex"
"","","","","","animation","39","624317","0.0-39.0","1920x1080","","7391.199999988079","67","img/238/4/1.5/bw/001.png","","","complex"
"","","","","","animation","40","627701","0.0-40.0","1920x1080","","3383.2999999970198","97","img/117/2.5/1.5/bw/001.png","","","complex"
"","","","","","animation","41","632813","0.0-41.0","1920x1080","","5110.9000000059605","89.02","img/314/3.5/0.5/bw/001.png","","","complex"
"","","","","","animation","42","639140","0.0-42.0","1920x1080","","6326.5999999940395","11.38","img/314/5.5/2/bw/001.png","","","complex"
"","","","","","animation","43","643981","0.0-43.0","1920x1080","","4839.600000008941","64.68","img/117/4/1/bw/001.png","","","complex"
"","","","","","animation","44","648012","0.0-44.0","1920x1080","","4029.5999999940395","91.01","img/238/2.5/0.5/bw/001.png","","","complex"
"","","","","","animation","45","657069","0.0-45.0","1920x1080","","9055.10000000894","34","img/117/5.5/1.5/bw/001.png","","","complex"
"","","","","","animation","46","691973","0.0-46.0","1920x1080","","34903","89.02","img/117/2.5/2/bw/001.png","","","complex"
"","","","","","animation","47","710197","0.0-47.0","1920x1080","","18223.20000000298","59","img/117/4.5/2/bw/001.png","","","complex"
"","","","","","animation","48","716373","0.0-48.0","1920x1080","","6174.800000011921","17","img/314/5.5/1/bw/001.png","","","complex"
"","","","","","animation","49","743614","0.0-49.0","1920x1080","","27239.09999999404","51.32","img/238/4.5/2/bw/001.png","","","complex"
"","","","","","animation","50","758685","0.0-50.0","1920x1080","","15071","58.20","img/117/4.5/1.5/bw/001.png","","","complex"
"","","","","","animation","51","765437","0.0-51.0","1920x1080","","6749.4000000059605","56.88","img/238/4/2/bw/001.png","","","complex"
"","","","","","animation","52","772869","0.0-52.0","1920x1080","","7431.29999999702","66.93","img/314/4/0.5/bw/001.png","","","complex"
"","","","","","animation","53","794751","0.0-53.0","1920x1080","","21881","58.99","img/314/4.5/0.5/bw/001.png","","","complex"
"","","","","","animation","54","797813","0.0-54.0","1920x1080","","3061.4000000059605","74.60","img/238/3.5/1/bw/001.png","","","complex"
"","","","","","animation","55","812118","0.0-55.0","1920x1080","","14303.59999999404","73.28","img/314/3.5/2/bw/001.png","","","complex"
"","","","","","animation","56","819784","0.0-56.0","1920x1080","","7664.79999999702","74.07","img/238/3.5/2/bw/001.png","","","complex"
"","","","","","animation","57","824326","0.0-57.0","1920x1080","","4540.29999999702","16","img/117/5.5/1/bw/001.png","","","complex"
"","","","","","animation","58","828621","0.0-58.0","1920x1080","","4294.79999999702","11.11","img/238/5.5/0.5/bw/001.png","","","complex"
"","","","","","animation","59","831062","0.0-59.0","1920x1080","","2439.2999999970198","36.64","img/238/4.5/1.5/bw/001.png","","","complex"
"","","","","","animation","60","834774","0.0-60.0","1920x1080","","3711.2000000029802","59","img/238/3.5/0.5/bw/001.png","","","complex"
"","","","","","animation","61","838230","0.0-61.0","1920x1080","","3455.1000000089407","92","img/314/2.5/0.66667/bw/001.png","","","complex"
"","","","","","animation","62","852568","0.0-62.0","1920x1080","","14337.09999999404","16.67","img/117/5.5/2/bw/001.png","","","complex"
"","","","","","animation","63","859574","0.0-63.0","1920x1080","","7005","86","img/238/4.5/0.66667/bw/001.png","","","complex"
"","","","","","animation","64","865102","0.0-64.0","1920x1080","","5526.9000000059605","91","img/238/2.5/1/bw/001.png","","","complex"
"","","","","","animation","65","867984","0.0-65.0","1920x1080","","2881.4000000059605","91.67","img/117/3.5/0.5/bw/001.png","","","complex"
"","","","","","animation","66","872342","0.0-66.0","1920x1080","","4355.70000000298","36.90","img/314/4.5/0.66667/bw/001.png","","","complex"
"","","","","","animation","67","898301","0.0-67.0","1920x1080","","25958.69999998808","51.98","img/238/4.5/1/bw/001.png","","","complex"
"","","","","","animation","68","902053","0.0-68.0","1920x1080","","3749.1000000089407","89.95","img/314/2.5/2/bw/001.png","","","complex"
"","","","","","animation","69","905429","0.0-69.0","1920x1080","","3375.0999999940395","93.65","img/117/2.5/1/bw/001.png","","","complex"
"","","","","","animation","70","911669","0.0-70.0","1920x1080","","6239.100000008941","65","img/314/5.5/0.5/bw/001.png","","","complex"
"","","","","","animation","71","916253","0.0-71.0","1920x1080","","4583.29999999702","89","img/314/2.5/1.5/bw/001.png","","","complex"
"","","","","","animation","72","968693","0.0-72.0","1920x1080","","52439.40000000596","75.00","img/314/4/1/bw/001.png","","","complex"
"","","","","","animation","73","975325","0.0-73.0","1920x1080","","6629","83.33","img/117/3.5/1.5/bw/001.png","","","complex"
"","","","","","animation","74","986989","0.0-74.0","1920x1080","","11662.40000000596","39.29","img/117/5.5/0.66667/bw/001.png","","","complex"
"","","","","","animation","75","1003584","0.0-75.0","1920x1080","","16593.60000000894","96","img/314/2.5/1/bw/001.png","","","complex"
"","","","","","animation","76","1013246","0.0-76.0","1920x1080","","9660.29999999702","23.15","img/238/5.5/1/bw/001.png","","","complex"
"","","","","","animation","77","1025246","0.0-77.0","1920x1080","","11999","58.86","img/117/4.5/0.5/bw/001.png","","","complex"
"","","","","","animation","78","1062142","0.0-78.0","1920x1080","","36894.90000000596","64.55","img/314/3.5/0.66667/bw/001.png","","","complex"
"","","","","","animation","79","1065222","0.0-79.0","1920x1080","","3078.5","68.52","img/238/4/0.66667/bw/001.png","","","complex"
"","","","","","animation","80","1084817","0.0-80.0","1920x1080","","19594.5","66.14","img/117/4.5/1/bw/001.png","","","complex"
"","","","","","animation","81","1096854","0.0-81.0","1920x1080","","12032.699999988079","68.25","img/238/4/0.5/bw/001.png","","","complex"
"","","","","","html-button-response","82","1119438","0.0-82.0","1920x1080","","22583.20000000298","","<div class=""intro"">You are about to view a new series of animations.<br><br></div><div class=""intro"">You will evaluate them based on a different descriptor.<br><br></div><div class=""intro"">Move the slider to indicate how <strong style=""text-transform:capitalize"">RELAXING</strong> you find each animation.<br><br></div><div class=""intro"">0 = Least Relaxing<br></div><div class=""intro"">1 = Most Relaxing<br><br></div><div class=""intro"">Remember to use the <strong><em>entire range</em></strong> of the slider to make your ratings.<br></div><div class=""intro"">Please <strong><em>take your time</em></strong> and carefully consider each rating you make.<br><br></div>","0","",""
"","","","","","call-function","83","1119440","0.0-83.0","1920x1080","","","","","","",""
"","","","","","animation","84","1126477","0.0-84.0","1920x1080","","7036.5999999940395","3.17","img/117/2.5/0.66667/bw/001.png","","","relaxing"
"","","","","","animation","85","1134453","0.0-85.0","1920x1080","","7975","36.51","img/117/4.5/0.5/bw/001.png","","","relaxing"
"","","","","","animation","86","1138233","0.0-86.0","1920x1080","","3778.699999988079","54.37","img/238/4.5/0.66667/bw/001.png","","","relaxing"
"","","","","","animation","87","1141422","0.0-87.0","1920x1080","","3187.7999999970198","39.68","img/238/4/0.66667/bw/001.png","","","relaxing"
"","","","","","animation","88","1144901","0.0-88.0","1920x1080","","3478.9000000059605","48.15","img/238/3.5/2/bw/001.png","","","relaxing"
"","","","","","animation","89","1148390","0.0-89.0","1920x1080","","3487.1000000089407","61.90","img/314/4.5/1/bw/001.png","","","relaxing"
"","","","","","animation","90","1153078","0.0-90.0","1920x1080","","4686.9000000059605","67.06","img/117/4.5/1.5/bw/001.png","","","relaxing"
"","","","","","animation","91","1160878","0.0-91.0","1920x1080","","7799.0999999940395","0","img/117/2.5/1.5/bw/001.png","","","relaxing"
"","","","","","animation","92","1164702","0.0-92.0","1920x1080","","3821.7000000029802","98","img/238/5.5/2/bw/001.png","","","relaxing"
"","","","","","animation","93","1172432","0.0-93.0","1920x1080","","7729.899999991059","1.19","img/117/2.5/2/bw/001.png","","","relaxing"
"","","","","","animation","94","1183078","0.0-94.0","1920x1080","","10644.20000000298","33.33","img/117/3.5/1/bw/001.png","","","relaxing"
"","","","","","animation","95","1190070","0.0-95.0","1920x1080","","6990.600000008941","97","img/238/5.5/0.5/bw/001.png","","","relaxing"
"","","","","","animation","96","1193250","0.0-96.0","1920x1080","","3179.5999999940395","47.88","img/314/4.5/0.66667/bw/001.png","","","relaxing"
"","","","","","animation","97","1196510","0.0-97.0","1920x1080","","3258.7000000029802","37.96","img/117/3.5/1.5/bw/001.png","","","relaxing"
"","","","","","animation","98","1213134","0.0-98.0","1920x1080","","16622.59999999404","56","img/117/4/2/bw/001.png","","","relaxing"
"","","","","","animation","99","1216574","0.0-99.0","1920x1080","","3439.7000000029802","72.49","img/117/5.5/0.66667/bw/001.png","","","relaxing"
"","","","","","animation","100","1220190","0.0-100.0","1920x1080","","3615.2999999970198","28.44","img/117/3.5/0.66667/bw/001.png","","","relaxing"
"","","","","","animation","101","1287902","0.0-101.0","1920x1080","","67710.29999999702","37.57","img/314/2.5/2/bw/001.png","","","relaxing"
"","","","","","animation","102","1306543","0.0-102.0","1920x1080","","18639.60000000894","46.56","img/314/4/1.5/bw/001.png","","","relaxing"
"","","","","","animation","103","1311095","0.0-103.0","1920x1080","","4550.79999999702","52.25","img/238/4.5/1/bw/001.png","","","relaxing"
"","","","","","animation","104","1314839","0.0-104.0","1920x1080","","3742.8999999910593","15.87","img/314/4/1/bw/001.png","","","relaxing"
"","","","","","animation","105","1319455","0.0-105.0","1920x1080","","4614.79999999702","94.18","img/238/5.5/0.66667/bw/001.png","","","relaxing"
"","","","","","animation","106","1324718","0.0-106.0","1920x1080","","5262.5999999940395","49.60","img/117/4.5/2/bw/001.png","","","relaxing"
"","","","","","animation","107","1336883","0.0-107.0","1920x1080","","12162.89999999106","2.25","img/314/4/0.66667/bw/001.png","","","relaxing"
"","","","","","animation","108","1353111","0.0-108.0","1920x1080","","16226.59999999404","1.59","img/238/4/0.5/bw/001.png","","","relaxing"
"","","","","","animation","109","1375694","0.0-109.0","1920x1080","","22583.30000001192","4.23","img/314/3.5/0.5/bw/001.png","","","relaxing"
"","","","","","animation","110","1380702","0.0-110.0","1920x1080","","5006.29999999702","15.74","img/314/3.5/1/bw/001.png","","","relaxing"
"","","","","","animation","111","1413583","0.0-111.0","1920x1080","","32879.5","91.80","img/117/5.5/1.5/bw/001.png","","","relaxing"
"","","","","","animation","112","1417648","0.0-112.0","1920x1080","","4063.7000000029802","5","img/238/3.5/1/bw/001.png","","","relaxing"
"","","","","","animation","113","1422223","0.0-113.0","1920x1080","","4573.5","0","img/314/2.5/1/bw/001.png","","","relaxing"
"","","","","","animation","114","1442999","0.0-114.0","1920x1080","","20775.20000000298","78.70","img/238/4.5/1.5/bw/001.png","","","relaxing"
"","","","","","animation","115","1463648","0.0-115.0","1920x1080","","20648.40000000596","84.13","img/238/5.5/1/bw/001.png","","","relaxing"
"","","","","","animation","116","1470550","0.0-116.0","1920x1080","","6900.9000000059605","18.25","img/117/4.5/1/bw/001.png","","","relaxing"
"","","","","","animation","117","1493882","0.0-117.0","1920x1080","","23330.39999999106","91.53","img/238/4.5/2/bw/001.png","","","relaxing"
"","","","","","animation","118","1526648","0.0-118.0","1920x1080","","32763.70000000298","3.04","img/314/2.5/0.5/bw/001.png","","","relaxing"
"","","","","","animation","119","1533423","0.0-119.0","1920x1080","","6773.70000000298","0","img/238/2.5/0.5/bw/001.png","","","relaxing"
"","","","","","animation","120","1536286","0.0-120.0","1920x1080","","2863","35.05","img/117/4/0.66667/bw/001.png","","","relaxing"
"","","","","","animation","121","1539438","0.0-121.0","1920x1080","","3151.199999988079","49.34","img/117/5.5/0.5/bw/001.png","","","relaxing"
"","","","","","animation","122","1544550","0.0-122.0","1920x1080","","5110.600000008941","4.10","img/314/2.5/1.5/bw/001.png","","","relaxing"
"","","","","","animation","123","1577238","0.0-123.0","1920x1080","","32687.39999999106","17.86","img/314/4/0.5/bw/001.png","","","relaxing"
"","","","","","animation","124","1599518","0.0-124.0","1920x1080","","22278.39999999106","3.70","img/117/2.5/0.5/bw/001.png","","","relaxing"
"","","","","","animation","125","1605175","0.0-125.0","1920x1080","","5655.199999988079","83","img/238/4/2/bw/001.png","","","relaxing"
"","","","","","animation","126","1608615","0.0-126.0","1920x1080","","3438.9000000059605","20.77","img/238/2.5/2/bw/001.png","","","relaxing"
"","","","","","animation","127","1614903","0.0-127.0","1920x1080","","6286.79999999702","18","img/314/3.5/2/bw/001.png","","","relaxing"
"","","","","","animation","128","1623743","0.0-128.0","1920x1080","","8838.90000000596","96","img/314/5.5/1.5/bw/001.png","","","relaxing"
"","","","","","animation","129","1635264","0.0-129.0","1920x1080","","11519.29999999702","25.79","img/117/4/1.5/bw/001.png","","","relaxing"
"","","","","","animation","130","1672775","0.0-130.0","1920x1080","","37509.70000000298","98","img/314/5.5/1/bw/001.png","","","relaxing"
"","","","","","animation","131","1681855","0.0-131.0","1920x1080","","9078.29999999702","17.59","img/117/4.5/0.66667/bw/001.png","","","relaxing"
"","","","","","animation","132","1685751","0.0-132.0","1920x1080","","3894.7999999970198","9.39","img/117/4/1/bw/001.png","","","relaxing"
"","","","","","animation","133","1697899","0.0-133.0","1920x1080","","12146.90000000596","1.72","img/238/2.5/0.66667/bw/001.png","","","relaxing"
"","","","","","animation","134","1722934","0.0-134.0","1920x1080","","25035.10000000894","16.53","img/314/3.5/1.5/bw/001.png","","","relaxing"
"","","","","","animation","135","1751022","0.0-135.0","1920x1080","","28086.60000000894","35.71","img/238/4/1.5/bw/001.png","","","relaxing"
"","","","","","animation","136","1754206","0.0-136.0","1920x1080","","3183.2000000029802","6.61","img/117/3.5/2/bw/001.png","","","relaxing"
"","","","","","animation","137","1757318","0.0-137.0","1920x1080","","3110.5","0","img/314/3.5/0.66667/bw/001.png","","","relaxing"
"","","","","","animation","138","1760464","0.0-138.0","1920x1080","","3145.3999999910593","25.53","img/314/4.5/0.5/bw/001.png","","","relaxing"
"","","","","","animation","139","1765590","0.0-139.0","1920x1080","","5124.899999991059","95","img/314/5.5/0.66667/bw/001.png","","","relaxing"
"","","","","","animation","140","1815870","0.0-140.0","1920x1080","","50278.40000000596","27.12","img/314/4.5/2/bw/001.png","","","relaxing"
"","","","","","animation","141","1820563","0.0-141.0","1920x1080","","4691.5","16.67","img/238/4/1/bw/001.png","","","relaxing"
"","","","","","animation","142","1823246","0.0-142.0","1920x1080","","2682.0999999940395","3","img/117/4/0.5/bw/001.png","","","relaxing"
"","","","","","animation","143","1827375","0.0-143.0","1920x1080","","4126.70000000298","42.33","img/314/4/2/bw/001.png","","","relaxing"
"","","","","","animation","144","1838391","0.0-144.0","1920x1080","","11014.39999999106","98","img/117/5.5/1/bw/001.png","","","relaxing"
"","","","","","animation","145","1846364","0.0-145.0","1920x1080","","7971.699999988079","16.40","img/238/3.5/1.5/bw/001.png","","","relaxing"
"","","","","","animation","146","1849599","0.0-146.0","1920x1080","","3233.8999999910593","2.65","img/117/3.5/0.5/bw/001.png","","","relaxing"
"","","","","","animation","147","1853823","0.0-147.0","1920x1080","","4223.0999999940395","1.59","img/238/2.5/1.5/bw/001.png","","","relaxing"
"","","","","","animation","148","1858775","0.0-148.0","1920x1080","","4950.79999999702","0","img/117/2.5/1/bw/001.png","","","relaxing"
"","","","","","animation","149","1863081","0.0-149.0","1920x1080","","4305.100000008941","4.37","img/238/3.5/0.66667/bw/001.png","","","relaxing"
"","","","","","animation","150","1866881","0.0-150.0","1920x1080","","3797.7999999970198","1.72","img/238/2.5/1/bw/001.png","","","relaxing"
"","","","","","animation","151","1871280","0.0-151.0","1920x1080","","4398.79999999702","50.00","img/314/5.5/0.5/bw/001.png","","","relaxing"
"","","","","","animation","152","1879887","0.0-152.0","1920x1080","","8605.70000000298","98","img/238/5.5/1.5/bw/001.png","","","relaxing"
"","","","","","animation","153","1920007","0.0-153.0","1920x1080","","40118.59999999404","31.88","img/238/3.5/0.5/bw/001.png","","","relaxing"
"","","","","","animation","154","1932764","0.0-154.0","1920x1080","","12755.60000000894","30.82","img/238/4.5/0.5/bw/001.png","","","relaxing"
"","","","","","animation","155","1935947","0.0-155.0","1920x1080","","3182.2000000029802","0","img/314/2.5/0.66667/bw/001.png","","","relaxing"
"","","","","","animation","156","1939180","0.0-156.0","1920x1080","","3231.9000000059605","31.61","img/314/4.5/1.5/bw/001.png","","","relaxing"
"","","","","","animation","157","1942023","0.0-157.0","1920x1080","","2842.0999999940395","92.59","img/117/5.5/2/bw/001.png","","","relaxing"
"","","","","","animation","158","1945815","0.0-158.0","1920x1080","","3790.5999999940395","98","img/314/5.5/2/bw/001.png","","","relaxing"
"","","","","","html-button-response","159","1980719","0.0-159.0","1920x1080","","34902.79999999702","","<div class=""intro"">You are about to view a new series of animations.<br><br></div><div class=""intro"">You will evaluate them based on a different descriptor.<br><br></div><div class=""intro"">Move the slider to indicate how <strong style=""text-transform:capitalize"">NATURAL</strong> you find each animation.<br><br></div><div class=""intro"">0 = Least Natural<br></div><div class=""intro"">1 = Most Natural<br><br></div><div class=""intro"">Remember to use the <strong><em>entire range</em></strong> of the slider to make your ratings.<br></div><div class=""intro"">Please <strong><em>take your time</em></strong> and carefully consider each rating you make.<br><br></div>","0","",""
"","","","","","call-function","160","1980723","0.0-160.0","1920x1080","","","","","","",""
"","","","","","animation","161","1988687","0.0-161.0","1920x1080","","7962.4000000059605","93","img/117/5.5/2/bw/001.png","","","natural"
"","","","","","animation","162","2009166","0.0-162.0","1920x1080","","20478.09999999404","73.54","img/117/5.5/0.66667/bw/001.png","","","natural"
"","","","","","animation","163","2030297","0.0-163.0","1920x1080","","21128.70000000298","25","img/238/4.5/0.5/bw/001.png","","","natural"
"","","","","","animation","164","2034763","0.0-164.0","1920x1080","","4465.5","3.84","img/314/3.5/1/bw/001.png","","","natural"
"","","","","","animation","165","2087213","0.0-165.0","1920x1080","","52448.60000000894","27.12","img/238/3.5/1.5/bw/001.png","","","natural"
"","","","","","animation","166","2096503","0.0-166.0","1920x1080","","9289.60000000894","52.78","img/117/5.5/1/bw/001.png","","","natural"
"","","","","","animation","167","2123896","0.0-167.0","1920x1080","","27391.70000000298","15","img/238/2.5/2/bw/001.png","","","natural"
"","","","","","animation","168","2147024","0.0-168.0","1920x1080","","23125.70000000298","35.85","img/238/4/1.5/bw/001.png","","","natural"
"","","","","","animation","169","2154736","0.0-169.0","1920x1080","","7710.5","29.76","img/117/4.5/0.5/bw/001.png","","","natural"
"","","","","","animation","170","2172608","0.0-170.0","1920x1080","","17870.79999999702","65","img/238/5.5/0.5/bw/001.png","","","natural"
"","","","","","animation","171","2184179","0.0-171.0","1920x1080","","11563.70000000298","16.27","img/238/2.5/0.66667/bw/001.png","","","natural"
"","","","","","animation","172","2193240","0.0-172.0","1920x1080","","9057.40000000596","42.20","img/117/3.5/1.5/bw/001.png","","","natural"
"","","","","","animation","173","2198163","0.0-173.0","1920x1080","","4921.9000000059605","69.44","img/314/4.5/1.5/bw/001.png","","","natural"
"","","","","","animation","174","2203213","0.0-174.0","1920x1080","","5048.5","80","img/314/4.5/1/bw/001.png","","","natural"
"","","","","","animation","175","2219568","0.0-175.0","1920x1080","","16353.5","43.12","img/117/2.5/2/bw/001.png","","","natural"
"","","","","","animation","176","2233656","0.0-176.0","1920x1080","","14087.300000011921","63.23","img/238/3.5/2/bw/001.png","","","natural"
"","","","","","animation","177","2274184","0.0-177.0","1920x1080","","40526.79999999702","60.58","img/314/4/2/bw/001.png","","","natural"
"","","","","","animation","178","2330872","0.0-178.0","1920x1080","","56686.80000001192","76.46","img/238/4/2/bw/001.png","","","natural"
"","","","","","animation","179","2335929","0.0-179.0","1920x1080","","5055.9000000059605","6.88","img/117/3.5/0.66667/bw/001.png","","","natural"
"","","","","","animation","180","2358367","0.0-180.0","1920x1080","","22437.5","16","img/238/3.5/1/bw/001.png","","","natural"
"","","","","","animation","181","2362728","0.0-181.0","1920x1080","","4359.4000000059605","84.26","img/314/5.5/0.5/bw/001.png","","","natural"
"","","","","","animation","182","2367055","0.0-182.0","1920x1080","","4326.20000000298","56.48","img/238/3.5/0.5/bw/001.png","","","natural"
"","","","","","animation","183","2401048","0.0-183.0","1920x1080","","33990.30000001192","49","img/117/4/2/bw/001.png","","","natural"
"","","","","","animation","184","2406288","0.0-184.0","1920x1080","","5239.0999999940395","20.11","img/314/3.5/0.5/bw/001.png","","","natural"
"","","","","","animation","185","2410672","0.0-185.0","1920x1080","","4382.100000008941","53.17","img/238/5.5/1.5/bw/001.png","","","natural"
"","","","","","animation","186","2414112","0.0-186.0","1920x1080","","3438.9000000059605","55.03","img/117/4.5/2/bw/001.png","","","natural"
"","","","","","animation","187","2416329","0.0-187.0","1920x1080","","2215.6000000089407","42.06","img/117/4/0.66667/bw/001.png","","","natural"
"","","","","","animation","188","2420912","0.0-188.0","1920x1080","","4582.100000008941","13.76","img/117/2.5/0.66667/bw/001.png","","","natural"
"","","","","","animation","189","2484568","0.0-189.0","1920x1080","","63653.20000000298","31","img/314/4.5/0.66667/bw/001.png","","","natural"
"","","","","","animation","190","2488880","0.0-190.0","1920x1080","","4308.9000000059605","11.24","img/117/3.5/1/bw/001.png","","","natural"
"","","","","","animation","191","2510104","0.0-191.0","1920x1080","","21223.09999999404","79.37","img/238/4.5/2/bw/001.png","","","natural"
"","","","","","animation","192","2514427","0.0-192.0","1920x1080","","4322.300000011921","12.43","img/314/2.5/0.66667/bw/001.png","","","natural"
"","","","","","animation","193","2520244","0.0-193.0","1920x1080","","5816","12.17","img/314/4/1/bw/001.png","","","natural"
"","","","","","animation","194","2523527","0.0-194.0","1920x1080","","3281.9000000059605","24.74","img/117/4/1.5/bw/001.png","","","natural"
"","","","","","animation","195","2559552","0.0-195.0","1920x1080","","36023.20000000298","35.98","img/314/4/1.5/bw/001.png","","","natural"
"","","","","","animation","196","2563000","0.0-196.0","1920x1080","","3445.7999999970198","82.28","img/238/5.5/1/bw/001.png","","","natural"
"","","","","","animation","197","2566595","0.0-197.0","1920x1080","","3593.800000011921","71.96","img/314/4.5/2/bw/001.png","","","natural"
"","","","","","animation","198","2573928","0.0-198.0","1920x1080","","7330.300000011921","39.95","img/314/5.5/2/bw/001.png","","","natural"
"","","","","","animation","199","2603227","0.0-199.0","1920x1080","","29295.89999999106","62.04","img/238/5.5/2/bw/001.png","","","natural"
"","","","","","animation","200","2616160","0.0-200.0","1920x1080","","12931.90000000596","48.54","img/117/4/1/bw/001.png","","","natural"
"","","","","","animation","201","2630585","0.0-201.0","1920x1080","","14422.60000000894","8","img/314/3.5/2/bw/001.png","","","natural"
"","","","","","animation","202","2635296","0.0-202.0","1920x1080","","4710.29999999702","1.19","img/314/2.5/2/bw/001.png","","","natural"
"","","","","","animation","203","2645846","0.0-203.0","1920x1080","","10548.89999999106","44.44","img/117/5.5/0.5/bw/001.png","","","natural"
"","","","","","animation","204","2654311","0.0-204.0","1920x1080","","8463.199999988079","62.17","img/117/5.5/1.5/bw/001.png","","","natural"
"","","","","","animation","205","2657644","0.0-205.0","1920x1080","","3332.2999999970198","0","img/117/2.5/0.5/bw/001.png","","","natural"
"","","","","","animation","206","2661944","0.0-206.0","1920x1080","","4298.70000000298","1","img/314/2.5/1/bw/001.png","","","natural"
"","","","","","animation","207","2666201","0.0-207.0","1920x1080","","4255","49","img/117/4.5/1/bw/001.png","","","natural"
"","","","","","animation","208","2683664","0.0-208.0","1920x1080","","17462.59999999404","57.67","img/238/4.5/0.66667/bw/001.png","","","natural"
"","","","","","animation","209","2686178","0.0-209.0","1920x1080","","2509.2000000029802","59.52","img/117/4.5/1.5/bw/001.png","","","natural"
"","","","","","animation","210","2704185","0.0-210.0","1920x1080","","18005.90000000596","54","img/238/4/1/bw/001.png","","","natural"
"","","","","","animation","211","2711328","0.0-211.0","1920x1080","","7142.29999999702","2.25","img/117/2.5/1/bw/001.png","","","natural"
"","","","","","animation","212","2723828","0.0-212.0","1920x1080","","12497.79999999702","4.23","img/314/3.5/0.66667/bw/001.png","","","natural"
"","","","","","animation","213","2734544","0.0-213.0","1920x1080","","10715.29999999702","1","img/238/2.5/1/bw/001.png","","","natural"
"","","","","","animation","214","2756480","0.0-214.0","1920x1080","","21934.70000000298","24.47","img/238/3.5/0.66667/bw/001.png","","","natural"
"","","","","","animation","215","2759912","0.0-215.0","1920x1080","","3430.7000000029802","5.03","img/117/2.5/1.5/bw/001.png","","","natural"
"","","","","","animation","216","2766227","0.0-216.0","1920x1080","","6313.20000000298","61","img/117/3.5/2/bw/001.png","","","natural"
"","","","","","animation","217","2770111","0.0-217.0","1920x1080","","3882.4000000059605","54.37","img/117/4.5/0.66667/bw/001.png","","","natural"
"","","","","","animation","218","2773201","0.0-218.0","1920x1080","","3088.5999999940395","72","img/238/5.5/0.66667/bw/001.png","","","natural"
"","","","","","animation","219","2776080","0.0-219.0","1920x1080","","2878.2999999970198","81.88","img/117/3.5/0.5/bw/001.png","","","natural"
"","","","","","animation","220","2780477","0.0-220.0","1920x1080","","4396.100000008941","37","img/314/4/0.5/bw/001.png","","","natural"
"","","","","","animation","221","2783777","0.0-221.0","1920x1080","","3296.199999988079","2.91","img/238/2.5/1.5/bw/001.png","","","natural"
"","","","","","animation","222","2788061","0.0-222.0","1920x1080","","4282.5","72","img/238/4.5/1.5/bw/001.png","","","natural"
"","","","","","animation","223","2810143","0.0-223.0","1920x1080","","22081.10000000894","21.69","img/117/4/0.5/bw/001.png","","","natural"
"","","","","","animation","224","2814710","0.0-224.0","1920x1080","","4566.100000008941","50.66","img/314/5.5/0.66667/bw/001.png","","","natural"
"","","","","","animation","225","2817226","0.0-225.0","1920x1080","","2512.7000000029802","55.69","img/314/5.5/1/bw/001.png","","","natural"
"","","","","","animation","226","2836752","0.0-226.0","1920x1080","","19524.60000000894","50.26","img/314/5.5/1.5/bw/001.png","","","natural"
"","","","","","animation","227","2839000","0.0-227.0","1920x1080","","2246.6000000089407","42.33","img/314/3.5/1.5/bw/001.png","","","natural"
"","","","","","animation","228","2841560","0.0-228.0","1920x1080","","2558.5999999940395","61.77","img/314/4/0.66667/bw/001.png","","","natural"
"","","","","","animation","229","2845077","0.0-229.0","1920x1080","","3515.8999999910593","25.40","img/238/4.5/1/bw/001.png","","","natural"
"","","","","","animation","230","2849800","0.0-230.0","1920x1080","","4722.0999999940395","2.12","img/314/2.5/0.5/bw/001.png","","","natural"
"","","","","","animation","231","2851910","0.0-231.0","1920x1080","","2108.5","38.49","img/238/4/0.5/bw/001.png","","","natural"
"","","","","","animation","232","2854064","0.0-232.0","1920x1080","","2152.8999999910593","48.68","img/314/2.5/1.5/bw/001.png","","","natural"
"","","","","","animation","233","2857233","0.0-233.0","1920x1080","","3166.9000000059605","56.22","img/314/4.5/0.5/bw/001.png","","","natural"
"","","","","","animation","234","2859544","0.0-234.0","1920x1080","","2310.0999999940395","57.80","img/238/4/0.66667/bw/001.png","","","natural"
"","","","","","animation","235","2864461","0.0-235.0","1920x1080","","4916.0999999940395","4","img/238/2.5/0.5/bw/001.png","","","natural"
"","","","","","html-button-response","236","2887077","0.0-236.0","1920x1080","","22615","","<div class=""intro"">You are about to view a new series of animations.<br><br></div><div class=""intro"">You will evaluate them based on a different descriptor.<br><br></div><div class=""intro"">Move the slider to indicate how <strong style=""text-transform:capitalize"">APPEALING</strong> you find each animation.<br><br></div><div class=""intro"">0 = Least Appealing<br></div><div class=""intro"">1 = Most Appealing<br><br></div><div class=""intro"">Remember to use the <strong><em>entire range</em></strong> of the slider to make your ratings.<br></div><div class=""intro"">Please <strong><em>take your time</em></strong> and carefully consider each rating you make.<br><br></div>","0","",""
"","","","","","call-function","237","2887080","0.0-237.0","1920x1080","","","","","","",""
"","","","","","animation","238","2893193","0.0-238.0","1920x1080","","6112.0999999940395","25.13","img/314/3.5/2/bw/001.png","","","appealing"
"","","","","","animation","239","2925368","0.0-239.0","1920x1080","","32174","31.88","img/314/3.5/1.5/bw/001.png","","","appealing"
"","","","","","animation","240","2935016","0.0-240.0","1920x1080","","9646.29999999702","0.00","img/314/3.5/0.5/bw/001.png","","","appealing"
"","","","","","animation","241","2970600","0.0-241.0","1920x1080","","35582.59999999404","94","img/238/5.5/1.5/bw/001.png","","","appealing"
"","","","","","animation","242","2995985","0.0-242.0","1920x1080","","25382.79999999702","5.16","img/117/2.5/1/bw/001.png","","","appealing"
"","","","","","animation","243","2999578","0.0-243.0","1920x1080","","3591.9000000059605","5.82","img/238/3.5/1.5/bw/001.png","","","appealing"
"","","","","","animation","244","3013561","0.0-244.0","1920x1080","","13979.39999999106","12.57","img/117/3.5/0.5/bw/001.png","","","appealing"
"","","","","","animation","245","3025313","0.0-245.0","1920x1080","","11750.70000000298","30.82","img/117/2.5/0.66667/bw/001.png","","","appealing"
"","","","","","animation","246","3028327","0.0-246.0","1920x1080","","3013","67.33","img/314/2.5/2/bw/001.png","","","appealing"
"","","","","","animation","247","3033543","0.0-247.0","1920x1080","","5215.20000000298","32","img/117/4/1.5/bw/001.png","","","appealing"
"","","","","","animation","248","3038361","0.0-248.0","1920x1080","","4815.9000000059605","98","img/314/5.5/2/bw/001.png","","","appealing"
"","","","","","animation","249","3040577","0.0-249.0","1920x1080","","2214.1000000089407","50.13","img/117/4.5/0.5/bw/001.png","","","appealing"
"","","","","","animation","250","3086476","0.0-250.0","1920x1080","","45898.5","36.11","img/238/4/1/bw/001.png","","","appealing"
"","","","","","animation","251","3090493","0.0-251.0","1920x1080","","4013.4000000059605","53.70","img/117/2.5/2/bw/001.png","","","appealing"
"","","","","","animation","252","3108609","0.0-252.0","1920x1080","","18115.5","48.15","img/238/4/1.5/bw/001.png","","","appealing"
"","","","","","animation","253","3120129","0.0-253.0","1920x1080","","11517.79999999702","49","img/314/4/1.5/bw/001.png","","","appealing"
"","","","","","animation","254","3122809","0.0-254.0","1920x1080","","2679.1000000089407","38.23","img/117/4/2/bw/001.png","","","appealing"
"","","","","","animation","255","3127659","0.0-255.0","1920x1080","","4849.0999999940395","87.57","img/238/5.5/0.5/bw/001.png","","","appealing"
"","","","","","animation","256","3132143","0.0-256.0","1920x1080","","4481.79999999702","80.69","img/117/2.5/1.5/bw/001.png","","","appealing"
"","","","","","animation","257","3135993","0.0-257.0","1920x1080","","3848.6000000089407","33","img/238/3.5/1/bw/001.png","","","appealing"
"","","","","","animation","258","3138426","0.0-258.0","1920x1080","","2432.2000000029802","52.25","img/117/4/0.5/bw/001.png","","","appealing"
"","","","","","animation","259","3140881","0.0-259.0","1920x1080","","2453.5999999940395","50.26","img/238/4/2/bw/001.png","","","appealing"
"","","","","","animation","260","3142865","0.0-260.0","1920x1080","","1982.7999999970198","45.37","img/238/2.5/2/bw/001.png","","","appealing"
"","","","","","animation","261","3154529","0.0-261.0","1920x1080","","11662.39999999106","54.10","img/314/4.5/0.5/bw/001.png","","","appealing"
"","","","","","animation","262","3162035","0.0-262.0","1920x1080","","7503.9000000059605","92.99","img/238/5.5/2/bw/001.png","","","appealing"
"","","","","","animation","263","3166033","0.0-263.0","1920x1080","","3996.7000000029802","63.36","img/314/2.5/1/bw/001.png","","","appealing"
"","","","","","animation","264","3170481","0.0-264.0","1920x1080","","4446.79999999702","40.48","img/117/3.5/0.66667/bw/001.png","","","appealing"
"","","","","","animation","265","3173310","0.0-265.0","1920x1080","","2827.6000000089407","57.41","img/238/4.5/1/bw/001.png","","","appealing"
"","","","","","animation","266","3176817","0.0-266.0","1920x1080","","3506.2000000029802","77.91","img/117/5.5/0.66667/bw/001.png","","","appealing"
"","","","","","animation","267","3184593","0.0-267.0","1920x1080","","7774.29999999702","78.70","img/117/5.5/1/bw/001.png","","","appealing"
"","","","","","animation","268","3189443","0.0-268.0","1920x1080","","4848.399999991059","56.48","img/314/2.5/0.5/bw/001.png","","","appealing"
"","","","","","animation","269","3293778","0.0-269.0","1920x1080","","104333.40000000596","59.39","img/238/3.5/2/bw/001.png","","","appealing"
"","","","","","animation","270","3296666","0.0-270.0","1920x1080","","2887.0999999940395","3.04","img/238/2.5/0.66667/bw/001.png","","","appealing"
"","","","","","animation","271","3300643","0.0-271.0","1920x1080","","3974.0999999940395","19.31","img/314/2.5/0.66667/bw/001.png","","","appealing"
"","","","","","animation","272","3326729","0.0-272.0","1920x1080","","26084.60000000894","52.91","img/314/3.5/1/bw/001.png","","","appealing"
"","","","","","animation","273","3330762","0.0-273.0","1920x1080","","4031.6000000089407","29.63","img/314/3.5/0.66667/bw/001.png","","","appealing"
"","","","","","animation","274","3334593","0.0-274.0","1920x1080","","3829.5","79.37","img/238/4.5/1.5/bw/001.png","","","appealing"
"","","","","","animation","275","3343058","0.0-275.0","1920x1080","","8465.29999999702","97","img/314/4.5/2/bw/001.png","","","appealing"
"","","","","","animation","276","3429395","0.0-276.0","1920x1080","","86334.70000000298","75.66","img/117/4.5/2/bw/001.png","","","appealing"
"","","","","","animation","277","3432449","0.0-277.0","1920x1080","","3052.2000000029802","40.74","img/117/4.5/0.66667/bw/001.png","","","appealing"
"","","","","","animation","278","3443311","0.0-278.0","1920x1080","","10860.5","67.72","img/314/5.5/0.5/bw/001.png","","","appealing"
"","","","","","animation","279","3451361","0.0-279.0","1920x1080","","8046.9000000059605","15","img/238/2.5/1/bw/001.png","","","appealing"
"","","","","","animation","280","3455745","0.0-280.0","1920x1080","","4382.70000000298","93.25","img/314/5.5/0.66667/bw/001.png","","","appealing"
"","","","","","animation","281","3460281","0.0-281.0","1920x1080","","4534.70000000298","40.87","img/238/3.5/0.66667/bw/001.png","","","appealing"
"","","","","","animation","282","3465425","0.0-282.0","1920x1080","","5142.70000000298","72.22","img/314/4.5/1/bw/001.png","","","appealing"
"","","","","","animation","283","3480242","0.0-283.0","1920x1080","","14815.20000000298","75.79","img/238/5.5/0.66667/bw/001.png","","","appealing"
"","","","","","animation","284","3517225","0.0-284.0","1920x1080","","36981.79999999702","85.58","img/117/4.5/1.5/bw/001.png","","","appealing"
"","","","","","animation","285","3550513","0.0-285.0","1920x1080","","33287.29999999702","64.55","img/314/4.5/0.66667/bw/001.png","","","appealing"
"","","","","","animation","286","3553091","0.0-286.0","1920x1080","","2575.699999988079","76.46","img/314/4/2/bw/001.png","","","appealing"
"","","","","","animation","287","3555897","0.0-287.0","1920x1080","","2804.7999999970198","46.43","img/314/2.5/1.5/bw/001.png","","","appealing"
"","","","","","animation","288","3560929","0.0-288.0","1920x1080","","5030.70000000298","65.87","img/314/4.5/1.5/bw/001.png","","","appealing"
"","","","","","animation","289","3566274","0.0-289.0","1920x1080","","5342.0999999940395","62.83","img/238/4/0.66667/bw/001.png","","","appealing"
"","","","","","animation","290","3606330","0.0-290.0","1920x1080","","40054.39999999106","88.89","img/117/4.5/1/bw/001.png","","","appealing"
"","","","","","animation","291","3609793","0.0-291.0","1920x1080","","3461.6000000089407","98","img/314/5.5/1/bw/001.png","","","appealing"
"","","","","","animation","292","3618345","0.0-292.0","1920x1080","","8550.20000000298","76.19","img/238/4.5/2/bw/001.png","","","appealing"
"","","","","","animation","293","3620874","0.0-293.0","1920x1080","","2527.5","12.83","img/117/3.5/1/bw/001.png","","","appealing"
"","","","","","animation","294","3625060","0.0-294.0","1920x1080","","4184.0999999940395","0","img/238/2.5/1.5/bw/001.png","","","appealing"
"","","","","","animation","295","3628590","0.0-295.0","1920x1080","","3528.7999999970198","99","img/238/5.5/1/bw/001.png","","","appealing"
"","","","","","animation","296","3632924","0.0-296.0","1920x1080","","4333.0999999940395","49.21","img/314/4/1/bw/001.png","","","appealing"
"","","","","","animation","297","3636745","0.0-297.0","1920x1080","","3819.5","76.32","img/117/5.5/2/bw/001.png","","","appealing"
"","","","","","animation","298","3646360","0.0-298.0","1920x1080","","9613","69.84","img/117/4/1/bw/001.png","","","appealing"
"","","","","","animation","299","3649361","0.0-299.0","1920x1080","","2999.7999999970198","85.19","img/314/5.5/1.5/bw/001.png","","","appealing"
"","","","","","animation","300","3654557","0.0-300.0","1920x1080","","5194.70000000298","81.08","img/238/4.5/0.66667/bw/001.png","","","appealing"
"","","","","","animation","301","3658891","0.0-301.0","1920x1080","","4331.70000000298","4.76","img/117/2.5/0.5/bw/001.png","","","appealing"
"","","","","","animation","302","3674780","0.0-302.0","1920x1080","","15887.70000000298","61.51","img/117/4/0.66667/bw/001.png","","","appealing"
"","","","","","animation","303","3677257","0.0-303.0","1920x1080","","2475.3999999910593","22.88","img/238/4.5/0.5/bw/001.png","","","appealing"
"","","","","","animation","304","3683263","0.0-304.0","1920x1080","","6004.399999991059","30.95","img/117/3.5/1.5/bw/001.png","","","appealing"
"","","","","","animation","305","3702145","0.0-305.0","1920x1080","","18880.89999999106","65.87","img/117/3.5/2/bw/001.png","","","appealing"
"","","","","","animation","306","3705995","0.0-306.0","1920x1080","","3848.699999988079","4.23","img/238/3.5/0.5/bw/001.png","","","appealing"
"","","","","","animation","307","3710048","0.0-307.0","1920x1080","","4051.7000000029802","90.74","img/117/5.5/0.5/bw/001.png","","","appealing"
"","","","","","animation","308","3719379","0.0-308.0","1920x1080","","9329.5","86.11","img/117/5.5/1.5/bw/001.png","","","appealing"
"","","","","","animation","309","3741163","0.0-309.0","1920x1080","","21781.79999999702","34.79","img/314/4/0.66667/bw/001.png","","","appealing"
"","","","","","animation","310","3745096","0.0-310.0","1920x1080","","3932.2000000029802","57.14","img/238/4/0.5/bw/001.png","","","appealing"
"","","","","","animation","311","3748243","0.0-311.0","1920x1080","","3145","72.88","img/314/4/0.5/bw/001.png","","","appealing"
"","","","","","animation","312","3751507","0.0-312.0","1920x1080","","3216.7999999970198","12.70","img/238/2.5/0.5/bw/001.png","","","appealing"
"","","","","","html-button-response","313","3790320","0.0-313.0","1920x1080","","38809.89999999106","","<div class=""intro"">You are about to view a new series of animations.<br><br></div><div class=""intro"">You will evaluate them based on a different descriptor.<br><br></div><div class=""intro"">Move the slider to indicate how <strong style=""text-transform:capitalize"">INTERESTING</strong> you find each animation.<br><br></div><div class=""intro"">0 = Least Interesting<br></div><div class=""intro"">1 = Most Interesting<br><br></div><div class=""intro"">Remember to use the <strong><em>entire range</em></strong> of the slider to make your ratings.<br></div><div class=""intro"">Please <strong><em>take your time</em></strong> and carefully consider each rating you make.<br><br></div>","0","",""
"","","","","","call-function","314","3790324","0.0-314.0","1920x1080","","","","","","",""
"","","","","","animation","315","3794396","0.0-315.0","1920x1080","","4071","92.99","img/314/5.5/0.66667/bw/001.png","","","interesting"
"","","","","","animation","316","3798280","0.0-316.0","1920x1080","","3882.2000000029802","50","img/238/4/0.5/bw/001.png","","","interesting"
"","","","","","animation","317","3802508","0.0-317.0","1920x1080","","4227","63","img/238/4/1.5/bw/001.png","","","interesting"
"","","","","","animation","318","3804777","0.0-318.0","1920x1080","","2267.7999999970198","4","img/314/2.5/1/bw/001.png","","","interesting"
"","","","","","animation","319","3812778","0.0-319.0","1920x1080","","7999.5","86.64","img/314/5.5/0.5/bw/001.png","","","interesting"
"","","","","","animation","320","3836795","0.0-320.0","1920x1080","","24014.20000000298","3.57","img/314/2.5/0.5/bw/001.png","","","interesting"
"","","","","","animation","321","3840624","0.0-321.0","1920x1080","","3823.5","25.53","img/314/3.5/0.5/bw/001.png","","","interesting"
"","","","","","animation","322","3844095","0.0-322.0","1920x1080","","3470.199999988079","2.25","img/238/2.5/1.5/bw/001.png","","","interesting"
"","","","","","animation","323","3851825","0.0-323.0","1920x1080","","7728.70000000298","84.66","img/238/5.5/1/bw/001.png","","","interesting"
"","","","","","animation","324","3859979","0.0-324.0","1920x1080","","8151.79999999702","4.23","img/117/2.5/2/bw/001.png","","","interesting"
"","","","","","animation","325","3868146","0.0-325.0","1920x1080","","8165.70000000298","3.70","img/238/2.5/1/bw/001.png","","","interesting"
"","","","","","animation","326","3882362","0.0-326.0","1920x1080","","14213.60000000894","39","img/314/4.5/1/bw/001.png","","","interesting"
"","","","","","animation","327","3887108","0.0-327.0","1920x1080","","4744.5","76.59","img/117/4.5/2/bw/001.png","","","interesting"
"","","","","","animation","328","3890393","0.0-328.0","1920x1080","","3283.4000000059605","35.05","img/117/3.5/0.66667/bw/001.png","","","interesting"
"","","","","","animation","329","3897899","0.0-329.0","1920x1080","","7505.0999999940395","70.37","img/314/4/0.5/bw/001.png","","","interesting"
"","","","","","animation","330","3906923","0.0-330.0","1920x1080","","9020.29999999702","57.14","img/117/5.5/1.5/bw/001.png","","","interesting"
"","","","","","animation","331","3924361","0.0-331.0","1920x1080","","17436.79999999702","8.73","img/314/2.5/0.66667/bw/001.png","","","interesting"
"","","","","","animation","332","3947723","0.0-332.0","1920x1080","","23358.70000000298","23.81","img/238/3.5/0.5/bw/001.png","","","interesting"
"","","","","","animation","333","3958325","0.0-333.0","1920x1080","","10600.70000000298","33.07","img/117/3.5/2/bw/001.png","","","interesting"
"","","","","","animation","334","3966933","0.0-334.0","1920x1080","","8606.70000000298","65.61","img/238/5.5/0.5/bw/001.png","","","interesting"
"","","","","","animation","335","3997330","0.0-335.0","1920x1080","","30395.09999999404","39.15","img/314/3.5/1/bw/001.png","","","interesting"
"","","","","","animation","336","4063873","0.0-336.0","1920x1080","","66540.70000000298","61","img/238/4/0.66667/bw/001.png","","","interesting"
"","","","","","animation","337","4065756","0.0-337.0","1920x1080","","1882.1000000089407","73.02","img/238/5.5/2/bw/001.png","","","interesting"
"","","","","","animation","338","4070331","0.0-338.0","1920x1080","","4573.70000000298","45","img/117/4.5/1.5/bw/001.png","","","interesting"
"","","","","","animation","339","4073462","0.0-339.0","1920x1080","","3129.6000000089407","46.03","img/117/5.5/0.66667/bw/001.png","","","interesting"
"","","","","","animation","340","4087257","0.0-340.0","1920x1080","","13793.40000000596","48.15","img/314/3.5/2/bw/001.png","","","interesting"
"","","","","","animation","341","4090232","0.0-341.0","1920x1080","","2971.1000000089407","53.44","img/238/3.5/2/bw/001.png","","","interesting"
"","","","","","animation","342","4093479","0.0-342.0","1920x1080","","3246.2999999970198","9.92","img/238/2.5/0.66667/bw/001.png","","","interesting"
"","","","","","animation","343","4099343","0.0-343.0","1920x1080","","5862.20000000298","49.74","img/117/4.5/1/bw/001.png","","","interesting"
"","","","","","animation","344","4103014","0.0-344.0","1920x1080","","3666.7000000029802","62.43","img/314/4.5/0.66667/bw/001.png","","","interesting"
"","","","","","animation","345","4107240","0.0-345.0","1920x1080","","4224.29999999702","55.95","img/238/4/1/bw/001.png","","","interesting"
"","","","","","animation","346","4122479","0.0-346.0","1920x1080","","15239.199999988079","65.08","img/238/4.5/0.5/bw/001.png","","","interesting"
"","","","","","animation","347","4192072","0.0-347.0","1920x1080","","69590.70000000298","66.01","img/117/4/0.5/bw/001.png","","","interesting"
"","","","","","animation","348","4196383","0.0-348.0","1920x1080","","4309.0999999940395","28.17","img/314/5.5/1.5/bw/001.png","","","interesting"
"","","","","","animation","349","4199458","0.0-349.0","1920x1080","","3073.5","9.39","img/238/2.5/0.5/bw/001.png","","","interesting"
"","","","","","animation","350","4205208","0.0-350.0","1920x1080","","5749","40.61","img/238/4/2/bw/001.png","","","interesting"
"","","","","","animation","351","4207139","0.0-351.0","1920x1080","","1929.4000000059605","48.54","img/117/3.5/1.5/bw/001.png","","","interesting"
"","","","","","animation","352","4209689","0.0-352.0","1920x1080","","2549.1000000089407","8.07","img/117/2.5/0.5/bw/001.png","","","interesting"
"","","","","","animation","353","4235213","0.0-353.0","1920x1080","","25522.09999999404","49.34","img/117/3.5/1/bw/001.png","","","interesting"
"","","","","","animation","354","4238242","0.0-354.0","1920x1080","","3027.300000011921","31.48","img/117/4/1/bw/001.png","","","interesting"
"","","","","","animation","355","4242333","0.0-355.0","1920x1080","","4089.3999999910593","4.76","img/117/2.5/1/bw/001.png","","","interesting"
"","","","","","animation","356","4247757","0.0-356.0","1920x1080","","5422.399999991059","61.51","img/117/5.5/0.5/bw/001.png","","","interesting"
"","","","","","animation","357","4252827","0.0-357.0","1920x1080","","5068.5","37.43","img/117/4/0.66667/bw/001.png","","","interesting"
"","","","","","animation","358","4256405","0.0-358.0","1920x1080","","3576.9000000059605","51.98","img/238/3.5/0.66667/bw/001.png","","","interesting"
"","","","","","animation","359","4261274","0.0-359.0","1920x1080","","4867.399999991059","27.65","img/314/5.5/2/bw/001.png","","","interesting"
"","","","","","animation","360","4264991","0.0-360.0","1920x1080","","3715.6000000089407","57.94","img/238/5.5/1.5/bw/001.png","","","interesting"
"","","","","","animation","361","4267639","0.0-361.0","1920x1080","","2642.2999999970198","42.59","img/238/5.5/0.66667/bw/001.png","","","interesting"
"","","","","","animation","362","4271191","0.0-362.0","1920x1080","","3550.7000000029802","59.39","img/314/4.5/1.5/bw/001.png","","","interesting"
"","","","","","animation","363","4274250","0.0-363.0","1920x1080","","3058.2000000029802","72.88","img/117/4.5/0.66667/bw/001.png","","","interesting"
"","","","","","animation","364","4277137","0.0-364.0","1920x1080","","2884.9000000059605","26.98","img/314/3.5/0.66667/bw/001.png","","","interesting"
"","","","","","animation","365","4281489","0.0-365.0","1920x1080","","4350.29999999702","69.18","img/117/5.5/2/bw/001.png","","","interesting"
"","","","","","animation","366","4284322","0.0-366.0","1920x1080","","2831.5","10.19","img/238/2.5/2/bw/001.png","","","interesting"
"","","","","","animation","367","4296674","0.0-367.0","1920x1080","","12350.20000000298","58.47","img/238/4.5/2/bw/001.png","","","interesting"
"","","","","","animation","368","4301425","0.0-368.0","1920x1080","","4749.20000000298","48.41","img/314/4/1/bw/001.png","","","interesting"
"","","","","","animation","369","4304759","0.0-369.0","1920x1080","","3333","30.82","img/314/5.5/1/bw/001.png","","","interesting"
"","","","","","animation","370","4308934","0.0-370.0","1920x1080","","4173.100000008941","49.07","img/238/4.5/0.66667/bw/001.png","","","interesting"
"","","","","","animation","371","4311036","0.0-371.0","1920x1080","","2101.2999999970198","55.95","img/117/5.5/1/bw/001.png","","","interesting"
"","","","","","animation","372","4318025","0.0-372.0","1920x1080","","6986.300000011921","48.81","img/117/4/2/bw/001.png","","","interesting"
"","","","","","animation","373","4331205","0.0-373.0","1920x1080","","13179.40000000596","51.85","img/238/4.5/1.5/bw/001.png","","","interesting"
"","","","","","animation","374","4333576","0.0-374.0","1920x1080","","2368.7999999970198","57.28","img/314/3.5/1.5/bw/001.png","","","interesting"
"","","","","","animation","375","4335822","0.0-375.0","1920x1080","","2242.0999999940395","74.34","img/117/4.5/0.5/bw/001.png","","","interesting"
"","","","","","animation","376","4337824","0.0-376.0","1920x1080","","2000.8999999910593","16.93","img/314/2.5/2/bw/001.png","","","interesting"
"","","","","","animation","377","4342042","0.0-377.0","1920x1080","","4217","15.34","img/117/2.5/0.66667/bw/001.png","","","interesting"
"","","","","","animation","378","4344608","0.0-378.0","1920x1080","","2564.7000000029802","40.34","img/314/4/0.66667/bw/001.png","","","interesting"
"","","","","","animation","379","4346955","0.0-379.0","1920x1080","","2342.1000000089407","20.90","img/117/2.5/1.5/bw/001.png","","","interesting"
"","","","","","animation","380","4349372","0.0-380.0","1920x1080","","2414.5","11.77","img/314/2.5/1.5/bw/001.png","","","interesting"
"","","","","","animation","381","4352605","0.0-381.0","1920x1080","","3232.2999999970198","55","img/314/4.5/0.5/bw/001.png","","","interesting"
"","","","","","animation","382","4356106","0.0-382.0","1920x1080","","3499.5","32.54","img/238/3.5/1.5/bw/001.png","","","interesting"
"","","","","","animation","383","4357772","0.0-383.0","1920x1080","","1663.5","70.77","img/117/4/1.5/bw/001.png","","","interesting"
"","","","","","animation","384","4359852","0.0-384.0","1920x1080","","2079","76.59","img/117/3.5/0.5/bw/001.png","","","interesting"
"","","","","","animation","385","4362556","0.0-385.0","1920x1080","","2702.5999999940395","43.12","img/238/4.5/1/bw/001.png","","","interesting"
"","","","","","animation","386","4367105","0.0-386.0","1920x1080","","4548.100000008941","54.76","img/238/3.5/1/bw/001.png","","","interesting"
"","","","","","animation","387","4374226","0.0-387.0","1920x1080","","7109.899999991059","49","img/314/4/2/bw/001.png","","","interesting"
"","","","","","animation","388","4378347","0.0-388.0","1920x1080","","4120","57.14","img/314/4.5/2/bw/001.png","","","interesting"
"","","","","","animation","389","4387989","0.0-389.0","1920x1080","","9639.70000000298","68","img/314/4/1.5/bw/001.png","","","interesting"
"","","","","","html-button-response","390","4470446","0.0-390.0","1920x1080","","82455.39999999106","","<strong>Study Debriefing</strong><br><p class=""debrief""><strong>Background:</strong> The patterns you rated are called <em>fractals</em>. The term fractal describes a class of irregular curves or shapes for which any suitably chosen part is similar in shape to a given larger or smaller part when magnified or reduced to the same size. Fractal properties are found throughout the natural and manmade world. The series of animations you saw today displayed animated fractal patterns of a varying complexity.</p><p class=""debrief""><strong>Purpose of this study:</strong> We hope to better understand how the perception of static fractals differs from the perception of animated fractals, and how the speed of the animated patterns influences people&apos;s perception of them. Fractals allow us to study the perception of aesthetic properties (e.g. the perceived level of beauty in an image) without using recognizable content, which makes them an excellent tool for studying abstract aesthetic judgement.</p><p class=""debrief""><strong>Your part:</strong> Your participation has helped us to further understand how humans perceive these patterns across different levels of speed and complexity. This research with allow us to better understand how the visual system and brain process our ever-changing visual environments.<p class=""debrief""><strong>Feedback and Further information:</strong> If you have additional questions about this study, please feel free to ask the researcher, Nathan Gonzales-Hess at nhess @ uoregon.edu. If you have any questions concerning your rights as a research participant, please contact Research Compliance Services, 5237 University of Oregon, Eugene, OR 97403, 541-346-2510, or email researchCompliance @ uoregon.edu. You can also email the Human Subjects Coordinator for psychology and linguistics research at hscoord @ uoregon.edu. ","0","",""
"","","","","","html-button-response","391","4473214","0.0-391.0","1920x1080","","2764","","Thank you for participating in this study. <br>Please click below to finish the experiment and submit your responses.<br><br>","0","",""
"true","","","","","fullscreen","392","4474310","0.0-392.0","1920x1080","12:41 3/11/2022","","","","","",""
