"success","timeout","failed_images","failed_audio","failed_video","trial_type","trial_index","time_elapsed","internal_node_id","resolution","timeStamp","rt","response","stimulus","button_pressed","value","descriptor"
"true","false","[]","[]","[]","preload","0","27575","0.0-0.0","1920x1080","","","","","","",""
"true","false","[]","[]","[]","preload","1","55162","0.0-1.0","1920x1080","","","","","","",""
"true","false","[]","[]","[]","preload","2","84064","0.0-2.0","1920x1080","","","","","","",""
"true","","","","","fullscreen","3","89121","0.0-3.0","1920x1080","9:39 23/5/2022","","","","","",""
"","","","","","survey-html-form","4","101735","0.0-4.0","1920x1080","","12611.199999988079","{""age"":""20"",""gender"":""female""}","","","",""
"","","","","","html-button-response","5","153399","0.0-5.0","1920x1080","","51662.79999998212","","<div class=""complex"">You are going to see a series of animations.<br><br></div><div class=""complex"">Move the slider to indicate how <strong style=""text-transform:capitalize"">COMPLEX</strong> you find each animation.<br><br></div><div class=""complex"">0 = Least Complex<br></div><div class=""complex"">1 = Most Complex<br><br></div><div class=""complex"">Remember to use the <strong><em>entire range</em></strong> of the slider to make your ratings.<br></div><div class=""complex"">Please <strong><em>take your time</em></strong> and carefully consider each rating you make.<br><br></div><div class=""complex"">The study has five sections and will take about 45 minutes to complete.<br><br></div>","0","",""
"","","","","","call-function","6","153400","0.0-6.0","1920x1080","","","","","","",""
"","","","","","animation","7","167663","0.0-7.0","1920x1080","","14260.59999999404","7.80","img/238/3.5/1.5/bw/001.png","","","complex"
"","","","","","animation","8","180815","0.0-8.0","1920x1080","","13150.90000000596","52.38","img/117/4/1.5/bw/001.png","","","complex"
"","","","","","animation","9","191247","0.0-9.0","1920x1080","","10430.5","87.57","img/117/2.5/1.5/bw/001.png","","","complex"
"","","","","","animation","10","201607","0.0-10.0","1920x1080","","10359.40000000596","71.83","img/117/3.5/0.66667/bw/001.png","","","complex"
"","","","","","animation","11","208263","0.0-11.0","1920x1080","","6654.5999999940395","98","img/238/2.5/1/bw/001.png","","","complex"
"","","","","","animation","12","213087","0.0-12.0","1920x1080","","4823.199999988079","100","img/117/2.5/0.66667/bw/001.png","","","complex"
"","","","","","animation","13","239576","0.0-13.0","1920x1080","","26487.5","100","img/238/5.5/2/bw/001.png","","","complex"
"","","","","","animation","14","259119","0.0-14.0","1920x1080","","19542.40000000596","83.33","img/314/5.5/0.66667/bw/001.png","","","complex"
"","","","","","animation","15","288592","0.0-15.0","1920x1080","","29472","100","img/238/4/1.5/bw/001.png","","","complex"
"","","","","","animation","16","294567","0.0-16.0","1920x1080","","5973.899999976158","97","img/314/4/1.5/bw/001.png","","","complex"
"","","","","","animation","17","302919","0.0-17.0","1920x1080","","8351.40000000596","98","img/238/4/0.66667/bw/001.png","","","complex"
"","","","","","animation","18","311551","0.0-18.0","1920x1080","","8631.59999999404","77.91","img/117/5.5/0.5/bw/001.png","","","complex"
"","","","","","animation","19","321487","0.0-19.0","1920x1080","","9935","59.52","img/314/3.5/2/bw/001.png","","","complex"
"","","","","","animation","20","337295","0.0-20.0","1920x1080","","15806.800000011921","49","img/314/4.5/2/bw/001.png","","","complex"
"","","","","","animation","21","349247","0.0-21.0","1920x1080","","11951.59999999404","53","img/314/5.5/0.5/bw/001.png","","","complex"
"","","","","","animation","22","360511","0.0-22.0","1920x1080","","11262.899999976158","97","img/314/3.5/0.66667/bw/001.png","","","complex"
"","","","","","animation","23","366568","0.0-23.0","1920x1080","","6055.5999999940395","35.32","img/117/5.5/1.5/bw/001.png","","","complex"
"","","","","","animation","24","375904","0.0-24.0","1920x1080","","9335.5","86.38","img/117/3.5/1/bw/001.png","","","complex"
"","","","","","animation","25","383624","0.0-25.0","1920x1080","","7719.200000017881","26.32","img/117/5.5/2/bw/001.png","","","complex"
"","","","","","animation","26","395512","0.0-26.0","1920x1080","","11886.799999982119","67","img/117/4.5/1/bw/001.png","","","complex"
"","","","","","animation","27","409504","0.0-27.0","1920x1080","","13991.300000011921","90.34","img/238/3.5/2/bw/001.png","","","complex"
"","","","","","animation","28","419880","0.0-28.0","1920x1080","","10375","96","img/314/3.5/0.5/bw/001.png","","","complex"
"","","","","","animation","29","431096","0.0-29.0","1920x1080","","11215.199999988079","59.92","img/314/4.5/0.66667/bw/001.png","","","complex"
"","","","","","animation","30","439960","0.0-30.0","1920x1080","","8863.09999999404","12.96","img/238/5.5/0.66667/bw/001.png","","","complex"
"","","","","","animation","31","444376","0.0-31.0","1920x1080","","4415.300000011921","17.46","img/117/5.5/0.66667/bw/001.png","","","complex"
"","","","","","animation","32","448432","0.0-32.0","1920x1080","","4055.7000000178814","57.01","img/238/4/1/bw/001.png","","","complex"
"","","","","","animation","33","461792","0.0-33.0","1920x1080","","13360","50.00","img/314/2.5/0.5/bw/001.png","","","complex"
"","","","","","animation","34","474409","0.0-34.0","1920x1080","","12615.5","62.43","img/314/4/2/bw/001.png","","","complex"
"","","","","","animation","35","478848","0.0-35.0","1920x1080","","4438.200000017881","68.12","img/117/3.5/2/bw/001.png","","","complex"
"","","","","","animation","36","494743","0.0-36.0","1920x1080","","15894.699999988079","43","img/314/2.5/2/bw/001.png","","","complex"
"","","","","","animation","37","499152","0.0-37.0","1920x1080","","4407.800000011921","55","img/117/4/2/bw/001.png","","","complex"
"","","","","","animation","38","503072","0.0-38.0","1920x1080","","3919.199999988079","68.92","img/117/4/1/bw/001.png","","","complex"
"","","","","","animation","39","510816","0.0-39.0","1920x1080","","7742.9000000059605","79.23","img/117/2.5/1/bw/001.png","","","complex"
"","","","","","animation","40","533904","0.0-40.0","1920x1080","","23086.90000000596","38","img/238/4.5/2/bw/001.png","","","complex"
"","","","","","animation","41","545512","0.0-41.0","1920x1080","","11607.399999976158","66.27","img/117/2.5/2/bw/001.png","","","complex"
"","","","","","animation","42","560088","0.0-42.0","1920x1080","","14575.5","1","img/238/5.5/0.5/bw/001.png","","","complex"
"","","","","","animation","43","570352","0.0-43.0","1920x1080","","10262.800000011921","62.70","img/238/2.5/1.5/bw/001.png","","","complex"
"","","","","","animation","44","580864","0.0-44.0","1920x1080","","10511.100000023842","1","img/117/5.5/1/bw/001.png","","","complex"
"","","","","","animation","45","585480","0.0-45.0","1920x1080","","4615.199999988079","23.15","img/117/4/0.66667/bw/001.png","","","complex"
"","","","","","animation","46","599536","0.0-46.0","1920x1080","","14055.299999982119","9.26","img/314/5.5/2/bw/001.png","","","complex"
"","","","","","animation","47","604736","0.0-47.0","1920x1080","","5198.800000011921","38.36","img/314/4/0.66667/bw/001.png","","","complex"
"","","","","","animation","48","608360","0.0-48.0","1920x1080","","3623.7000000178814","45.63","img/117/3.5/0.5/bw/001.png","","","complex"
"","","","","","animation","49","612872","0.0-49.0","1920x1080","","4510.700000017881","68.39","img/238/2.5/2/bw/001.png","","","complex"
"","","","","","animation","50","618600","0.0-50.0","1920x1080","","5727.100000023842","54.63","img/314/4.5/1/bw/001.png","","","complex"
"","","","","","animation","51","624041","0.0-51.0","1920x1080","","5441","68.52","img/238/3.5/1/bw/001.png","","","complex"
"","","","","","animation","52","633297","0.0-52.0","1920x1080","","9253.5","11.51","img/314/5.5/1.5/bw/001.png","","","complex"
"","","","","","animation","53","640417","0.0-53.0","1920x1080","","7119.200000017881","61.77","img/117/3.5/1.5/bw/001.png","","","complex"
"","","","","","animation","54","650010","0.0-54.0","1920x1080","","9591.90000000596","81.35","img/314/2.5/1.5/bw/001.png","","","complex"
"","","","","","animation","55","657289","0.0-55.0","1920x1080","","7278.299999982119","25.00","img/238/4.5/1/bw/001.png","","","complex"
"","","","","","animation","56","661393","0.0-56.0","1920x1080","","4103.199999988079","32.41","img/238/4/0.5/bw/001.png","","","complex"
"","","","","","animation","57","665921","0.0-57.0","1920x1080","","4526.9000000059605","94.05","img/314/2.5/0.66667/bw/001.png","","","complex"
"","","","","","animation","58","672065","0.0-58.0","1920x1080","","6142.5999999940395","76.59","img/117/4.5/2/bw/001.png","","","complex"
"","","","","","animation","59","680521","0.0-59.0","1920x1080","","8455.5","89.95","img/238/3.5/0.66667/bw/001.png","","","complex"
"","","","","","animation","60","691410","0.0-60.0","1920x1080","","10888","50.40","img/238/4/2/bw/001.png","","","complex"
"","","","","","animation","61","704521","0.0-61.0","1920x1080","","13109.90000000596","42.20","img/314/4.5/1.5/bw/001.png","","","complex"
"","","","","","animation","62","721433","0.0-62.0","1920x1080","","16911.100000023842","1.72","img/238/5.5/1/bw/001.png","","","complex"
"","","","","","animation","63","736801","0.0-63.0","1920x1080","","15366.59999999404","71.30","img/238/2.5/0.5/bw/001.png","","","complex"
"","","","","","animation","64","742210","0.0-64.0","1920x1080","","5408.199999988079","58.60","img/314/4/1/bw/001.png","","","complex"
"","","","","","animation","65","746889","0.0-65.0","1920x1080","","4678.300000011921","73.02","img/117/4/0.5/bw/001.png","","","complex"
"","","","","","animation","66","753121","0.0-66.0","1920x1080","","6230.799999982119","5.82","img/238/5.5/1.5/bw/001.png","","","complex"
"","","","","","animation","67","758033","0.0-67.0","1920x1080","","4911.300000011921","73.02","img/238/3.5/0.5/bw/001.png","","","complex"
"","","","","","animation","68","765337","0.0-68.0","1920x1080","","7303","40","img/238/4.5/0.5/bw/001.png","","","complex"
"","","","","","animation","69","769049","0.0-69.0","1920x1080","","3711.100000023842","75.00","img/314/3.5/1/bw/001.png","","","complex"
"","","","","","animation","70","777033","0.0-70.0","1920x1080","","7983","42","img/117/4.5/0.66667/bw/001.png","","","complex"
"","","","","","animation","71","784297","0.0-71.0","1920x1080","","7263","56.35","img/314/2.5/1/bw/001.png","","","complex"
"","","","","","animation","72","789693","0.0-72.0","1920x1080","","5394.699999988079","47.88","img/314/3.5/1.5/bw/001.png","","","complex"
"","","","","","animation","73","800225","0.0-73.0","1920x1080","","10531.800000011921","45","img/238/4.5/0.66667/bw/001.png","","","complex"
"","","","","","animation","74","804097","0.0-74.0","1920x1080","","3871.0999999940395","25.79","img/238/4.5/1.5/bw/001.png","","","complex"
"","","","","","animation","75","806881","0.0-75.0","1920x1080","","2783","67.46","img/117/2.5/0.5/bw/001.png","","","complex"
"","","","","","animation","76","809921","0.0-76.0","1920x1080","","3039.4000000059605","64.29","img/238/2.5/0.66667/bw/001.png","","","complex"
"","","","","","animation","77","820050","0.0-77.0","1920x1080","","10127","8.33","img/314/5.5/1/bw/001.png","","","complex"
"","","","","","animation","78","827945","0.0-78.0","1920x1080","","7894.4000000059605","61.64","img/117/4.5/0.5/bw/001.png","","","complex"
"","","","","","animation","79","833553","0.0-79.0","1920x1080","","5607.5","64.55","img/314/4.5/0.5/bw/001.png","","","complex"
"","","","","","animation","80","849265","0.0-80.0","1920x1080","","15711","60.85","img/314/4/0.5/bw/001.png","","","complex"
"","","","","","animation","81","866625","0.0-81.0","1920x1080","","17358.90000000596","43.52","img/117/4.5/1.5/bw/001.png","","","complex"
"","","","","","html-button-response","82","886418","0.0-82.0","1920x1080","","19791.30000001192","","<div class=""intro"">You are about to view a new series of animations.<br><br></div><div class=""intro"">You will evaluate them based on a different descriptor.<br><br></div><div class=""intro"">Move the slider to indicate how <strong style=""text-transform:capitalize"">INTERESTING</strong> you find each animation.<br><br></div><div class=""intro"">0 = Least Interesting<br></div><div class=""intro"">1 = Most Interesting<br><br></div><div class=""intro"">Remember to use the <strong><em>entire range</em></strong> of the slider to make your ratings.<br></div><div class=""intro"">Please <strong><em>take your time</em></strong> and carefully consider each rating you make.<br><br></div>","0","",""
"","","","","","call-function","83","886419","0.0-83.0","1920x1080","","","","","","",""
"","","","","","animation","84","898643","0.0-84.0","1920x1080","","12223.5","40.21","img/314/4/1/bw/001.png","","","interesting"
"","","","","","animation","85","904154","0.0-85.0","1920x1080","","5509.4000000059605","44.18","img/117/3.5/0.5/bw/001.png","","","interesting"
"","","","","","animation","86","912627","0.0-86.0","1920x1080","","8471.5","60.45","img/314/3.5/2/bw/001.png","","","interesting"
"","","","","","animation","87","922418","0.0-87.0","1920x1080","","9790","46.96","img/117/5.5/1/bw/001.png","","","interesting"
"","","","","","animation","88","937649","0.0-88.0","1920x1080","","15230.90000000596","27.65","img/314/4.5/1.5/bw/001.png","","","interesting"
"","","","","","animation","89","955529","0.0-89.0","1920x1080","","17878.899999976158","85.58","img/314/5.5/1/bw/001.png","","","interesting"
"","","","","","animation","90","964337","0.0-90.0","1920x1080","","8807.09999999404","89","img/238/3.5/2/bw/001.png","","","interesting"
"","","","","","animation","91","970842","0.0-91.0","1920x1080","","6503.5","75.93","img/314/3.5/1.5/bw/001.png","","","interesting"
"","","","","","animation","92","988409","0.0-92.0","1920x1080","","17565.59999999404","99","img/238/5.5/1.5/bw/001.png","","","interesting"
"","","","","","animation","93","998954","0.0-93.0","1920x1080","","10543.200000017881","81.35","img/314/4.5/0.66667/bw/001.png","","","interesting"
"","","","","","animation","94","1006586","0.0-94.0","1920x1080","","7630.799999982119","8.73","img/238/4.5/2/bw/001.png","","","interesting"
"","","","","","animation","95","1011910","0.0-95.0","1920x1080","","5322.800000011921","27.25","img/117/4/0.66667/bw/001.png","","","interesting"
"","","","","","animation","96","1018626","0.0-96.0","1920x1080","","6714.5","100","img/238/5.5/0.66667/bw/001.png","","","interesting"
"","","","","","animation","97","1025082","0.0-97.0","1920x1080","","6455.299999982119","1.72","img/238/2.5/2/bw/001.png","","","interesting"
"","","","","","animation","98","1039514","0.0-98.0","1920x1080","","14430.90000000596","97","img/314/5.5/0.66667/bw/001.png","","","interesting"
"","","","","","animation","99","1053850","0.0-99.0","1920x1080","","14335","33.20","img/238/4.5/1.5/bw/001.png","","","interesting"
"","","","","","animation","100","1059450","0.0-100.0","1920x1080","","5598.5999999940395","51.32","img/314/3.5/0.5/bw/001.png","","","interesting"
"","","","","","animation","101","1064570","0.0-101.0","1920x1080","","5118.9000000059605","57.67","img/117/4/2/bw/001.png","","","interesting"
"","","","","","animation","102","1070925","0.0-102.0","1920x1080","","6353.799999982119","49.47","img/238/4/1/bw/001.png","","","interesting"
"","","","","","animation","103","1082577","0.0-103.0","1920x1080","","11651.699999988079","3","img/314/2.5/0.66667/bw/001.png","","","interesting"
"","","","","","animation","104","1087593","0.0-104.0","1920x1080","","5015","31.88","img/238/4/0.66667/bw/001.png","","","interesting"
"","","","","","animation","105","1098692","0.0-105.0","1920x1080","","11096.700000017881","92.86","img/117/5.5/2/bw/001.png","","","interesting"
"","","","","","animation","106","1116250","0.0-106.0","1920x1080","","17556.79999998212","97","img/238/5.5/1/bw/001.png","","","interesting"
"","","","","","animation","107","1121953","0.0-107.0","1920x1080","","5702.200000017881","12.30","img/117/2.5/0.5/bw/001.png","","","interesting"
"","","","","","animation","108","1136058","0.0-108.0","1920x1080","","14103.100000023842","79","img/314/5.5/0.5/bw/001.png","","","interesting"
"","","","","","animation","109","1150325","0.0-109.0","1920x1080","","14265.700000017881","35","img/314/5.5/1.5/bw/001.png","","","interesting"
"","","","","","animation","110","1156834","0.0-110.0","1920x1080","","6508.4000000059605","0.13","img/238/2.5/0.66667/bw/001.png","","","interesting"
"","","","","","animation","111","1161546","0.0-111.0","1920x1080","","4711","32.54","img/117/4.5/0.5/bw/001.png","","","interesting"
"","","","","","animation","112","1167802","0.0-112.0","1920x1080","","6255.100000023842","54.76","img/314/4.5/2/bw/001.png","","","interesting"
"","","","","","animation","113","1175410","0.0-113.0","1920x1080","","7606.200000017881","62.70","img/314/3.5/1/bw/001.png","","","interesting"
"","","","","","animation","114","1191570","0.0-114.0","1920x1080","","16159.5","100","img/238/5.5/2/bw/001.png","","","interesting"
"","","","","","animation","115","1201666","0.0-115.0","1920x1080","","10094.799999982119","80","img/117/4.5/2/bw/001.png","","","interesting"
"","","","","","animation","116","1207034","0.0-116.0","1920x1080","","5367","2.65","img/238/2.5/0.5/bw/001.png","","","interesting"
"","","","","","animation","117","1214242","0.0-117.0","1920x1080","","7206.5","29.10","img/238/3.5/1/bw/001.png","","","interesting"
"","","","","","animation","118","1220770","0.0-118.0","1920x1080","","6527.5","42.72","img/117/4.5/0.66667/bw/001.png","","","interesting"
"","","","","","animation","119","1226602","0.0-119.0","1920x1080","","5829.5","57.67","img/117/3.5/1.5/bw/001.png","","","interesting"
"","","","","","animation","120","1232642","0.0-120.0","1920x1080","","6038.700000017881","2.65","img/238/2.5/1/bw/001.png","","","interesting"
"","","","","","animation","121","1236915","0.0-121.0","1920x1080","","4271.300000011921","18.78","img/238/3.5/0.5/bw/001.png","","","interesting"
"","","","","","animation","122","1243099","0.0-122.0","1920x1080","","6183","27.38","img/238/3.5/1.5/bw/001.png","","","interesting"
"","","","","","animation","123","1249283","0.0-123.0","1920x1080","","6182.5","29.37","img/117/3.5/2/bw/001.png","","","interesting"
"","","","","","animation","124","1254867","0.0-124.0","1920x1080","","5582.9000000059605","46.69","img/117/3.5/1/bw/001.png","","","interesting"
"","","","","","animation","125","1270795","0.0-125.0","1920x1080","","15926.899999976158","73","img/238/4/0.5/bw/001.png","","","interesting"
"","","","","","animation","126","1274142","0.0-126.0","1920x1080","","3345.7999999821186","3.70","img/117/2.5/0.66667/bw/001.png","","","interesting"
"","","","","","animation","127","1290576","0.0-127.0","1920x1080","","16432.30000001192","99","img/117/4/1.5/bw/001.png","","","interesting"
"","","","","","animation","128","1299795","0.0-128.0","1920x1080","","9215.800000011921","83.60","img/314/4/0.66667/bw/001.png","","","interesting"
"","","","","","animation","129","1309251","0.0-129.0","1920x1080","","9455.200000017881","73.81","img/314/4/2/bw/001.png","","","interesting"
"","","","","","animation","130","1318342","0.0-130.0","1920x1080","","9089.199999988079","86.90","img/238/4.5/1/bw/001.png","","","interesting"
"","","","","","animation","131","1325275","0.0-131.0","1920x1080","","6931.799999982119","75.66","img/314/4/1.5/bw/001.png","","","interesting"
"","","","","","animation","132","1334587","0.0-132.0","1920x1080","","9310.800000011921","93","img/238/4.5/0.66667/bw/001.png","","","interesting"
"","","","","","animation","133","1341395","0.0-133.0","1920x1080","","6806","5.69","img/314/2.5/2/bw/001.png","","","interesting"
"","","","","","animation","134","1348243","0.0-134.0","1920x1080","","6846.699999988079","99","img/117/5.5/0.5/bw/001.png","","","interesting"
"","","","","","animation","135","1364899","0.0-135.0","1920x1080","","16655.30000001192","23.02","img/238/4/2/bw/001.png","","","interesting"
"","","","","","animation","136","1370195","0.0-136.0","1920x1080","","5294.5","2.51","img/117/2.5/1.5/bw/001.png","","","interesting"
"","","","","","animation","137","1381459","0.0-137.0","1920x1080","","11263","61.90","img/117/4.5/1.5/bw/001.png","","","interesting"
"","","","","","animation","138","1393708","0.0-138.0","1920x1080","","12248.800000011921","94","img/117/5.5/0.66667/bw/001.png","","","interesting"
"","","","","","animation","139","1401391","0.0-139.0","1920x1080","","7682.0999999940395","100","img/238/5.5/0.5/bw/001.png","","","interesting"
"","","","","","animation","140","1408467","0.0-140.0","1920x1080","","7074.5999999940395","49.07","img/238/3.5/0.66667/bw/001.png","","","interesting"
"","","","","","animation","141","1418227","0.0-141.0","1920x1080","","9758.40000000596","86.77","img/117/5.5/1.5/bw/001.png","","","interesting"
"","","","","","animation","142","1425427","0.0-142.0","1920x1080","","7197.799999982119","52.51","img/238/4/1.5/bw/001.png","","","interesting"
"","","","","","animation","143","1433675","0.0-143.0","1920x1080","","8247.09999999404","70.24","img/238/4.5/0.5/bw/001.png","","","interesting"
"","","","","","animation","144","1457525","0.0-144.0","1920x1080","","23848.40000000596","46.03","img/314/4.5/1/bw/001.png","","","interesting"
"","","","","","animation","145","1463192","0.0-145.0","1920x1080","","5665.800000011921","19","img/117/3.5/0.66667/bw/001.png","","","interesting"
"","","","","","animation","146","1468316","0.0-146.0","1920x1080","","5122.899999976158","65.61","img/117/4.5/1/bw/001.png","","","interesting"
"","","","","","animation","147","1472808","0.0-147.0","1920x1080","","4492.300000011921","57.94","img/314/4.5/0.5/bw/001.png","","","interesting"
"","","","","","animation","148","1478975","0.0-148.0","1920x1080","","6165.5999999940395","7.54","img/117/2.5/1/bw/001.png","","","interesting"
"","","","","","animation","149","1486051","0.0-149.0","1920x1080","","7074.799999982119","2.38","img/314/2.5/1.5/bw/001.png","","","interesting"
"","","","","","animation","150","1492391","0.0-150.0","1920x1080","","6338.9000000059605","22.62","img/314/4/0.5/bw/001.png","","","interesting"
"","","","","","animation","151","1496475","0.0-151.0","1920x1080","","4082.4000000059605","3.44","img/117/2.5/2/bw/001.png","","","interesting"
"","","","","","animation","152","1501779","0.0-152.0","1920x1080","","5303","34.39","img/314/3.5/0.66667/bw/001.png","","","interesting"
"","","","","","animation","153","1506558","0.0-153.0","1920x1080","","4778","42.33","img/117/4/0.5/bw/001.png","","","interesting"
"","","","","","animation","154","1512125","0.0-154.0","1920x1080","","5565.4000000059605","0.53","img/238/2.5/1.5/bw/001.png","","","interesting"
"","","","","","animation","155","1516683","0.0-155.0","1920x1080","","4555.9000000059605","0","img/314/2.5/1/bw/001.png","","","interesting"
"","","","","","animation","156","1521867","0.0-156.0","1920x1080","","5183.0999999940395","7.54","img/314/2.5/0.5/bw/001.png","","","interesting"
"","","","","","animation","157","1528531","0.0-157.0","1920x1080","","6662.5","79.10","img/117/4/1/bw/001.png","","","interesting"
"","","","","","animation","158","1540779","0.0-158.0","1920x1080","","12246.699999988079","76.85","img/314/5.5/2/bw/001.png","","","interesting"
"","","","","","html-button-response","159","1565420","0.0-159.0","1920x1080","","24639.09999999404","","<div class=""intro"">You are about to view a new series of animations.<br><br></div><div class=""intro"">You will evaluate them based on a different descriptor.<br><br></div><div class=""intro"">Move the slider to indicate how <strong style=""text-transform:capitalize"">RELAXING</strong> you find each animation.<br><br></div><div class=""intro"">0 = Least Relaxing<br></div><div class=""intro"">1 = Most Relaxing<br><br></div><div class=""intro"">Remember to use the <strong><em>entire range</em></strong> of the slider to make your ratings.<br></div><div class=""intro"">Please <strong><em>take your time</em></strong> and carefully consider each rating you make.<br><br></div>","0","",""
"","","","","","call-function","160","1565423","0.0-160.0","1920x1080","","","","","","",""
"","","","","","animation","161","1571075","0.0-161.0","1920x1080","","5651.4000000059605","0","img/117/2.5/1/bw/001.png","","","relaxing"
"","","","","","animation","162","1574515","0.0-162.0","1920x1080","","3439.100000023842","0.00","img/314/2.5/0.66667/bw/001.png","","","relaxing"
"","","","","","animation","163","1581483","0.0-163.0","1920x1080","","6966.799999982119","12.70","img/117/4/0.5/bw/001.png","","","relaxing"
"","","","","","animation","164","1585611","0.0-164.0","1920x1080","","4126.4000000059605","18.52","img/314/4.5/0.5/bw/001.png","","","relaxing"
"","","","","","animation","165","1590884","0.0-165.0","1920x1080","","5271.200000017881","20.24","img/238/2.5/1.5/bw/001.png","","","relaxing"
"","","","","","animation","166","1596564","0.0-166.0","1920x1080","","5678.5999999940395","55.82","img/238/4.5/0.66667/bw/001.png","","","relaxing"
"","","","","","animation","167","1601826","0.0-167.0","1920x1080","","5260.800000011921","63.62","img/238/4.5/1.5/bw/001.png","","","relaxing"
"","","","","","animation","168","1609525","0.0-168.0","1920x1080","","7698.5","63.76","img/238/4.5/1/bw/001.png","","","relaxing"
"","","","","","animation","169","1624426","0.0-169.0","1920x1080","","14899.40000000596","64.68","img/314/3.5/2/bw/001.png","","","relaxing"
"","","","","","animation","170","1633575","0.0-170.0","1920x1080","","9147.899999976158","95","img/314/5.5/1/bw/001.png","","","relaxing"
"","","","","","animation","171","1637996","0.0-171.0","1920x1080","","4418.5999999940395","7.01","img/117/2.5/1.5/bw/001.png","","","relaxing"
"","","","","","animation","172","1645375","0.0-172.0","1920x1080","","7376.800000011921","93.39","img/314/5.5/2/bw/001.png","","","relaxing"
"","","","","","animation","173","1650180","0.0-173.0","1920x1080","","4802.4000000059605","49.07","img/117/3.5/0.66667/bw/001.png","","","relaxing"
"","","","","","animation","174","1655358","0.0-174.0","1920x1080","","5177.4000000059605","53.97","img/314/4/0.66667/bw/001.png","","","relaxing"
"","","","","","animation","175","1661441","0.0-175.0","1920x1080","","6081.4000000059605","11.77","img/314/2.5/1.5/bw/001.png","","","relaxing"
"","","","","","animation","176","1667375","0.0-176.0","1920x1080","","5932.300000011921","73.68","img/117/5.5/0.5/bw/001.png","","","relaxing"
"","","","","","animation","177","1673741","0.0-177.0","1920x1080","","6365.5","42.06","img/117/3.5/0.5/bw/001.png","","","relaxing"
"","","","","","animation","178","1691795","0.0-178.0","1920x1080","","18052.90000000596","73.15","img/117/4/1.5/bw/001.png","","","relaxing"
"","","","","","animation","179","1709441","0.0-179.0","1920x1080","","17644.09999999404","63.23","img/238/3.5/1/bw/001.png","","","relaxing"
"","","","","","animation","180","1713748","0.0-180.0","1920x1080","","4305.5","65.21","img/314/4/1.5/bw/001.png","","","relaxing"
"","","","","","animation","181","1720725","0.0-181.0","1920x1080","","6974.899999976158","63","img/117/4/1/bw/001.png","","","relaxing"
"","","","","","animation","182","1725908","0.0-182.0","1920x1080","","5181.799999982119","1.72","img/238/2.5/0.66667/bw/001.png","","","relaxing"
"","","","","","animation","183","1734058","0.0-183.0","1920x1080","","8148.5999999940395","34.79","img/117/4.5/0.5/bw/001.png","","","relaxing"
"","","","","","animation","184","1739500","0.0-184.0","1920x1080","","5440.9000000059605","83.86","img/238/5.5/0.5/bw/001.png","","","relaxing"
"","","","","","animation","185","1749525","0.0-185.0","1920x1080","","10024","41.14","img/238/4/0.66667/bw/001.png","","","relaxing"
"","","","","","animation","186","1761425","0.0-186.0","1920x1080","","11898.199999988079","92","img/314/4/2/bw/001.png","","","relaxing"
"","","","","","animation","187","1772026","0.0-187.0","1920x1080","","10599","66","img/314/4.5/0.66667/bw/001.png","","","relaxing"
"","","","","","animation","188","1777533","0.0-188.0","1920x1080","","5505.699999988079","75.93","img/238/4/1/bw/001.png","","","relaxing"
"","","","","","animation","189","1785532","0.0-189.0","1920x1080","","7998.799999982119","0","img/314/2.5/0.5/bw/001.png","","","relaxing"
"","","","","","animation","190","1790892","0.0-190.0","1920x1080","","5358.0999999940395","62.04","img/117/3.5/2/bw/001.png","","","relaxing"
"","","","","","animation","191","1808628","0.0-191.0","1920x1080","","17734.79999998212","80.69","img/314/4.5/1.5/bw/001.png","","","relaxing"
"","","","","","animation","192","1832492","0.0-192.0","1920x1080","","23862","67","img/314/4/1/bw/001.png","","","relaxing"
"","","","","","animation","193","1835501","0.0-193.0","1920x1080","","3007.199999988079","0","img/117/2.5/0.5/bw/001.png","","","relaxing"
"","","","","","animation","194","1844511","0.0-194.0","1920x1080","","9009.40000000596","98","img/117/5.5/1.5/bw/001.png","","","relaxing"
"","","","","","animation","195","1849525","0.0-195.0","1920x1080","","5011.5","69.58","img/117/3.5/1/bw/001.png","","","relaxing"
"","","","","","animation","196","1857392","0.0-196.0","1920x1080","","7865.0999999940395","86.77","img/117/4.5/2/bw/001.png","","","relaxing"
"","","","","","animation","197","1865565","0.0-197.0","1920x1080","","8171.5999999940395","5.03","img/238/2.5/1/bw/001.png","","","relaxing"
"","","","","","animation","198","1870700","0.0-198.0","1920x1080","","5134.5","51","img/117/4/0.66667/bw/001.png","","","relaxing"
"","","","","","animation","199","1892742","0.0-199.0","1920x1080","","22040.30000001192","72.62","img/238/5.5/0.66667/bw/001.png","","","relaxing"
"","","","","","animation","200","1899676","0.0-200.0","1920x1080","","6932.4000000059605","18","img/238/4/0.5/bw/001.png","","","relaxing"
"","","","","","animation","201","1905262","0.0-201.0","1920x1080","","5584.200000017881","4","img/314/2.5/1/bw/001.png","","","relaxing"
"","","","","","animation","202","1914876","0.0-202.0","1920x1080","","9612.90000000596","100","img/238/5.5/2/bw/001.png","","","relaxing"
"","","","","","animation","203","1921460","0.0-203.0","1920x1080","","6582.700000017881","45.63","img/238/3.5/0.66667/bw/001.png","","","relaxing"
"","","","","","animation","204","1926225","0.0-204.0","1920x1080","","4763.4000000059605","10.71","img/238/2.5/2/bw/001.png","","","relaxing"
"","","","","","animation","205","1936558","0.0-205.0","1920x1080","","10332.09999999404","94.18","img/117/5.5/1/bw/001.png","","","relaxing"
"","","","","","animation","206","1941491","0.0-206.0","1920x1080","","4931.4000000059605","0.13","img/238/2.5/0.5/bw/001.png","","","relaxing"
"","","","","","animation","207","1948591","0.0-207.0","1920x1080","","7099.200000017881","76","img/117/4.5/1/bw/001.png","","","relaxing"
"","","","","","animation","208","1954901","0.0-208.0","1920x1080","","6307.800000011921","74.07","img/117/5.5/0.66667/bw/001.png","","","relaxing"
"","","","","","animation","209","1964333","0.0-209.0","1920x1080","","9430","71.69","img/314/5.5/0.5/bw/001.png","","","relaxing"
"","","","","","animation","210","1978225","0.0-210.0","1920x1080","","13889.399999976158","6.88","img/314/2.5/2/bw/001.png","","","relaxing"
"","","","","","animation","211","1993409","0.0-211.0","1920x1080","","15182.09999999404","100","img/238/5.5/1/bw/001.png","","","relaxing"
"","","","","","animation","212","2000343","0.0-212.0","1920x1080","","6932.4000000059605","13.76","img/117/2.5/2/bw/001.png","","","relaxing"
"","","","","","animation","213","2016809","0.0-213.0","1920x1080","","16463.80000001192","67.06","img/117/4.5/1.5/bw/001.png","","","relaxing"
"","","","","","animation","214","2020359","0.0-214.0","1920x1080","","3549.100000023842","77.91","img/314/4.5/1/bw/001.png","","","relaxing"
"","","","","","animation","215","2027659","0.0-215.0","1920x1080","","7298.5999999940395","0.13","img/117/2.5/0.66667/bw/001.png","","","relaxing"
"","","","","","animation","216","2034209","0.0-216.0","1920x1080","","6548.100000023842","100","img/238/5.5/1.5/bw/001.png","","","relaxing"
"","","","","","animation","217","2038426","0.0-217.0","1920x1080","","4215.300000011921","85.05","img/314/5.5/0.66667/bw/001.png","","","relaxing"
"","","","","","animation","218","2044150","0.0-218.0","1920x1080","","5722.800000011921","87.96","img/238/3.5/2/bw/001.png","","","relaxing"
"","","","","","animation","219","2050798","0.0-219.0","1920x1080","","6646.700000017881","83.60","img/238/4/1.5/bw/001.png","","","relaxing"
"","","","","","animation","220","2057198","0.0-220.0","1920x1080","","6398.5","90.61","img/238/4.5/2/bw/001.png","","","relaxing"
"","","","","","animation","221","2082150","0.0-221.0","1920x1080","","24951.40000000596","57.14","img/314/3.5/1/bw/001.png","","","relaxing"
"","","","","","animation","222","2087614","0.0-222.0","1920x1080","","5459.699999988079","38","img/238/4.5/0.5/bw/001.png","","","relaxing"
"","","","","","animation","223","2090942","0.0-223.0","1920x1080","","3326.7999999821186","62.30","img/238/3.5/1.5/bw/001.png","","","relaxing"
"","","","","","animation","224","2095750","0.0-224.0","1920x1080","","4806.699999988079","55.16","img/117/3.5/1.5/bw/001.png","","","relaxing"
"","","","","","animation","225","2098414","0.0-225.0","1920x1080","","2662.5","27.91","img/238/3.5/0.5/bw/001.png","","","relaxing"
"","","","","","animation","226","2101998","0.0-226.0","1920x1080","","3582.800000011921","28.57","img/314/3.5/0.5/bw/001.png","","","relaxing"
"","","","","","animation","227","2107461","0.0-227.0","1920x1080","","5462.5","22","img/314/4/0.5/bw/001.png","","","relaxing"
"","","","","","animation","228","2114246","0.0-228.0","1920x1080","","6782.5999999940395","86.11","img/314/5.5/1.5/bw/001.png","","","relaxing"
"","","","","","animation","229","2118276","0.0-229.0","1920x1080","","4028.5","90.61","img/117/4/2/bw/001.png","","","relaxing"
"","","","","","animation","230","2124342","0.0-230.0","1920x1080","","6065.200000017881","42.06","img/314/3.5/0.66667/bw/001.png","","","relaxing"
"","","","","","animation","231","2128759","0.0-231.0","1920x1080","","4415.4000000059605","75.79","img/238/4/2/bw/001.png","","","relaxing"
"","","","","","animation","232","2139214","0.0-232.0","1920x1080","","10453.699999988079","83.86","img/117/5.5/2/bw/001.png","","","relaxing"
"","","","","","animation","233","2154534","0.0-233.0","1920x1080","","15318.59999999404","91.01","img/314/4.5/2/bw/001.png","","","relaxing"
"","","","","","animation","234","2163492","0.0-234.0","1920x1080","","8956.59999999404","65.34","img/117/4.5/0.66667/bw/001.png","","","relaxing"
"","","","","","animation","235","2174542","0.0-235.0","1920x1080","","11048.5","55.56","img/314/3.5/1.5/bw/001.png","","","relaxing"
"","","","","","html-button-response","236","2195262","0.0-236.0","1920x1080","","20718.59999999404","","<div class=""intro"">You are about to view a new series of animations.<br><br></div><div class=""intro"">You will evaluate them based on a different descriptor.<br><br></div><div class=""intro"">Move the slider to indicate how <strong style=""text-transform:capitalize"">APPEALING</strong> you find each animation.<br><br></div><div class=""intro"">0 = Least Appealing<br></div><div class=""intro"">1 = Most Appealing<br><br></div><div class=""intro"">Remember to use the <strong><em>entire range</em></strong> of the slider to make your ratings.<br></div><div class=""intro"">Please <strong><em>take your time</em></strong> and carefully consider each rating you make.<br><br></div>","0","",""
"","","","","","call-function","237","2195264","0.0-237.0","1920x1080","","","","","","",""
"","","","","","animation","238","2203310","0.0-238.0","1920x1080","","8044.5","83.20","img/238/5.5/0.5/bw/001.png","","","appealing"
"","","","","","animation","239","2211392","0.0-239.0","1920x1080","","8081.0999999940395","83.47","img/314/5.5/1.5/bw/001.png","","","appealing"
"","","","","","animation","240","2216176","0.0-240.0","1920x1080","","4782.0999999940395","2.51","img/117/2.5/1.5/bw/001.png","","","appealing"
"","","","","","animation","241","2219966","0.0-241.0","1920x1080","","3789.2999999821186","64.29","img/238/4.5/0.5/bw/001.png","","","appealing"
"","","","","","animation","242","2225750","0.0-242.0","1920x1080","","5782.5999999940395","40.08","img/117/3.5/0.5/bw/001.png","","","appealing"
"","","","","","animation","243","2230062","0.0-243.0","1920x1080","","4310.5999999940395","58.07","img/314/4.5/0.5/bw/001.png","","","appealing"
"","","","","","animation","244","2239598","0.0-244.0","1920x1080","","9534.699999988079","90","img/314/4.5/2/bw/001.png","","","appealing"
"","","","","","animation","245","2242326","0.0-245.0","1920x1080","","2725.2999999821186","3.04","img/314/2.5/1/bw/001.png","","","appealing"
"","","","","","animation","246","2245646","0.0-246.0","1920x1080","","3319.0999999940395","5.56","img/238/2.5/1.5/bw/001.png","","","appealing"
"","","","","","animation","247","2248242","0.0-247.0","1920x1080","","2594.9000000059605","0.13","img/238/2.5/0.66667/bw/001.png","","","appealing"
"","","","","","animation","248","2255263","0.0-248.0","1920x1080","","7018.5","100","img/314/4.5/1.5/bw/001.png","","","appealing"
"","","","","","animation","249","2262559","0.0-249.0","1920x1080","","7294.800000011921","28","img/314/3.5/0.66667/bw/001.png","","","appealing"
"","","","","","animation","250","2265950","0.0-250.0","1920x1080","","3389.9000000059605","17.99","img/238/3.5/0.5/bw/001.png","","","appealing"
"","","","","","animation","251","2276951","0.0-251.0","1920x1080","","10998.800000011921","63.76","img/314/5.5/0.66667/bw/001.png","","","appealing"
"","","","","","animation","252","2288559","0.0-252.0","1920x1080","","11606.09999999404","88.36","img/238/5.5/1.5/bw/001.png","","","appealing"
"","","","","","animation","253","2293510","0.0-253.0","1920x1080","","4949.9000000059605","8.47","img/238/2.5/1/bw/001.png","","","appealing"
"","","","","","animation","254","2298415","0.0-254.0","1920x1080","","4902.899999976158","56.61","img/238/4/1/bw/001.png","","","appealing"
"","","","","","animation","255","2305942","0.0-255.0","1920x1080","","7526.4000000059605","90.74","img/117/5.5/1.5/bw/001.png","","","appealing"
"","","","","","animation","256","2318926","0.0-256.0","1920x1080","","12982.40000000596","66.67","img/238/4.5/0.66667/bw/001.png","","","appealing"
"","","","","","animation","257","2322431","0.0-257.0","1920x1080","","3501.899999976158","0.00","img/238/2.5/0.5/bw/001.png","","","appealing"
"","","","","","animation","258","2334759","0.0-258.0","1920x1080","","12327.300000011921","100","img/117/4/2/bw/001.png","","","appealing"
"","","","","","animation","259","2346159","0.0-259.0","1920x1080","","11398.300000011921","83.33","img/117/4/1.5/bw/001.png","","","appealing"
"","","","","","animation","260","2352631","0.0-260.0","1920x1080","","6469.799999982119","90.48","img/314/3.5/1.5/bw/001.png","","","appealing"
"","","","","","animation","261","2367326","0.0-261.0","1920x1080","","14693.5","89","img/117/5.5/1/bw/001.png","","","appealing"
"","","","","","animation","262","2373510","0.0-262.0","1920x1080","","6182.5","88.89","img/314/5.5/1/bw/001.png","","","appealing"
"","","","","","animation","263","2379478","0.0-263.0","1920x1080","","5966.5","71","img/238/4.5/2/bw/001.png","","","appealing"
"","","","","","animation","264","2382492","0.0-264.0","1920x1080","","3012.699999988079","3.17","img/314/2.5/1.5/bw/001.png","","","appealing"
"","","","","","animation","265","2388809","0.0-265.0","1920x1080","","6315.199999988079","68.92","img/117/4.5/1/bw/001.png","","","appealing"
"","","","","","animation","266","2396942","0.0-266.0","1920x1080","","8132.199999988079","96","img/238/5.5/0.66667/bw/001.png","","","appealing"
"","","","","","animation","267","2402598","0.0-267.0","1920x1080","","5654.4000000059605","89.68","img/117/3.5/1.5/bw/001.png","","","appealing"
"","","","","","animation","268","2405725","0.0-268.0","1920x1080","","3125","0","img/117/2.5/0.5/bw/001.png","","","appealing"
"","","","","","animation","269","2412409","0.0-269.0","1920x1080","","6681.799999982119","99","img/314/3.5/2/bw/001.png","","","appealing"
"","","","","","animation","270","2417598","0.0-270.0","1920x1080","","5187.699999988079","5.56","img/117/2.5/1/bw/001.png","","","appealing"
"","","","","","animation","271","2422592","0.0-271.0","1920x1080","","4991.700000017881","9.39","img/238/2.5/2/bw/001.png","","","appealing"
"","","","","","animation","272","2436259","0.0-272.0","1920x1080","","13665.5","100","img/238/4.5/1.5/bw/001.png","","","appealing"
"","","","","","animation","273","2444009","0.0-273.0","1920x1080","","7748.0999999940395","94.05","img/238/4.5/1/bw/001.png","","","appealing"
"","","","","","animation","274","2451214","0.0-274.0","1920x1080","","7204.0999999940395","85.71","img/314/5.5/2/bw/001.png","","","appealing"
"","","","","","animation","275","2476775","0.0-275.0","1920x1080","","25558.90000000596","39","img/238/4/0.66667/bw/001.png","","","appealing"
"","","","","","animation","276","2481375","0.0-276.0","1920x1080","","4596.4000000059605","49","img/117/4/0.5/bw/001.png","","","appealing"
"","","","","","animation","277","2486425","0.0-277.0","1920x1080","","5048","81.88","img/314/4.5/1/bw/001.png","","","appealing"
"","","","","","animation","278","2491342","0.0-278.0","1920x1080","","4916.0999999940395","75.26","img/314/4/1.5/bw/001.png","","","appealing"
"","","","","","animation","279","2502815","0.0-279.0","1920x1080","","11471","82.54","img/238/3.5/2/bw/001.png","","","appealing"
"","","","","","animation","280","2510942","0.0-280.0","1920x1080","","8124.300000011921","74","img/117/3.5/0.66667/bw/001.png","","","appealing"
"","","","","","animation","281","2515009","0.0-281.0","1920x1080","","4065.699999988079","69.31","img/117/5.5/0.5/bw/001.png","","","appealing"
"","","","","","animation","282","2521265","0.0-282.0","1920x1080","","6254.0999999940395","42.46","img/238/3.5/0.66667/bw/001.png","","","appealing"
"","","","","","animation","283","2528031","0.0-283.0","1920x1080","","6763.199999988079","60.85","img/117/4.5/1.5/bw/001.png","","","appealing"
"","","","","","animation","284","2537279","0.0-284.0","1920x1080","","9246.299999982119","57.54","img/314/3.5/1/bw/001.png","","","appealing"
"","","","","","animation","285","2547226","0.0-285.0","1920x1080","","9945.5","58.47","img/117/3.5/1/bw/001.png","","","appealing"
"","","","","","animation","286","2551846","0.0-286.0","1920x1080","","4619","86.24","img/117/4.5/2/bw/001.png","","","appealing"
"","","","","","animation","287","2558536","0.0-287.0","1920x1080","","6688.5999999940395","2.65","img/314/2.5/2/bw/001.png","","","appealing"
"","","","","","animation","288","2562847","0.0-288.0","1920x1080","","4308.300000011921","4.10","img/117/2.5/2/bw/001.png","","","appealing"
"","","","","","animation","289","2565711","0.0-289.0","1920x1080","","2862.199999988079","0","img/117/2.5/0.66667/bw/001.png","","","appealing"
"","","","","","animation","290","2585859","0.0-290.0","1920x1080","","20146.29999998212","96","img/238/5.5/2/bw/001.png","","","appealing"
"","","","","","animation","291","2590231","0.0-291.0","1920x1080","","4370.9000000059605","46.83","img/314/4/0.5/bw/001.png","","","appealing"
"","","","","","animation","292","2595581","0.0-292.0","1920x1080","","5348.9000000059605","71.96","img/238/3.5/1.5/bw/001.png","","","appealing"
"","","","","","animation","293","2602113","0.0-293.0","1920x1080","","6529.399999976158","48.94","img/117/4.5/0.5/bw/001.png","","","appealing"
"","","","","","animation","294","2611743","0.0-294.0","1920x1080","","9628.800000011921","78.31","img/238/5.5/1/bw/001.png","","","appealing"
"","","","","","animation","295","2616282","0.0-295.0","1920x1080","","4536.5","1.19","img/314/2.5/0.66667/bw/001.png","","","appealing"
"","","","","","animation","296","2619946","0.0-296.0","1920x1080","","3661.899999976158","63.76","img/117/4/0.66667/bw/001.png","","","appealing"
"","","","","","animation","297","2622816","0.0-297.0","1920x1080","","2868.5","0.13","img/314/2.5/0.5/bw/001.png","","","appealing"
"","","","","","animation","298","2630127","0.0-298.0","1920x1080","","7310.0999999940395","90.08","img/238/4/2/bw/001.png","","","appealing"
"","","","","","animation","299","2639976","0.0-299.0","1920x1080","","9846.799999982119","87.30","img/117/5.5/2/bw/001.png","","","appealing"
"","","","","","animation","300","2644449","0.0-300.0","1920x1080","","4471.700000017881","85.85","img/117/4/1/bw/001.png","","","appealing"
"","","","","","animation","301","2652376","0.0-301.0","1920x1080","","7924.799999982119","50","img/314/4.5/0.66667/bw/001.png","","","appealing"
"","","","","","animation","302","2659847","0.0-302.0","1920x1080","","7470.4000000059605","80.16","img/238/4/1.5/bw/001.png","","","appealing"
"","","","","","animation","303","2666216","0.0-303.0","1920x1080","","6366.699999988079","84.66","img/314/4/2/bw/001.png","","","appealing"
"","","","","","animation","304","2673742","0.0-304.0","1920x1080","","7525.4000000059605","50.26","img/238/4/0.5/bw/001.png","","","appealing"
"","","","","","animation","305","2680729","0.0-305.0","1920x1080","","6985.199999988079","69.44","img/117/3.5/2/bw/001.png","","","appealing"
"","","","","","animation","306","2692468","0.0-306.0","1920x1080","","11737.09999999404","46.30","img/314/5.5/0.5/bw/001.png","","","appealing"
"","","","","","animation","307","2698415","0.0-307.0","1920x1080","","5945.0999999940395","61.38","img/117/5.5/0.66667/bw/001.png","","","appealing"
"","","","","","animation","308","2710499","0.0-308.0","1920x1080","","12082","72.09","img/314/4/0.66667/bw/001.png","","","appealing"
"","","","","","animation","309","2716216","0.0-309.0","1920x1080","","5714.300000011921","88","img/314/4/1/bw/001.png","","","appealing"
"","","","","","animation","310","2720558","0.0-310.0","1920x1080","","4341.199999988079","37.04","img/314/3.5/0.5/bw/001.png","","","appealing"
"","","","","","animation","311","2723409","0.0-311.0","1920x1080","","2849.100000023842","44.58","img/117/4.5/0.66667/bw/001.png","","","appealing"
"","","","","","animation","312","2727425","0.0-312.0","1920x1080","","4014.800000011921","49.87","img/238/3.5/1/bw/001.png","","","appealing"
"","","","","","html-button-response","313","2746175","0.0-313.0","1920x1080","","18748.09999999404","","<div class=""intro"">You are about to view a new series of animations.<br><br></div><div class=""intro"">You will evaluate them based on a different descriptor.<br><br></div><div class=""intro"">Move the slider to indicate how <strong style=""text-transform:capitalize"">NATURAL</strong> you find each animation.<br><br></div><div class=""intro"">0 = Least Natural<br></div><div class=""intro"">1 = Most Natural<br><br></div><div class=""intro"">Remember to use the <strong><em>entire range</em></strong> of the slider to make your ratings.<br></div><div class=""intro"">Please <strong><em>take your time</em></strong> and carefully consider each rating you make.<br><br></div>","0","",""
"","","","","","call-function","314","2746176","0.0-314.0","1920x1080","","","","","","",""
"","","","","","animation","315","2752664","0.0-315.0","1920x1080","","6487.4000000059605","50.00","img/238/5.5/1.5/bw/001.png","","","natural"
"","","","","","animation","316","2757392","0.0-316.0","1920x1080","","4726.100000023842","30.03","img/314/3.5/0.66667/bw/001.png","","","natural"
"","","","","","animation","317","2761192","0.0-317.0","1920x1080","","3798.2999999821186","75.93","img/117/4/2/bw/001.png","","","natural"
"","","","","","animation","318","2763711","0.0-318.0","1920x1080","","2517.4000000059605","0","img/117/2.5/0.5/bw/001.png","","","natural"
"","","","","","animation","319","2766325","0.0-319.0","1920x1080","","2612.5999999940395","13.62","img/117/3.5/1/bw/001.png","","","natural"
"","","","","","animation","320","2768578","0.0-320.0","1920x1080","","2251.7999999821186","2.51","img/314/2.5/1/bw/001.png","","","natural"
"","","","","","animation","321","2771024","0.0-321.0","1920x1080","","2444.699999988079","19.18","img/117/3.5/0.66667/bw/001.png","","","natural"
"","","","","","animation","322","2773225","0.0-322.0","1920x1080","","2199.0999999940395","26.32","img/117/4/0.66667/bw/001.png","","","natural"
"","","","","","animation","323","2778163","0.0-323.0","1920x1080","","4936.300000011921","61.90","img/117/2.5/1.5/bw/001.png","","","natural"
"","","","","","animation","324","2781825","0.0-324.0","1920x1080","","3661.4000000059605","66.14","img/117/4.5/0.66667/bw/001.png","","","natural"
"","","","","","animation","325","2787209","0.0-325.0","1920x1080","","5382.199999988079","85.05","img/314/5.5/1.5/bw/001.png","","","natural"
"","","","","","animation","326","2794264","0.0-326.0","1920x1080","","7053.300000011921","96","img/314/3.5/1.5/bw/001.png","","","natural"
"","","","","","animation","327","2798520","0.0-327.0","1920x1080","","4253.9000000059605","36.77","img/238/4/1/bw/001.png","","","natural"
"","","","","","animation","328","2803118","0.0-328.0","1920x1080","","4596.9000000059605","0","img/117/2.5/0.66667/bw/001.png","","","natural"
"","","","","","animation","329","2810893","0.0-329.0","1920x1080","","7773.199999988079","4","img/238/4.5/0.5/bw/001.png","","","natural"
"","","","","","animation","330","2813426","0.0-330.0","1920x1080","","2531.800000011921","0","img/314/2.5/0.66667/bw/001.png","","","natural"
"","","","","","animation","331","2817080","0.0-331.0","1920x1080","","3652.4000000059605","92.72","img/314/4.5/1.5/bw/001.png","","","natural"
"","","","","","animation","332","2819548","0.0-332.0","1920x1080","","2466","4.76","img/238/2.5/1/bw/001.png","","","natural"
"","","","","","animation","333","2828360","0.0-333.0","1920x1080","","8810.40000000596","77.91","img/314/2.5/2/bw/001.png","","","natural"
"","","","","","animation","334","2832928","0.0-334.0","1920x1080","","4566.5999999940395","18.52","img/117/3.5/0.5/bw/001.png","","","natural"
"","","","","","animation","335","2838176","0.0-335.0","1920x1080","","5246.5","82.94","img/238/5.5/1/bw/001.png","","","natural"
"","","","","","animation","336","2842328","0.0-336.0","1920x1080","","4149.699999988079","50.53","img/314/3.5/1/bw/001.png","","","natural"
"","","","","","animation","337","2847801","0.0-337.0","1920x1080","","5471.5","98","img/314/5.5/1/bw/001.png","","","natural"
"","","","","","animation","338","2861376","0.0-338.0","1920x1080","","13573.40000000596","49.34","img/117/3.5/2/bw/001.png","","","natural"
"","","","","","animation","339","2866080","0.0-339.0","1920x1080","","4701.700000017881","56.22","img/238/4.5/1/bw/001.png","","","natural"
"","","","","","animation","340","2871200","0.0-340.0","1920x1080","","5117.399999976158","29.50","img/314/3.5/2/bw/001.png","","","natural"
"","","","","","animation","341","2874080","0.0-341.0","1920x1080","","2877.600000023842","85.32","img/314/5.5/0.66667/bw/001.png","","","natural"
"","","","","","animation","342","2877226","0.0-342.0","1920x1080","","3143.5","10.45","img/117/4/0.5/bw/001.png","","","natural"
"","","","","","animation","343","2882993","0.0-343.0","1920x1080","","5765.199999988079","78.17","img/117/4/1.5/bw/001.png","","","natural"
"","","","","","animation","344","2886209","0.0-344.0","1920x1080","","3214.2999999821186","5.56","img/314/4/0.5/bw/001.png","","","natural"
"","","","","","animation","345","2888609","0.0-345.0","1920x1080","","2399.199999988079","21.03","img/238/4/0.66667/bw/001.png","","","natural"
"","","","","","animation","346","2892944","0.0-346.0","1920x1080","","4333.199999988079","86.90","img/238/3.5/2/bw/001.png","","","natural"
"","","","","","animation","347","2896243","0.0-347.0","1920x1080","","3297.699999988079","29.63","img/238/2.5/1.5/bw/001.png","","","natural"
"","","","","","animation","348","2900425","0.0-348.0","1920x1080","","4180.800000011921","100","img/117/5.5/1.5/bw/001.png","","","natural"
"","","","","","animation","349","2903010","0.0-349.0","1920x1080","","2582.2999999821186","20.37","img/314/3.5/0.5/bw/001.png","","","natural"
"","","","","","animation","350","2908952","0.0-350.0","1920x1080","","5940.9000000059605","84","img/117/5.5/1/bw/001.png","","","natural"
"","","","","","animation","351","2913013","0.0-351.0","1920x1080","","4059.2000000178814","25","img/238/4/0.5/bw/001.png","","","natural"
"","","","","","animation","352","2917593","0.0-352.0","1920x1080","","4578.9000000059605","70","img/117/5.5/0.66667/bw/001.png","","","natural"
"","","","","","animation","353","2922075","0.0-353.0","1920x1080","","4480.5","98","img/314/4/2/bw/001.png","","","natural"
"","","","","","animation","354","2924501","0.0-354.0","1920x1080","","2424","39.95","img/238/4.5/0.66667/bw/001.png","","","natural"
"","","","","","animation","355","2929136","0.0-355.0","1920x1080","","4633.800000011921","43.39","img/314/4/1/bw/001.png","","","natural"
"","","","","","animation","356","2933585","0.0-356.0","1920x1080","","4447.4000000059605","21.30","img/238/3.5/0.5/bw/001.png","","","natural"
"","","","","","animation","357","2941871","0.0-357.0","1920x1080","","8283","66.40","img/314/5.5/0.5/bw/001.png","","","natural"
"","","","","","animation","358","2955301","0.0-358.0","1920x1080","","13428.699999988079","79","img/117/4.5/2/bw/001.png","","","natural"
"","","","","","animation","359","2960712","0.0-359.0","1920x1080","","5409.5999999940395","82.28","img/238/4/1.5/bw/001.png","","","natural"
"","","","","","animation","360","2963562","0.0-360.0","1920x1080","","2848.4000000059605","24.87","img/314/4/0.66667/bw/001.png","","","natural"
"","","","","","animation","361","2966530","0.0-361.0","1920x1080","","2965.7000000178814","41.14","img/238/5.5/0.5/bw/001.png","","","natural"
"","","","","","animation","362","2971536","0.0-362.0","1920x1080","","5012.5999999940395","100","img/314/4.5/2/bw/001.png","","","natural"
"","","","","","animation","363","2977850","0.0-363.0","1920x1080","","6311.700000017881","46.83","img/314/2.5/1.5/bw/001.png","","","natural"
"","","","","","animation","364","2987385","0.0-364.0","1920x1080","","9533.5","63","img/117/4/1/bw/001.png","","","natural"
"","","","","","animation","365","2992911","0.0-365.0","1920x1080","","5524","55.42","img/238/5.5/0.66667/bw/001.png","","","natural"
"","","","","","animation","366","2995730","0.0-366.0","1920x1080","","2817.2999999821186","61.51","img/238/2.5/2/bw/001.png","","","natural"
"","","","","","animation","367","2999243","0.0-367.0","1920x1080","","3512.0999999940395","71.30","img/117/5.5/2/bw/001.png","","","natural"
"","","","","","animation","368","3002442","0.0-368.0","1920x1080","","3197","0","img/238/2.5/0.66667/bw/001.png","","","natural"
"","","","","","animation","369","3017288","0.0-369.0","1920x1080","","14843.90000000596","70","img/117/4.5/1/bw/001.png","","","natural"
"","","","","","animation","370","3035396","0.0-370.0","1920x1080","","18098.19999998808","80","img/314/5.5/2/bw/001.png","","","natural"
"","","","","","animation","371","3041009","0.0-371.0","1920x1080","","5612.0999999940395","0","img/314/2.5/0.5/bw/001.png","","","natural"
"","","","","","animation","372","3043696","0.0-372.0","1920x1080","","2684.9000000059605","6.35","img/238/3.5/0.66667/bw/001.png","","","natural"
"","","","","","animation","373","3046312","0.0-373.0","1920x1080","","2613.9000000059605","17.72","img/117/2.5/2/bw/001.png","","","natural"
"","","","","","animation","374","3049728","0.0-374.0","1920x1080","","3415.100000023842","23.02","img/117/4.5/0.5/bw/001.png","","","natural"
"","","","","","animation","375","3055426","0.0-375.0","1920x1080","","5691","27.25","img/314/4.5/1/bw/001.png","","","natural"
"","","","","","animation","376","3063997","0.0-376.0","1920x1080","","8568.90000000596","90.48","img/238/5.5/2/bw/001.png","","","natural"
"","","","","","animation","377","3073275","0.0-377.0","1920x1080","","9273.899999976158","64.81","img/117/4.5/1.5/bw/001.png","","","natural"
"","","","","","animation","378","3077530","0.0-378.0","1920x1080","","4253.4000000059605","4.63","img/117/2.5/1/bw/001.png","","","natural"
"","","","","","animation","379","3081159","0.0-379.0","1920x1080","","3627.300000011921","0.53","img/238/2.5/0.5/bw/001.png","","","natural"
"","","","","","animation","380","3086608","0.0-380.0","1920x1080","","5447.4000000059605","50.79","img/314/4.5/0.66667/bw/001.png","","","natural"
"","","","","","animation","381","3092810","0.0-381.0","1920x1080","","6199.9000000059605","78.57","img/238/4.5/2/bw/001.png","","","natural"
"","","","","","animation","382","3098835","0.0-382.0","1920x1080","","6023.300000011921","90.21","img/238/4/2/bw/001.png","","","natural"
"","","","","","animation","383","3105776","0.0-383.0","1920x1080","","6938.800000011921","91","img/238/3.5/1.5/bw/001.png","","","natural"
"","","","","","animation","384","3109825","0.0-384.0","1920x1080","","4046.699999988079","99","img/238/4.5/1.5/bw/001.png","","","natural"
"","","","","","animation","385","3113445","0.0-385.0","1920x1080","","3618.699999988079","66.67","img/117/5.5/0.5/bw/001.png","","","natural"
"","","","","","animation","386","3123296","0.0-386.0","1920x1080","","9849.399999976158","75.40","img/314/4/1.5/bw/001.png","","","natural"
"","","","","","animation","387","3130496","0.0-387.0","1920x1080","","7197.4000000059605","55.42","img/238/3.5/1/bw/001.png","","","natural"
"","","","","","animation","388","3132976","0.0-388.0","1920x1080","","2478.2000000178814","31.35","img/117/3.5/1.5/bw/001.png","","","natural"
"","","","","","animation","389","3137743","0.0-389.0","1920x1080","","4765.299999982119","14.02","img/314/4.5/0.5/bw/001.png","","","natural"
"","","","","","html-button-response","390","3167433","0.0-390.0","1920x1080","","29687.80000001192","","<strong>Study Debriefing</strong><br><p class=""debrief""><strong>Background:</strong> The patterns you rated are called <em>fractals</em>. The term fractal describes a class of irregular curves or shapes for which any suitably chosen part is similar in shape to a given larger or smaller part when magnified or reduced to the same size. Fractal properties are found throughout the natural and manmade world. The series of animations you saw today displayed animated fractal patterns of a varying complexity.</p><p class=""debrief""><strong>Purpose of this study:</strong> We hope to better understand how the perception of static fractals differs from the perception of animated fractals, and how the speed of the animated patterns influences people&apos;s perception of them. Fractals allow us to study the perception of aesthetic properties (e.g. the perceived level of beauty in an image) without using recognizable content, which makes them an excellent tool for studying abstract aesthetic judgement.</p><p class=""debrief""><strong>Your part:</strong> Your participation has helped us to further understand how humans perceive these patterns across different levels of speed and complexity. This research with allow us to better understand how the visual system and brain process our ever-changing visual environments.<p class=""debrief""><strong>Feedback and Further information:</strong> If you have additional questions about this study, please feel free to ask the researcher, Nathan Gonzales-Hess at nhess @ uoregon.edu. If you have any questions concerning your rights as a research participant, please contact Research Compliance Services, 5237 University of Oregon, Eugene, OR 97403, 541-346-2510, or email researchCompliance @ uoregon.edu. You can also email the Human Subjects Coordinator for psychology and linguistics research at hscoord @ uoregon.edu. ","0","",""
"","","","","","html-button-response","391","3170111","0.0-391.0","1920x1080","","2673.2000000178814","","Thank you for participating in this study. <br>Please click below to finish the experiment and submit your responses.<br><br>","0","",""
"true","","","","","fullscreen","392","3171124","0.0-392.0","1920x1080","10:31 23/5/2022","","","","","",""
