"success","timeout","failed_images","failed_audio","failed_video","trial_type","trial_index","time_elapsed","internal_node_id","resolution","timeStamp","rt","response","stimulus","button_pressed","value","descriptor"
"true","false","[]","[]","[]","preload","0","30933","0.0-0.0","1920x1080","","","","","","",""
"true","false","[]","[]","[]","preload","1","61061","0.0-1.0","1920x1080","","","","","","",""
"true","false","[]","[]","[]","preload","2","92667","0.0-2.0","1920x1080","","","","","","",""
"true","","","","","fullscreen","3","99361","0.0-3.0","1920x1080","12:56 17/10/2022","","","","","",""
"","","","","","survey-html-form","4","114970","0.0-4.0","1920x1080","","15606.199999988079","{""age"":""22"",""gender"":""nonbinary""}","","","",""
"","","","","","html-button-response","5","169845","0.0-5.0","1920x1080","","54878.80000001192","","<div class=""complex"">You are going to see a series of animations.<br><br></div><div class=""complex"">Move the slider to indicate how <strong style=""text-transform:capitalize"">COMPLEX</strong> you find each animation.<br><br></div><div class=""complex"">0 = Least Complex<br></div><div class=""complex"">1 = Most Complex<br><br></div><div class=""complex"">Remember to use the <strong><em>entire range</em></strong> of the slider to make your ratings.<br></div><div class=""complex"">Please <strong><em>take your time</em></strong> and carefully consider each rating you make.<br><br></div><div class=""complex"">The study has five sections and will take about 45 minutes to complete.<br><br></div>","0","",""
"","","","","","call-function","6","169846","0.0-6.0","1920x1080","","","","","","",""
"","","","","","animation","7","179478","0.0-7.0","1920x1080","","9628.900000035763","9.26","img/314/5.5/0.66667/bw/001.png","","","complex"
"","","","","","animation","8","183782","0.0-8.0","1920x1080","","4302.100000023842","94","img/117/2.5/2/bw/001.png","","","complex"
"","","","","","animation","9","187694","0.0-9.0","1920x1080","","3911.199999988079","6.35","img/238/5.5/2/bw/001.png","","","complex"
"","","","","","animation","10","192341","0.0-10.0","1920x1080","","4646.5","12.96","img/117/5.5/0.5/bw/001.png","","","complex"
"","","","","","animation","11","197365","0.0-11.0","1920x1080","","5023.300000011921","84","img/238/3.5/0.5/bw/001.png","","","complex"
"","","","","","animation","12","202206","0.0-12.0","1920x1080","","4839.5","9.26","img/238/5.5/0.5/bw/001.png","","","complex"
"","","","","","animation","13","206558","0.0-13.0","1920x1080","","4351.300000011921","89.55","img/117/4/0.5/bw/001.png","","","complex"
"","","","","","animation","14","210974","0.0-14.0","1920x1080","","4414.800000011921","77.38","img/117/4/2/bw/001.png","","","complex"
"","","","","","animation","15","214782","0.0-15.0","1920x1080","","3807.399999976158","58.60","img/314/4.5/1.5/bw/001.png","","","complex"
"","","","","","animation","16","219182","0.0-16.0","1920x1080","","4399.199999988079","100","img/238/2.5/2/bw/001.png","","","complex"
"","","","","","animation","17","222222","0.0-17.0","1920x1080","","3039","100","img/117/2.5/1.5/bw/001.png","","","complex"
"","","","","","animation","18","226799","0.0-18.0","1920x1080","","4576.199999988079","85.05","img/314/4/0.66667/bw/001.png","","","complex"
"","","","","","animation","19","229022","0.0-19.0","1920x1080","","2222","75.93","img/117/4/1.5/bw/001.png","","","complex"
"","","","","","animation","20","234094","0.0-20.0","1920x1080","","5071.199999988079","70.77","img/117/4.5/1.5/bw/001.png","","","complex"
"","","","","","animation","21","240286","0.0-21.0","1920x1080","","6191","100","img/117/2.5/0.66667/bw/001.png","","","complex"
"","","","","","animation","22","244626","0.0-22.0","1920x1080","","4343.400000035763","71.56","img/117/3.5/0.66667/bw/001.png","","","complex"
"","","","","","animation","23","249275","0.0-23.0","1920x1080","","4647.399999976158","100","img/238/2.5/0.66667/bw/001.png","","","complex"
"","","","","","animation","24","258186","0.0-24.0","1920x1080","","8910.899999976158","49.60","img/314/4.5/1/bw/001.png","","","complex"
"","","","","","animation","25","262498","0.0-25.0","1920x1080","","4311.099999964237","87.70","img/117/3.5/1/bw/001.png","","","complex"
"","","","","","animation","26","272826","0.0-26.0","1920x1080","","10327.300000011921","6","img/314/5.5/2/bw/001.png","","","complex"
"","","","","","animation","27","280171","0.0-27.0","1920x1080","","7343.399999976158","88","img/314/3.5/0.5/bw/001.png","","","complex"
"","","","","","animation","28","286114","0.0-28.0","1920x1080","","5942.799999952316","8","img/238/5.5/0.66667/bw/001.png","","","complex"
"","","","","","animation","29","296346","0.0-29.0","1920x1080","","10230.800000011921","89.15","img/117/3.5/2/bw/001.png","","","complex"
"","","","","","animation","30","300419","0.0-30.0","1920x1080","","4071.800000011921","7.01","img/314/5.5/0.5/bw/001.png","","","complex"
"","","","","","animation","31","305319","0.0-31.0","1920x1080","","4901.300000011921","41.14","img/314/4.5/2/bw/001.png","","","complex"
"","","","","","animation","32","311015","0.0-32.0","1920x1080","","5695","73.54","img/238/3.5/0.66667/bw/001.png","","","complex"
"","","","","","animation","33","314135","0.0-33.0","1920x1080","","3119.099999964237","57.94","img/314/4/1.5/bw/001.png","","","complex"
"","","","","","animation","34","317231","0.0-34.0","1920x1080","","3095.100000023842","100","img/314/2.5/0.66667/bw/001.png","","","complex"
"","","","","","animation","35","323327","0.0-35.0","1920x1080","","6095.400000035763","35.71","img/238/4/0.66667/bw/001.png","","","complex"
"","","","","","animation","36","326655","0.0-36.0","1920x1080","","3327","99","img/238/2.5/0.5/bw/001.png","","","complex"
"","","","","","animation","37","329887","0.0-37.0","1920x1080","","3231","99","img/238/2.5/1.5/bw/001.png","","","complex"
"","","","","","animation","38","332608","0.0-38.0","1920x1080","","2720.400000035763","100","img/117/2.5/0.5/bw/001.png","","","complex"
"","","","","","animation","39","340671","0.0-39.0","1920x1080","","8062.300000011921","83","img/117/3.5/0.5/bw/001.png","","","complex"
"","","","","","animation","40","346679","0.0-40.0","1920x1080","","6006.699999988079","7.67","img/314/5.5/1/bw/001.png","","","complex"
"","","","","","animation","41","353326","0.0-41.0","1920x1080","","6646.899999976158","78","img/238/4/1/bw/001.png","","","complex"
"","","","","","animation","42","356847","0.0-42.0","1920x1080","","3519.5","100","img/314/2.5/1/bw/001.png","","","complex"
"","","","","","animation","43","360671","0.0-43.0","1920x1080","","3823.699999988079","19.18","img/314/4.5/0.5/bw/001.png","","","complex"
"","","","","","animation","44","365080","0.0-44.0","1920x1080","","4406.399999976158","100","img/314/2.5/2/bw/001.png","","","complex"
"","","","","","animation","45","371696","0.0-45.0","1920x1080","","6615.100000023842","45.11","img/117/4/1/bw/001.png","","","complex"
"","","","","","animation","46","380153","0.0-46.0","1920x1080","","8455.899999976158","37.04","img/238/4.5/0.66667/bw/001.png","","","complex"
"","","","","","animation","47","384194","0.0-47.0","1920x1080","","4040.599999964237","40.74","img/238/4.5/1/bw/001.png","","","complex"
"","","","","","animation","48","390905","0.0-48.0","1920x1080","","6709.599999964237","36.38","img/314/4.5/0.66667/bw/001.png","","","complex"
"","","","","","animation","49","396625","0.0-49.0","1920x1080","","5719.300000011921","79.10","img/238/3.5/1/bw/001.png","","","complex"
"","","","","","animation","50","399865","0.0-50.0","1920x1080","","3238.800000011921","100","img/117/2.5/1/bw/001.png","","","complex"
"","","","","","animation","51","405611","0.0-51.0","1920x1080","","5745.399999976158","27.38","img/117/4.5/2/bw/001.png","","","complex"
"","","","","","animation","52","410096","0.0-52.0","1920x1080","","4484.300000011921","8.33","img/238/5.5/1.5/bw/001.png","","","complex"
"","","","","","animation","53","422657","0.0-53.0","1920x1080","","12559.300000011921","24.07","img/238/5.5/1/bw/001.png","","","complex"
"","","","","","animation","54","428047","0.0-54.0","1920x1080","","5390.399999976158","98","img/238/4/1.5/bw/001.png","","","complex"
"","","","","","animation","55","432576","0.0-55.0","1920x1080","","4528.400000035763","86.64","img/117/4.5/0.5/bw/001.png","","","complex"
"","","","","","animation","56","441703","0.0-56.0","1920x1080","","9125.800000011921","2.38","img/117/5.5/2/bw/001.png","","","complex"
"","","","","","animation","57","451879","0.0-57.0","1920x1080","","10174.699999988079","86","img/117/3.5/1.5/bw/001.png","","","complex"
"","","","","","animation","58","461103","0.0-58.0","1920x1080","","9223.399999976158","45.90","img/238/4.5/2/bw/001.png","","","complex"
"","","","","","animation","59","466095","0.0-59.0","1920x1080","","4990.5","76.85","img/238/4/0.5/bw/001.png","","","complex"
"","","","","","animation","60","472626","0.0-60.0","1920x1080","","6530.100000023842","66.01","img/238/4.5/0.5/bw/001.png","","","complex"
"","","","","","animation","61","478967","0.0-61.0","1920x1080","","6339.400000035763","86.24","img/314/3.5/1.5/bw/001.png","","","complex"
"","","","","","animation","62","484550","0.0-62.0","1920x1080","","5582.700000047684","3.17","img/117/5.5/1.5/bw/001.png","","","complex"
"","","","","","animation","63","491358","0.0-63.0","1920x1080","","6807.5","97","img/314/4/0.5/bw/001.png","","","complex"
"","","","","","animation","64","502350","0.0-64.0","1920x1080","","10989.699999988079","51.72","img/314/4/2/bw/001.png","","","complex"
"","","","","","animation","65","506870","0.0-65.0","1920x1080","","4519","32.28","img/117/5.5/0.66667/bw/001.png","","","complex"
"","","","","","animation","66","509886","0.0-66.0","1920x1080","","3014.900000035763","16.40","img/117/5.5/1/bw/001.png","","","complex"
"","","","","","animation","67","516902","0.0-67.0","1920x1080","","7015.200000047684","84.66","img/117/4.5/0.66667/bw/001.png","","","complex"
"","","","","","animation","68","521861","0.0-68.0","1920x1080","","4958.699999988079","98","img/314/3.5/0.66667/bw/001.png","","","complex"
"","","","","","animation","69","525798","0.0-69.0","1920x1080","","3935.2000000476837","91.01","img/117/4/0.66667/bw/001.png","","","complex"
"","","","","","animation","70","529350","0.0-70.0","1920x1080","","3551","94","img/238/3.5/1.5/bw/001.png","","","complex"
"","","","","","animation","71","536008","0.0-71.0","1920x1080","","6657.5","99","img/238/3.5/2/bw/001.png","","","complex"
"","","","","","animation","72","540791","0.0-72.0","1920x1080","","4781.800000011921","100","img/314/2.5/1.5/bw/001.png","","","complex"
"","","","","","animation","73","551164","0.0-73.0","1920x1080","","10373.200000047684","52.51","img/238/4/2/bw/001.png","","","complex"
"","","","","","animation","74","555276","0.0-74.0","1920x1080","","4110.800000011921","51.72","img/238/4.5/1.5/bw/001.png","","","complex"
"","","","","","animation","75","558956","0.0-75.0","1920x1080","","3679.399999976158","60.19","img/314/4/1/bw/001.png","","","complex"
"","","","","","animation","76","561925","0.0-76.0","1920x1080","","2968.399999976158","100","img/314/2.5/0.5/bw/001.png","","","complex"
"","","","","","animation","77","565958","0.0-77.0","1920x1080","","4031.399999976158","99","img/238/2.5/1/bw/001.png","","","complex"
"","","","","","animation","78","569684","0.0-78.0","1920x1080","","3725.599999964237","47.88","img/117/4.5/1/bw/001.png","","","complex"
"","","","","","animation","79","576940","0.0-79.0","1920x1080","","7254.699999988079","89","img/314/3.5/1/bw/001.png","","","complex"
"","","","","","animation","80","586607","0.0-80.0","1920x1080","","9665.600000023842","12.70","img/314/5.5/1.5/bw/001.png","","","complex"
"","","","","","animation","81","593285","0.0-81.0","1920x1080","","6674.800000011921","76.19","img/314/3.5/2/bw/001.png","","","complex"
"","","","","","html-button-response","82","613464","0.0-82.0","1920x1080","","20174.5","","<div class=""intro"">You are about to view a new series of animations.<br><br></div><div class=""intro"">You will evaluate them based on a different descriptor.<br><br></div><div class=""intro"">Move the slider to indicate how <strong style=""text-transform:capitalize"">APPEALING</strong> you find each animation.<br><br></div><div class=""intro"">0 = Least Appealing<br></div><div class=""intro"">1 = Most Appealing<br><br></div><div class=""intro"">Remember to use the <strong><em>entire range</em></strong> of the slider to make your ratings.<br></div><div class=""intro"">Please <strong><em>take your time</em></strong> and carefully consider each rating you make.<br><br></div>","0","",""
"","","","","","call-function","83","613465","0.0-83.0","1920x1080","","","","","","",""
"","","","","","animation","84","623687","0.0-84.0","1920x1080","","10221.900000035763","26","img/314/4/1.5/bw/001.png","","","appealing"
"","","","","","animation","85","629687","0.0-85.0","1920x1080","","5998.399999976158","87.96","img/117/5.5/1.5/bw/001.png","","","appealing"
"","","","","","animation","86","633799","0.0-86.0","1920x1080","","4110.700000047684","15.34","img/314/4.5/0.66667/bw/001.png","","","appealing"
"","","","","","animation","87","637857","0.0-87.0","1920x1080","","4057.199999988079","11.24","img/314/4/1/bw/001.png","","","appealing"
"","","","","","animation","88","642279","0.0-88.0","1920x1080","","4418.399999976158","14.29","img/238/4.5/1/bw/001.png","","","appealing"
"","","","","","animation","89","645447","0.0-89.0","1920x1080","","3167.300000011921","10.58","img/238/4.5/0.5/bw/001.png","","","appealing"
"","","","","","animation","90","652111","0.0-90.0","1920x1080","","6660.699999988079","54.23","img/238/5.5/0.66667/bw/001.png","","","appealing"
"","","","","","animation","91","657295","0.0-91.0","1920x1080","","5183","0","img/238/2.5/0.66667/bw/001.png","","","appealing"
"","","","","","animation","92","661535","0.0-92.0","1920x1080","","4239.100000023842","18.52","img/238/4/2/bw/001.png","","","appealing"
"","","","","","animation","93","665817","0.0-93.0","1920x1080","","4289.5","19.58","img/117/4/2/bw/001.png","","","appealing"
"","","","","","animation","94","669542","0.0-94.0","1920x1080","","3724.7000000476837","8.47","img/238/3.5/0.5/bw/001.png","","","appealing"
"","","","","","animation","95","675206","0.0-95.0","1920x1080","","5662.599999964237","14.42","img/238/4/0.66667/bw/001.png","","","appealing"
"","","","","","animation","96","678417","0.0-96.0","1920x1080","","3210.199999988079","7.01","img/314/4/0.5/bw/001.png","","","appealing"
"","","","","","animation","97","682710","0.0-97.0","1920x1080","","4292.5","6.08","img/117/4.5/0.5/bw/001.png","","","appealing"
"","","","","","animation","98","686833","0.0-98.0","1920x1080","","4122.099999964237","65.21","img/117/5.5/0.5/bw/001.png","","","appealing"
"","","","","","animation","99","689942","0.0-99.0","1920x1080","","3107.400000035763","19.31","img/238/4.5/1.5/bw/001.png","","","appealing"
"","","","","","animation","100","692726","0.0-100.0","1920x1080","","2783.300000011921","15.21","img/117/4/0.66667/bw/001.png","","","appealing"
"","","","","","animation","101","695302","0.0-101.0","1920x1080","","2574.699999988079","9.13","img/238/4.5/0.66667/bw/001.png","","","appealing"
"","","","","","animation","102","702046","0.0-102.0","1920x1080","","6743.600000023842","79.76","img/117/5.5/1/bw/001.png","","","appealing"
"","","","","","animation","103","706246","0.0-103.0","1920x1080","","4198.600000023842","29","img/117/4.5/0.66667/bw/001.png","","","appealing"
"","","","","","animation","104","709983","0.0-104.0","1920x1080","","3736","12.17","img/238/3.5/1/bw/001.png","","","appealing"
"","","","","","animation","105","713838","0.0-105.0","1920x1080","","3853.600000023842","10.32","img/238/3.5/1.5/bw/001.png","","","appealing"
"","","","","","animation","106","718862","0.0-106.0","1920x1080","","5023.100000023842","0","img/314/2.5/1.5/bw/001.png","","","appealing"
"","","","","","animation","107","721646","0.0-107.0","1920x1080","","2782.899999976158","0.53","img/238/2.5/1/bw/001.png","","","appealing"
"","","","","","animation","108","727006","0.0-108.0","1920x1080","","5353","1.59","img/314/2.5/1/bw/001.png","","","appealing"
"","","","","","animation","109","732507","0.0-109.0","1920x1080","","5500.100000023842","2.25","img/238/2.5/2/bw/001.png","","","appealing"
"","","","","","animation","110","737684","0.0-110.0","1920x1080","","5175.400000035763","15.34","img/117/3.5/1/bw/001.png","","","appealing"
"","","","","","animation","111","742283","0.0-111.0","1920x1080","","4598.5","14.95","img/117/3.5/2/bw/001.png","","","appealing"
"","","","","","animation","112","745675","0.0-112.0","1920x1080","","3390.099999964237","15.74","img/238/3.5/2/bw/001.png","","","appealing"
"","","","","","animation","113","750239","0.0-113.0","1920x1080","","4562.899999976158","7.67","img/314/3.5/0.66667/bw/001.png","","","appealing"
"","","","","","animation","114","760563","0.0-114.0","1920x1080","","10323","91.80","img/238/5.5/2/bw/001.png","","","appealing"
"","","","","","animation","115","763457","0.0-115.0","1920x1080","","2891.399999976158","0","img/117/2.5/1.5/bw/001.png","","","appealing"
"","","","","","animation","116","766439","0.0-116.0","1920x1080","","2981.300000011921","0.00","img/238/2.5/0.5/bw/001.png","","","appealing"
"","","","","","animation","117","770443","0.0-117.0","1920x1080","","4003.5","0","img/314/2.5/2/bw/001.png","","","appealing"
"","","","","","animation","118","776147","0.0-118.0","1920x1080","","5702.800000011921","79.63","img/238/5.5/0.5/bw/001.png","","","appealing"
"","","","","","animation","119","779667","0.0-119.0","1920x1080","","3518.899999976158","17.86","img/314/3.5/1/bw/001.png","","","appealing"
"","","","","","animation","120","782331","0.0-120.0","1920x1080","","2662.800000011921","29.50","img/314/4/0.66667/bw/001.png","","","appealing"
"","","","","","animation","121","788393","0.0-121.0","1920x1080","","6063","61.64","img/314/5.5/1/bw/001.png","","","appealing"
"","","","","","animation","122","790841","0.0-122.0","1920x1080","","2447.199999988079","0","img/314/2.5/0.66667/bw/001.png","","","appealing"
"","","","","","animation","123","795625","0.0-123.0","1920x1080","","4783","50.00","img/314/4.5/0.5/bw/001.png","","","appealing"
"","","","","","animation","124","802170","0.0-124.0","1920x1080","","6543.699999988079","59.13","img/117/4.5/2/bw/001.png","","","appealing"
"","","","","","animation","125","806337","0.0-125.0","1920x1080","","4166.299999952316","22.75","img/117/3.5/0.66667/bw/001.png","","","appealing"
"","","","","","animation","126","809761","0.0-126.0","1920x1080","","3423.2000000476837","1.59","img/117/2.5/1/bw/001.png","","","appealing"
"","","","","","animation","127","821145","0.0-127.0","1920x1080","","11382.600000023842","100","img/117/5.5/2/bw/001.png","","","appealing"
"","","","","","animation","128","825222","0.0-128.0","1920x1080","","4074.399999976158","2.38","img/117/2.5/0.5/bw/001.png","","","appealing"
"","","","","","animation","129","830906","0.0-129.0","1920x1080","","5683","85.71","img/238/5.5/1/bw/001.png","","","appealing"
"","","","","","animation","130","834497","0.0-130.0","1920x1080","","3589.800000011921","1.59","img/117/4/1.5/bw/001.png","","","appealing"
"","","","","","animation","131","840473","0.0-131.0","1920x1080","","5974.400000035763","0","img/117/2.5/2/bw/001.png","","","appealing"
"","","","","","animation","132","845694","0.0-132.0","1920x1080","","5222.899999976158","84.13","img/314/5.5/1.5/bw/001.png","","","appealing"
"","","","","","animation","133","850400","0.0-133.0","1920x1080","","4704.900000035763","58.33","img/117/5.5/0.66667/bw/001.png","","","appealing"
"","","","","","animation","134","854726","0.0-134.0","1920x1080","","4325","42.06","img/238/4/1/bw/001.png","","","appealing"
"","","","","","animation","135","858118","0.0-135.0","1920x1080","","3390.400000035763","52.12","img/314/5.5/0.66667/bw/001.png","","","appealing"
"","","","","","animation","136","861686","0.0-136.0","1920x1080","","3566.7000000476837","37.70","img/314/4.5/1/bw/001.png","","","appealing"
"","","","","","animation","137","865838","0.0-137.0","1920x1080","","4151.300000011921","32.41","img/238/4/1.5/bw/001.png","","","appealing"
"","","","","","animation","138","869452","0.0-138.0","1920x1080","","3612.399999976158","4.37","img/238/2.5/1.5/bw/001.png","","","appealing"
"","","","","","animation","139","872439","0.0-139.0","1920x1080","","2985.900000035763","1.59","img/314/2.5/0.5/bw/001.png","","","appealing"
"","","","","","animation","140","879270","0.0-140.0","1920x1080","","6830.5","33.73","img/314/3.5/2/bw/001.png","","","appealing"
"","","","","","animation","141","886158","0.0-141.0","1920x1080","","6887.199999988079","27.91","img/117/4/0.5/bw/001.png","","","appealing"
"","","","","","animation","142","889022","0.0-142.0","1920x1080","","2861.399999976158","0.79","img/117/2.5/0.66667/bw/001.png","","","appealing"
"","","","","","animation","143","892601","0.0-143.0","1920x1080","","3577.100000023842","51.59","img/238/4.5/2/bw/001.png","","","appealing"
"","","","","","animation","144","896326","0.0-144.0","1920x1080","","3725","55.56","img/314/5.5/0.5/bw/001.png","","","appealing"
"","","","","","animation","145","901526","0.0-145.0","1920x1080","","5199","42.72","img/314/4/2/bw/001.png","","","appealing"
"","","","","","animation","146","905225","0.0-146.0","1920x1080","","3694.300000011921","37.30","img/314/3.5/1.5/bw/001.png","","","appealing"
"","","","","","animation","147","909072","0.0-147.0","1920x1080","","3846.5","41.27","img/117/4/1/bw/001.png","","","appealing"
"","","","","","animation","148","912897","0.0-148.0","1920x1080","","3823.400000035763","43.52","img/314/4.5/1.5/bw/001.png","","","appealing"
"","","","","","animation","149","916720","0.0-149.0","1920x1080","","3822.600000023842","46.69","img/314/4.5/2/bw/001.png","","","appealing"
"","","","","","animation","150","920272","0.0-150.0","1920x1080","","3551.100000023842","44.97","img/117/4.5/1/bw/001.png","","","appealing"
"","","","","","animation","151","923041","0.0-151.0","1920x1080","","2767.399999976158","31.35","img/117/3.5/0.5/bw/001.png","","","appealing"
"","","","","","animation","152","925438","0.0-152.0","1920x1080","","2396.099999964237","30.42","img/238/4/0.5/bw/001.png","","","appealing"
"","","","","","animation","153","932637","0.0-153.0","1920x1080","","7197.699999988079","98","img/314/5.5/2/bw/001.png","","","appealing"
"","","","","","animation","154","938072","0.0-154.0","1920x1080","","5433.699999988079","49.34","img/117/4.5/1.5/bw/001.png","","","appealing"
"","","","","","animation","155","941872","0.0-155.0","1920x1080","","3799","27","img/117/3.5/1.5/bw/001.png","","","appealing"
"","","","","","animation","156","944786","0.0-156.0","1920x1080","","2913.099999964237","22.22","img/238/3.5/0.66667/bw/001.png","","","appealing"
"","","","","","animation","157","948545","0.0-157.0","1920x1080","","3757.5","54.50","img/238/5.5/1.5/bw/001.png","","","appealing"
"","","","","","animation","158","953920","0.0-158.0","1920x1080","","5374.300000011921","14","img/314/3.5/0.5/bw/001.png","","","appealing"
"","","","","","html-button-response","159","972830","0.0-159.0","1920x1080","","18903.5","","<div class=""intro"">You are about to view a new series of animations.<br><br></div><div class=""intro"">You will evaluate them based on a different descriptor.<br><br></div><div class=""intro"">Move the slider to indicate how <strong style=""text-transform:capitalize"">NATURAL</strong> you find each animation.<br><br></div><div class=""intro"">0 = Least Natural<br></div><div class=""intro"">1 = Most Natural<br><br></div><div class=""intro"">Remember to use the <strong><em>entire range</em></strong> of the slider to make your ratings.<br></div><div class=""intro"">Please <strong><em>take your time</em></strong> and carefully consider each rating you make.<br><br></div>","0","",""
"","","","","","call-function","160","972831","0.0-160.0","1920x1080","","","","","","",""
"","","","","","animation","161","981427","0.0-161.0","1920x1080","","8594.900000035763","35","img/117/4.5/2/bw/001.png","","","natural"
"","","","","","animation","162","985008","0.0-162.0","1920x1080","","3579.600000023842","25.00","img/238/3.5/0.5/bw/001.png","","","natural"
"","","","","","animation","163","991502","0.0-163.0","1920x1080","","6491.900000035763","26.85","img/238/4/0.66667/bw/001.png","","","natural"
"","","","","","animation","164","996486","0.0-164.0","1920x1080","","4982.100000023842","17.86","img/314/3.5/2/bw/001.png","","","natural"
"","","","","","animation","165","1001408","0.0-165.0","1920x1080","","4921.5","13.49","img/314/3.5/1/bw/001.png","","","natural"
"","","","","","animation","166","1006277","0.0-166.0","1920x1080","","4867.800000011921","38.62","img/117/4/1.5/bw/001.png","","","natural"
"","","","","","animation","167","1009077","0.0-167.0","1920x1080","","2799","2.12","img/238/2.5/0.5/bw/001.png","","","natural"
"","","","","","animation","168","1013846","0.0-168.0","1920x1080","","4766.599999964237","45.63","img/117/4.5/1/bw/001.png","","","natural"
"","","","","","animation","169","1018725","0.0-169.0","1920x1080","","4878.300000011921","37.04","img/314/4/1.5/bw/001.png","","","natural"
"","","","","","animation","170","1022893","0.0-170.0","1920x1080","","4166.600000023842","0.53","img/314/2.5/2/bw/001.png","","","natural"
"","","","","","animation","171","1029152","0.0-171.0","1920x1080","","6263.5","38.76","img/238/4.5/1.5/bw/001.png","","","natural"
"","","","","","animation","172","1031912","0.0-172.0","1920x1080","","2758.7000000476837","16.01","img/238/4/0.5/bw/001.png","","","natural"
"","","","","","animation","173","1034269","0.0-173.0","1920x1080","","2355.800000011921","0.40","img/314/2.5/0.66667/bw/001.png","","","natural"
"","","","","","animation","174","1041080","0.0-174.0","1920x1080","","6809.800000011921","44.18","img/314/4/2/bw/001.png","","","natural"
"","","","","","animation","175","1045456","0.0-175.0","1920x1080","","4374.800000011921","67.33","img/314/5.5/1/bw/001.png","","","natural"
"","","","","","animation","176","1053271","0.0-176.0","1920x1080","","7813.800000011921","22.09","img/238/3.5/1/bw/001.png","","","natural"
"","","","","","animation","177","1056392","0.0-177.0","1920x1080","","3119.2000000476837","0","img/238/2.5/1.5/bw/001.png","","","natural"
"","","","","","animation","178","1060919","0.0-178.0","1920x1080","","4526.5","0","img/314/2.5/1/bw/001.png","","","natural"
"","","","","","animation","179","1065896","0.0-179.0","1920x1080","","4975.399999976158","73.28","img/314/5.5/0.66667/bw/001.png","","","natural"
"","","","","","animation","180","1070387","0.0-180.0","1920x1080","","4490.199999988079","82.54","img/117/5.5/1.5/bw/001.png","","","natural"
"","","","","","animation","181","1074160","0.0-181.0","1920x1080","","3770.399999976158","0.40","img/314/2.5/0.5/bw/001.png","","","natural"
"","","","","","animation","182","1080936","0.0-182.0","1920x1080","","6774.099999964237","21.30","img/117/3.5/0.66667/bw/001.png","","","natural"
"","","","","","animation","183","1086169","0.0-183.0","1920x1080","","5232.300000011921","94.05","img/314/5.5/2/bw/001.png","","","natural"
"","","","","","animation","184","1089880","0.0-184.0","1920x1080","","3709.300000011921","10.45","img/314/2.5/1.5/bw/001.png","","","natural"
"","","","","","animation","185","1093024","0.0-185.0","1920x1080","","3142.5","4.63","img/117/2.5/1/bw/001.png","","","natural"
"","","","","","animation","186","1097960","0.0-186.0","1920x1080","","4934.600000023842","35.19","img/314/4/0.5/bw/001.png","","","natural"
"","","","","","animation","187","1104208","0.0-187.0","1920x1080","","6246.300000011921","9.26","img/238/2.5/2/bw/001.png","","","natural"
"","","","","","animation","188","1112328","0.0-188.0","1920x1080","","8118.900000035763","33.33","img/117/3.5/2/bw/001.png","","","natural"
"","","","","","animation","189","1117176","0.0-189.0","1920x1080","","4846.900000035763","2.65","img/238/2.5/0.66667/bw/001.png","","","natural"
"","","","","","animation","190","1125636","0.0-190.0","1920x1080","","8458.800000011921","46.16","img/117/4.5/1.5/bw/001.png","","","natural"
"","","","","","animation","191","1131087","0.0-191.0","1920x1080","","5450.5","76.06","img/238/5.5/1/bw/001.png","","","natural"
"","","","","","animation","192","1134686","0.0-192.0","1920x1080","","3597.199999988079","81.61","img/238/5.5/0.66667/bw/001.png","","","natural"
"","","","","","animation","193","1138087","0.0-193.0","1920x1080","","3400.600000023842","43.12","img/314/4.5/0.66667/bw/001.png","","","natural"
"","","","","","animation","194","1142287","0.0-194.0","1920x1080","","4198.700000047684","50.40","img/314/5.5/0.5/bw/001.png","","","natural"
"","","","","","animation","195","1146538","0.0-195.0","1920x1080","","4247","36.51","img/314/4.5/1.5/bw/001.png","","","natural"
"","","","","","animation","196","1149455","0.0-196.0","1920x1080","","2916","0","img/117/2.5/0.66667/bw/001.png","","","natural"
"","","","","","animation","197","1155305","0.0-197.0","1920x1080","","5849.800000011921","13.89","img/117/3.5/1/bw/001.png","","","natural"
"","","","","","animation","198","1165657","0.0-198.0","1920x1080","","10350.700000047684","61.11","img/117/5.5/0.5/bw/001.png","","","natural"
"","","","","","animation","199","1173226","0.0-199.0","1920x1080","","7566.800000011921","57.14","img/238/5.5/0.5/bw/001.png","","","natural"
"","","","","","animation","200","1181388","0.0-200.0","1920x1080","","8160.699999988079","35.32","img/238/3.5/0.66667/bw/001.png","","","natural"
"","","","","","animation","201","1186914","0.0-201.0","1920x1080","","5524.899999976158","30.29","img/238/4.5/0.5/bw/001.png","","","natural"
"","","","","","animation","202","1191530","0.0-202.0","1920x1080","","4614.800000011921","24.21","img/117/3.5/1.5/bw/001.png","","","natural"
"","","","","","animation","203","1200188","0.0-203.0","1920x1080","","8656.599999964237","100","img/238/5.5/1.5/bw/001.png","","","natural"
"","","","","","animation","204","1204536","0.0-204.0","1920x1080","","4347","38.49","img/238/4.5/0.66667/bw/001.png","","","natural"
"","","","","","animation","205","1209986","0.0-205.0","1920x1080","","5449.400000035763","52.78","img/117/5.5/1/bw/001.png","","","natural"
"","","","","","animation","206","1216053","0.0-206.0","1920x1080","","6065.300000011921","50.40","img/117/5.5/0.66667/bw/001.png","","","natural"
"","","","","","animation","207","1219920","0.0-207.0","1920x1080","","3865.100000023842","23.02","img/314/4/0.66667/bw/001.png","","","natural"
"","","","","","animation","208","1230320","0.0-208.0","1920x1080","","10398.600000023842","43.65","img/314/4.5/2/bw/001.png","","","natural"
"","","","","","animation","209","1236603","0.0-209.0","1920x1080","","6281.699999988079","26.85","img/238/4/1/bw/001.png","","","natural"
"","","","","","animation","210","1239953","0.0-210.0","1920x1080","","3348.699999988079","5.95","img/117/2.5/2/bw/001.png","","","natural"
"","","","","","animation","211","1247720","0.0-211.0","1920x1080","","7765.700000047684","85.71","img/117/5.5/2/bw/001.png","","","natural"
"","","","","","animation","212","1251742","0.0-212.0","1920x1080","","4020.099999964237","37.30","img/314/4.5/1/bw/001.png","","","natural"
"","","","","","animation","213","1257592","0.0-213.0","1920x1080","","5849.200000047684","8.20","img/117/3.5/0.5/bw/001.png","","","natural"
"","","","","","animation","214","1267853","0.0-214.0","1920x1080","","10259.700000047684","14.81","img/314/4.5/0.5/bw/001.png","","","natural"
"","","","","","animation","215","1273104","0.0-215.0","1920x1080","","5249.300000011921","27.12","img/238/4.5/1/bw/001.png","","","natural"
"","","","","","animation","216","1276786","0.0-216.0","1920x1080","","3681","19.84","img/117/4/1/bw/001.png","","","natural"
"","","","","","animation","217","1283053","0.0-217.0","1920x1080","","6265.399999976158","90","img/314/5.5/1.5/bw/001.png","","","natural"
"","","","","","animation","218","1288153","0.0-218.0","1920x1080","","5097.900000035763","100","img/238/5.5/2/bw/001.png","","","natural"
"","","","","","animation","219","1292470","0.0-219.0","1920x1080","","4315.099999964237","3.31","img/314/3.5/0.66667/bw/001.png","","","natural"
"","","","","","animation","220","1295253","0.0-220.0","1920x1080","","2781.699999988079","10.85","img/238/3.5/2/bw/001.png","","","natural"
"","","","","","animation","221","1299104","0.0-221.0","1920x1080","","3849.7000000476837","20.24","img/238/3.5/1.5/bw/001.png","","","natural"
"","","","","","animation","222","1303856","0.0-222.0","1920x1080","","4750.600000023842","36.51","img/117/4/2/bw/001.png","","","natural"
"","","","","","animation","223","1306986","0.0-223.0","1920x1080","","3129.100000023842","10.85","img/314/3.5/0.5/bw/001.png","","","natural"
"","","","","","animation","224","1311853","0.0-224.0","1920x1080","","4865.5","29.10","img/314/4/1/bw/001.png","","","natural"
"","","","","","animation","225","1314753","0.0-225.0","1920x1080","","2898.800000011921","19.18","img/117/4/0.66667/bw/001.png","","","natural"
"","","","","","animation","226","1319976","0.0-226.0","1920x1080","","5222","41","img/238/4.5/2/bw/001.png","","","natural"
"","","","","","animation","227","1326688","0.0-227.0","1920x1080","","6710.300000011921","36.90","img/117/4.5/0.66667/bw/001.png","","","natural"
"","","","","","animation","228","1329436","0.0-228.0","1920x1080","","2747.300000011921","27.65","img/238/4/1.5/bw/001.png","","","natural"
"","","","","","animation","229","1332020","0.0-229.0","1920x1080","","2582.199999988079","3.70","img/117/2.5/1.5/bw/001.png","","","natural"
"","","","","","animation","230","1339312","0.0-230.0","1920x1080","","7291.300000011921","39.68","img/238/4/2/bw/001.png","","","natural"
"","","","","","animation","231","1342328","0.0-231.0","1920x1080","","3014.600000023842","0.93","img/238/2.5/1/bw/001.png","","","natural"
"","","","","","animation","232","1351003","0.0-232.0","1920x1080","","8673.5","48.41","img/117/4.5/0.5/bw/001.png","","","natural"
"","","","","","animation","233","1355669","0.0-233.0","1920x1080","","4665.399999976158","38.36","img/117/4/0.5/bw/001.png","","","natural"
"","","","","","animation","234","1362888","0.0-234.0","1920x1080","","7217","23.54","img/314/3.5/1.5/bw/001.png","","","natural"
"","","","","","animation","235","1367192","0.0-235.0","1920x1080","","4303.200000047684","3.70","img/117/2.5/0.5/bw/001.png","","","natural"
"","","","","","html-button-response","236","1388894","0.0-236.0","1920x1080","","21692.099999964237","","<div class=""intro"">You are about to view a new series of animations.<br><br></div><div class=""intro"">You will evaluate them based on a different descriptor.<br><br></div><div class=""intro"">Move the slider to indicate how <strong style=""text-transform:capitalize"">INTERESTING</strong> you find each animation.<br><br></div><div class=""intro"">0 = Least Interesting<br></div><div class=""intro"">1 = Most Interesting<br><br></div><div class=""intro"">Remember to use the <strong><em>entire range</em></strong> of the slider to make your ratings.<br></div><div class=""intro"">Please <strong><em>take your time</em></strong> and carefully consider each rating you make.<br><br></div>","0","",""
"","","","","","call-function","237","1388896","0.0-237.0","1920x1080","","","","","","",""
"","","","","","animation","238","1398136","0.0-238.0","1920x1080","","9239.600000023842","81.35","img/314/5.5/0.66667/bw/001.png","","","interesting"
"","","","","","animation","239","1405400","0.0-239.0","1920x1080","","7262.5","40.87","img/117/4/0.66667/bw/001.png","","","interesting"
"","","","","","animation","240","1414394","0.0-240.0","1920x1080","","8992.300000011921","73.94","img/238/4.5/1.5/bw/001.png","","","interesting"
"","","","","","animation","241","1420877","0.0-241.0","1920x1080","","6481.700000047684","67.06","img/314/4.5/1.5/bw/001.png","","","interesting"
"","","","","","animation","242","1424445","0.0-242.0","1920x1080","","3565.599999964237","36.24","img/117/4/1/bw/001.png","","","interesting"
"","","","","","animation","243","1433536","0.0-243.0","1920x1080","","9089.699999988079","30.82","img/238/4.5/1/bw/001.png","","","interesting"
"","","","","","animation","244","1438611","0.0-244.0","1920x1080","","5071.100000023842","10.85","img/117/3.5/2/bw/001.png","","","interesting"
"","","","","","animation","245","1444672","0.0-245.0","1920x1080","","6066.600000023842","29.89","img/238/4/1/bw/001.png","","","interesting"
"","","","","","animation","246","1452808","0.0-246.0","1920x1080","","8135","36.90","img/238/4/2/bw/001.png","","","interesting"
"","","","","","animation","247","1457472","0.0-247.0","1920x1080","","4662.300000011921","19.84","img/238/3.5/2/bw/001.png","","","interesting"
"","","","","","animation","248","1463536","0.0-248.0","1920x1080","","6062.5","33.60","img/314/4.5/0.5/bw/001.png","","","interesting"
"","","","","","animation","249","1470653","0.0-249.0","1920x1080","","7115.400000035763","12.43","img/117/3.5/1.5/bw/001.png","","","interesting"
"","","","","","animation","250","1484153","0.0-250.0","1920x1080","","13498.800000011921","56.08","img/238/4.5/2/bw/001.png","","","interesting"
"","","","","","animation","251","1496820","0.0-251.0","1920x1080","","12665.599999964237","10.32","img/314/3.5/0.5/bw/001.png","","","interesting"
"","","","","","animation","252","1508902","0.0-252.0","1920x1080","","12079.5","24.60","img/314/4/1/bw/001.png","","","interesting"
"","","","","","animation","253","1514402","0.0-253.0","1920x1080","","5497.800000011921","1.19","img/117/2.5/0.5/bw/001.png","","","interesting"
"","","","","","animation","254","1518518","0.0-254.0","1920x1080","","4112.600000023842","44.84","img/238/4.5/0.66667/bw/001.png","","","interesting"
"","","","","","animation","255","1526775","0.0-255.0","1920x1080","","8255.900000035763","99","img/238/5.5/1.5/bw/001.png","","","interesting"
"","","","","","animation","256","1530655","0.0-256.0","1920x1080","","3878.600000023842","56.61","img/314/4.5/2/bw/001.png","","","interesting"
"","","","","","animation","257","1535119","0.0-257.0","1920x1080","","4461.800000011921","22.62","img/238/3.5/1.5/bw/001.png","","","interesting"
"","","","","","animation","258","1539768","0.0-258.0","1920x1080","","4648.699999988079","4.50","img/238/2.5/1/bw/001.png","","","interesting"
"","","","","","animation","259","1548823","0.0-259.0","1920x1080","","9052.699999988079","52","img/314/4/0.66667/bw/001.png","","","interesting"
"","","","","","animation","260","1556007","0.0-260.0","1920x1080","","7181.899999976158","41.01","img/314/5.5/0.5/bw/001.png","","","interesting"
"","","","","","animation","261","1560568","0.0-261.0","1920x1080","","4559.800000011921","38.62","img/117/5.5/0.5/bw/001.png","","","interesting"
"","","","","","animation","262","1572238","0.0-262.0","1920x1080","","11663.400000035763","77","img/314/5.5/2/bw/001.png","","","interesting"
"","","","","","animation","263","1578205","0.0-263.0","1920x1080","","5963.099999964237","61.11","img/314/4.5/1/bw/001.png","","","interesting"
"","","","","","animation","264","1581038","0.0-264.0","1920x1080","","2832.199999988079","47.62","img/117/4.5/0.66667/bw/001.png","","","interesting"
"","","","","","animation","265","1588946","0.0-265.0","1920x1080","","7906.600000023842","82.67","img/117/5.5/2/bw/001.png","","","interesting"
"","","","","","animation","266","1594394","0.0-266.0","1920x1080","","5446.399999976158","45.77","img/238/4/1.5/bw/001.png","","","interesting"
"","","","","","animation","267","1598354","0.0-267.0","1920x1080","","3959","6.75","img/314/3.5/1/bw/001.png","","","interesting"
"","","","","","animation","268","1608221","0.0-268.0","1920x1080","","9864.699999988079","1.19","img/117/2.5/1.5/bw/001.png","","","interesting"
"","","","","","animation","269","1616842","0.0-269.0","1920x1080","","8618.5","52.51","img/117/4.5/1/bw/001.png","","","interesting"
"","","","","","animation","270","1622657","0.0-270.0","1920x1080","","5814.300000011921","97","img/117/5.5/1.5/bw/001.png","","","interesting"
"","","","","","animation","271","1627489","0.0-271.0","1920x1080","","4829.100000023842","1.19","img/117/2.5/1/bw/001.png","","","interesting"
"","","","","","animation","272","1643737","0.0-272.0","1920x1080","","16246.800000011921","10.45","img/314/3.5/2/bw/001.png","","","interesting"
"","","","","","animation","273","1654593","0.0-273.0","1920x1080","","10850.800000011921","38.23","img/117/4.5/2/bw/001.png","","","interesting"
"","","","","","animation","274","1659377","0.0-274.0","1920x1080","","4782.600000023842","21.30","img/117/4.5/0.5/bw/001.png","","","interesting"
"","","","","","animation","275","1664409","0.0-275.0","1920x1080","","5028.899999976158","56","img/117/4/1.5/bw/001.png","","","interesting"
"","","","","","animation","276","1667404","0.0-276.0","1920x1080","","2993.5","61.38","img/117/4.5/1.5/bw/001.png","","","interesting"
"","","","","","animation","277","1671721","0.0-277.0","1920x1080","","4315.599999964237","37.30","img/314/4.5/0.66667/bw/001.png","","","interesting"
"","","","","","animation","278","1675809","0.0-278.0","1920x1080","","4086.600000023842","0","img/314/2.5/2/bw/001.png","","","interesting"
"","","","","","animation","279","1681221","0.0-279.0","1920x1080","","5410.199999988079","35.32","img/117/4/0.5/bw/001.png","","","interesting"
"","","","","","animation","280","1686769","0.0-280.0","1920x1080","","5549.199999988079","85.71","img/314/5.5/1/bw/001.png","","","interesting"
"","","","","","animation","281","1691023","0.0-281.0","1920x1080","","4251.600000023842","68.52","img/117/5.5/1/bw/001.png","","","interesting"
"","","","","","animation","282","1694602","0.0-282.0","1920x1080","","3577.2999999523163","65.87","img/117/5.5/0.66667/bw/001.png","","","interesting"
"","","","","","animation","283","1697808","0.0-283.0","1920x1080","","3203.899999976158","1.19","img/117/2.5/0.66667/bw/001.png","","","interesting"
"","","","","","animation","284","1702569","0.0-284.0","1920x1080","","4759.899999976158","0","img/314/2.5/1.5/bw/001.png","","","interesting"
"","","","","","animation","285","1707169","0.0-285.0","1920x1080","","4598.100000023842","40.21","img/314/4/0.5/bw/001.png","","","interesting"
"","","","","","animation","286","1713760","0.0-286.0","1920x1080","","6588.399999976158","89.55","img/238/5.5/2/bw/001.png","","","interesting"
"","","","","","animation","287","1719055","0.0-287.0","1920x1080","","5294.099999964237","34.79","img/238/4.5/0.5/bw/001.png","","","interesting"
"","","","","","animation","288","1721951","0.0-288.0","1920x1080","","2894.800000011921","28.84","img/117/3.5/0.5/bw/001.png","","","interesting"
"","","","","","animation","289","1731219","0.0-289.0","1920x1080","","9239.400000035763","63.76","img/238/5.5/0.66667/bw/001.png","","","interesting"
"","","","","","animation","290","1735671","0.0-290.0","1920x1080","","4450.800000011921","76.98","img/238/5.5/1/bw/001.png","","","interesting"
"","","","","","animation","291","1740752","0.0-291.0","1920x1080","","5079.099999964237","1.19","img/314/3.5/1.5/bw/001.png","","","interesting"
"","","","","","animation","292","1751159","0.0-292.0","1920x1080","","10405.300000011921","83.60","img/314/5.5/1.5/bw/001.png","","","interesting"
"","","","","","animation","293","1758886","0.0-293.0","1920x1080","","7723.899999976158","59.26","img/314/4/1.5/bw/001.png","","","interesting"
"","","","","","animation","294","1764485","0.0-294.0","1920x1080","","5596.5","0","img/238/2.5/1.5/bw/001.png","","","interesting"
"","","","","","animation","295","1771118","0.0-295.0","1920x1080","","6630","18.25","img/238/3.5/0.66667/bw/001.png","","","interesting"
"","","","","","animation","296","1777585","0.0-296.0","1920x1080","","6465","14.02","img/238/3.5/0.5/bw/001.png","","","interesting"
"","","","","","animation","297","1781485","0.0-297.0","1920x1080","","3898.400000035763","22.35","img/238/4/0.66667/bw/001.png","","","interesting"
"","","","","","animation","298","1784559","0.0-298.0","1920x1080","","3072.100000023842","14.68","img/314/3.5/0.66667/bw/001.png","","","interesting"
"","","","","","animation","299","1788952","0.0-299.0","1920x1080","","4391.600000023842","0.53","img/314/2.5/0.66667/bw/001.png","","","interesting"
"","","","","","animation","300","1793535","0.0-300.0","1920x1080","","4581.699999988079","0","img/314/2.5/0.5/bw/001.png","","","interesting"
"","","","","","animation","301","1796935","0.0-301.0","1920x1080","","3397.599999964237","57.01","img/314/4/2/bw/001.png","","","interesting"
"","","","","","animation","302","1800869","0.0-302.0","1920x1080","","3932.399999976158","2.12","img/238/2.5/2/bw/001.png","","","interesting"
"","","","","","animation","303","1806453","0.0-303.0","1920x1080","","5581.5","26.98","img/117/3.5/0.66667/bw/001.png","","","interesting"
"","","","","","animation","304","1814089","0.0-304.0","1920x1080","","7635.400000035763","5.95","img/117/2.5/2/bw/001.png","","","interesting"
"","","","","","animation","305","1819769","0.0-305.0","1920x1080","","5678.099999964237","16.67","img/117/3.5/1/bw/001.png","","","interesting"
"","","","","","animation","306","1822703","0.0-306.0","1920x1080","","2932.100000023842","37.83","img/238/4/0.5/bw/001.png","","","interesting"
"","","","","","animation","307","1825919","0.0-307.0","1920x1080","","3215.199999988079","3.57","img/238/2.5/0.5/bw/001.png","","","interesting"
"","","","","","animation","308","1828839","0.0-308.0","1920x1080","","2918.400000035763","0.93","img/314/2.5/1/bw/001.png","","","interesting"
"","","","","","animation","309","1831452","0.0-309.0","1920x1080","","2611.800000011921","29.50","img/238/3.5/1/bw/001.png","","","interesting"
"","","","","","animation","310","1837503","0.0-310.0","1920x1080","","6049.199999988079","53.17","img/238/5.5/0.5/bw/001.png","","","interesting"
"","","","","","animation","311","1840792","0.0-311.0","1920x1080","","3287.300000011921","3.31","img/238/2.5/0.66667/bw/001.png","","","interesting"
"","","","","","animation","312","1846586","0.0-312.0","1920x1080","","5792.300000011921","57.01","img/117/4/2/bw/001.png","","","interesting"
"","","","","","html-button-response","313","1867280","0.0-313.0","1920x1080","","20683.399999976158","","<div class=""intro"">You are about to view a new series of animations.<br><br></div><div class=""intro"">You will evaluate them based on a different descriptor.<br><br></div><div class=""intro"">Move the slider to indicate how <strong style=""text-transform:capitalize"">RELAXING</strong> you find each animation.<br><br></div><div class=""intro"">0 = Least Relaxing<br></div><div class=""intro"">1 = Most Relaxing<br><br></div><div class=""intro"">Remember to use the <strong><em>entire range</em></strong> of the slider to make your ratings.<br></div><div class=""intro"">Please <strong><em>take your time</em></strong> and carefully consider each rating you make.<br><br></div>","0","",""
"","","","","","call-function","314","1867281","0.0-314.0","1920x1080","","","","","","",""
"","","","","","animation","315","1872177","0.0-315.0","1920x1080","","4895.5","29.10","img/238/3.5/1/bw/001.png","","","relaxing"
"","","","","","animation","316","1875264","0.0-316.0","1920x1080","","3085.399999976158","45.90","img/117/5.5/1/bw/001.png","","","relaxing"
"","","","","","animation","317","1880044","0.0-317.0","1920x1080","","4778","31.61","img/117/4/1.5/bw/001.png","","","relaxing"
"","","","","","animation","318","1883217","0.0-318.0","1920x1080","","3171.699999988079","21.30","img/117/3.5/2/bw/001.png","","","relaxing"
"","","","","","animation","319","1885832","0.0-319.0","1920x1080","","2613.099999964237","19.58","img/238/4/0.66667/bw/001.png","","","relaxing"
"","","","","","animation","320","1890232","0.0-320.0","1920x1080","","4398.699999988079","32.41","img/117/5.5/0.5/bw/001.png","","","relaxing"
"","","","","","animation","321","1898696","0.0-321.0","1920x1080","","8461.699999988079","84.66","img/238/5.5/1.5/bw/001.png","","","relaxing"
"","","","","","animation","322","1907731","0.0-322.0","1920x1080","","9033.5","81.61","img/314/5.5/1/bw/001.png","","","relaxing"
"","","","","","animation","323","1911727","0.0-323.0","1920x1080","","3994.100000023842","29.63","img/314/4/0.66667/bw/001.png","","","relaxing"
"","","","","","animation","324","1914400","0.0-324.0","1920x1080","","2671.699999988079","19.84","img/314/3.5/0.5/bw/001.png","","","relaxing"
"","","","","","animation","325","1920951","0.0-325.0","1920x1080","","6550.099999964237","48.54","img/314/4.5/0.66667/bw/001.png","","","relaxing"
"","","","","","animation","326","1924586","0.0-326.0","1920x1080","","3640.699999988079","32.01","img/117/4/0.66667/bw/001.png","","","relaxing"
"","","","","","animation","327","1928227","0.0-327.0","1920x1080","","3639","51.46","img/314/5.5/0.66667/bw/001.png","","","relaxing"
"","","","","","animation","328","1936177","0.0-328.0","1920x1080","","7948.199999988079","77.38","img/238/5.5/2/bw/001.png","","","relaxing"
"","","","","","animation","329","1941878","0.0-329.0","1920x1080","","5699.799999952316","83.73","img/238/5.5/1/bw/001.png","","","relaxing"
"","","","","","animation","330","1946940","0.0-330.0","1920x1080","","5059.600000023842","32.14","img/117/4/1/bw/001.png","","","relaxing"
"","","","","","animation","331","1951320","0.0-331.0","1920x1080","","4378.699999988079","18.52","img/314/3.5/0.66667/bw/001.png","","","relaxing"
"","","","","","animation","332","1956509","0.0-332.0","1920x1080","","5187.100000023842","61.11","img/314/4.5/2/bw/001.png","","","relaxing"
"","","","","","animation","333","1960561","0.0-333.0","1920x1080","","4050.399999976158","0","img/117/2.5/1/bw/001.png","","","relaxing"
"","","","","","animation","334","1969962","0.0-334.0","1920x1080","","9398.800000011921","97","img/314/5.5/2/bw/001.png","","","relaxing"
"","","","","","animation","335","1974087","0.0-335.0","1920x1080","","4123.300000011921","50.79","img/238/4.5/0.66667/bw/001.png","","","relaxing"
"","","","","","animation","336","1979272","0.0-336.0","1920x1080","","5183.700000047684","23.94","img/117/2.5/1.5/bw/001.png","","","relaxing"
"","","","","","animation","337","1983688","0.0-337.0","1920x1080","","4413.700000047684","33.73","img/314/5.5/0.5/bw/001.png","","","relaxing"
"","","","","","animation","338","1987792","0.0-338.0","1920x1080","","4093.699999988079","27.25","img/117/4.5/0.5/bw/001.png","","","relaxing"
"","","","","","animation","339","1990585","0.0-339.0","1920x1080","","2791.400000035763","38.10","img/117/5.5/0.66667/bw/001.png","","","relaxing"
"","","","","","animation","340","1993202","0.0-340.0","1920x1080","","2615.600000023842","22.09","img/238/3.5/0.66667/bw/001.png","","","relaxing"
"","","","","","animation","341","1995205","0.0-341.0","1920x1080","","2001.5999999642372","8.20","img/117/2.5/2/bw/001.png","","","relaxing"
"","","","","","animation","342","1998227","0.0-342.0","1920x1080","","3019.899999976158","13.76","img/238/2.5/0.5/bw/001.png","","","relaxing"
"","","","","","animation","343","2002522","0.0-343.0","1920x1080","","4294.299999952316","36.77","img/238/3.5/2/bw/001.png","","","relaxing"
"","","","","","animation","344","2006417","0.0-344.0","1920x1080","","3892.900000035763","39.15","img/314/4/1.5/bw/001.png","","","relaxing"
"","","","","","animation","345","2018062","0.0-345.0","1920x1080","","11643.199999988079","76.98","img/117/5.5/1.5/bw/001.png","","","relaxing"
"","","","","","animation","346","2023012","0.0-346.0","1920x1080","","4948.5","51.32","img/314/4/2/bw/001.png","","","relaxing"
"","","","","","animation","347","2030545","0.0-347.0","1920x1080","","7531.899999976158","35.45","img/238/4.5/0.5/bw/001.png","","","relaxing"
"","","","","","animation","348","2035328","0.0-348.0","1920x1080","","4781.5","25.13","img/117/4/0.5/bw/001.png","","","relaxing"
"","","","","","animation","349","2037412","0.0-349.0","1920x1080","","2082.300000011921","22.09","img/117/3.5/1/bw/001.png","","","relaxing"
"","","","","","animation","350","2040833","0.0-350.0","1920x1080","","3418.900000035763","13.62","img/314/2.5/0.66667/bw/001.png","","","relaxing"
"","","","","","animation","351","2043633","0.0-351.0","1920x1080","","2798.800000011921","40.48","img/238/5.5/0.5/bw/001.png","","","relaxing"
"","","","","","animation","352","2049369","0.0-352.0","1920x1080","","5744.100000023842","50.13","img/117/4/2/bw/001.png","","","relaxing"
"","","","","","animation","353","2053214","0.0-353.0","1920x1080","","3842.899999976158","61.38","img/314/5.5/1.5/bw/001.png","","","relaxing"
"","","","","","animation","354","2059970","0.0-354.0","1920x1080","","6753.699999988079","43.78","img/117/4.5/1/bw/001.png","","","relaxing"
"","","","","","animation","355","2066440","0.0-355.0","1920x1080","","6468.699999988079","71","img/117/5.5/2/bw/001.png","","","relaxing"
"","","","","","animation","356","2070209","0.0-356.0","1920x1080","","3766.5","1.19","img/238/2.5/0.66667/bw/001.png","","","relaxing"
"","","","","","animation","357","2076573","0.0-357.0","1920x1080","","6362.100000023842","61.24","img/314/3.5/1/bw/001.png","","","relaxing"
"","","","","","animation","358","2083813","0.0-358.0","1920x1080","","7237.899999976158","39.02","img/314/4/0.5/bw/001.png","","","relaxing"
"","","","","","animation","359","2087369","0.0-359.0","1920x1080","","3554.599999964237","49.34","img/314/4.5/1/bw/001.png","","","relaxing"
"","","","","","animation","360","2091403","0.0-360.0","1920x1080","","4032.899999976158","42.72","img/238/4/1/bw/001.png","","","relaxing"
"","","","","","animation","361","2094808","0.0-361.0","1920x1080","","3403.100000023842","0","img/238/2.5/1/bw/001.png","","","relaxing"
"","","","","","animation","362","2098954","0.0-362.0","1920x1080","","4143.5","45.37","img/117/4.5/2/bw/001.png","","","relaxing"
"","","","","","animation","363","2102720","0.0-363.0","1920x1080","","3762","3.31","img/314/2.5/1/bw/001.png","","","relaxing"
"","","","","","animation","364","2114057","0.0-364.0","1920x1080","","11326.100000023842","99","img/238/5.5/0.66667/bw/001.png","","","relaxing"
"","","","","","animation","365","2120185","0.0-365.0","1920x1080","","6125.100000023842","47","img/238/4.5/1/bw/001.png","","","relaxing"
"","","","","","animation","366","2124213","0.0-366.0","1920x1080","","4026","53.97","img/238/4.5/1.5/bw/001.png","","","relaxing"
"","","","","","animation","367","2126513","0.0-367.0","1920x1080","","2298.5","39.02","img/238/4/2/bw/001.png","","","relaxing"
"","","","","","animation","368","2130012","0.0-368.0","1920x1080","","3497.7000000476837","25.00","img/314/3.5/2/bw/001.png","","","relaxing"
"","","","","","animation","369","2132379","0.0-369.0","1920x1080","","2365.600000023842","32.67","img/117/4.5/0.66667/bw/001.png","","","relaxing"
"","","","","","animation","370","2134163","0.0-370.0","1920x1080","","1783","30.42","img/314/4/1/bw/001.png","","","relaxing"
"","","","","","animation","371","2139029","0.0-371.0","1920x1080","","4865.100000023842","39.68","img/117/4.5/1.5/bw/001.png","","","relaxing"
"","","","","","animation","372","2143050","0.0-372.0","1920x1080","","4019","0","img/238/2.5/2/bw/001.png","","","relaxing"
"","","","","","animation","373","2146417","0.0-373.0","1920x1080","","3365.100000023842","1.98","img/314/2.5/1.5/bw/001.png","","","relaxing"
"","","","","","animation","374","2156408","0.0-374.0","1920x1080","","9989.399999976158","67","img/314/4.5/1.5/bw/001.png","","","relaxing"
"","","","","","animation","375","2159281","0.0-375.0","1920x1080","","2870.2000000476837","7.01","img/314/2.5/2/bw/001.png","","","relaxing"
"","","","","","animation","376","2162829","0.0-376.0","1920x1080","","3547.100000023842","5.82","img/238/4/0.5/bw/001.png","","","relaxing"
"","","","","","animation","377","2166496","0.0-377.0","1920x1080","","3666","0.13","img/117/2.5/0.66667/bw/001.png","","","relaxing"
"","","","","","animation","378","2172145","0.0-378.0","1920x1080","","5645.899999976158","13.36","img/238/3.5/0.5/bw/001.png","","","relaxing"
"","","","","","animation","379","2174957","0.0-379.0","1920x1080","","2810.5","41.93","img/238/4/1.5/bw/001.png","","","relaxing"
"","","","","","animation","380","2178923","0.0-380.0","1920x1080","","3964.600000023842","42.46","img/314/4.5/0.5/bw/001.png","","","relaxing"
"","","","","","animation","381","2184538","0.0-381.0","1920x1080","","5613","38.36","img/314/3.5/1.5/bw/001.png","","","relaxing"
"","","","","","animation","382","2187001","0.0-382.0","1920x1080","","2461.600000023842","27.12","img/117/3.5/0.66667/bw/001.png","","","relaxing"
"","","","","","animation","383","2190112","0.0-383.0","1920x1080","","3109.900000035763","0.93","img/117/2.5/0.5/bw/001.png","","","relaxing"
"","","","","","animation","384","2193483","0.0-384.0","1920x1080","","3369.399999976158","0.79","img/314/2.5/0.5/bw/001.png","","","relaxing"
"","","","","","animation","385","2196836","0.0-385.0","1920x1080","","3350.899999976158","54.76","img/238/4.5/2/bw/001.png","","","relaxing"
"","","","","","animation","386","2200170","0.0-386.0","1920x1080","","3332.599999964237","0.53","img/238/2.5/1.5/bw/001.png","","","relaxing"
"","","","","","animation","387","2204496","0.0-387.0","1920x1080","","4323.899999976158","27.65","img/117/3.5/1.5/bw/001.png","","","relaxing"
"","","","","","animation","388","2209112","0.0-388.0","1920x1080","","4613.800000011921","19.58","img/117/3.5/0.5/bw/001.png","","","relaxing"
"","","","","","animation","389","2214829","0.0-389.0","1920x1080","","5714.899999976158","13.76","img/238/3.5/1.5/bw/001.png","","","relaxing"
"","","","","","html-button-response","390","2246479","0.0-390.0","1920x1080","","31648.5","","<strong>Study Debriefing</strong><br><p class=""debrief""><strong>Background:</strong> The patterns you rated are called <em>fractals</em>. The term fractal describes a class of irregular curves or shapes for which any suitably chosen part is similar in shape to a given larger or smaller part when magnified or reduced to the same size. Fractal properties are found throughout the natural and manmade world. The series of animations you saw today displayed animated fractal patterns of a varying complexity.</p><p class=""debrief""><strong>Purpose of this study:</strong> We hope to better understand how the perception of static fractals differs from the perception of animated fractals, and how the speed of the animated patterns influences people&apos;s perception of them. Fractals allow us to study the perception of aesthetic properties (e.g. the perceived level of beauty in an image) without using recognizable content, which makes them an excellent tool for studying abstract aesthetic judgement.</p><p class=""debrief""><strong>Your part:</strong> Your participation has helped us to further understand how humans perceive these patterns across different levels of speed and complexity. This research with allow us to better understand how the visual system and brain process our ever-changing visual environments.<p class=""debrief""><strong>Feedback and Further information:</strong> If you have additional questions about this study, please feel free to ask the researcher, Nathan Gonzales-Hess at nhess @ uoregon.edu. If you have any questions concerning your rights as a research participant, please contact Research Compliance Services, 5237 University of Oregon, Eugene, OR 97403, 541-346-2510, or email researchCompliance @ uoregon.edu. You can also email the Human Subjects Coordinator for psychology and linguistics research at hscoord @ uoregon.edu. ","0","",""
"","","","","","html-button-response","391","2250619","0.0-391.0","1920x1080","","4130.700000047684","","Thank you for participating in this study. <br>Please click below to finish the experiment and submit your responses.<br><br>","0","",""
"true","","","","","fullscreen","392","2251639","0.0-392.0","1920x1080","13:32 17/10/2022","","","","","",""
