"success","timeout","failed_images","failed_audio","failed_video","trial_type","trial_index","time_elapsed","internal_node_id","resolution","timeStamp","rt","response","stimulus","button_pressed","value","descriptor"
"true","false","[]","[]","[]","preload","0","17710","0.0-0.0","1920x1080","","","","","","",""
"true","false","[]","[]","[]","preload","1","36222","0.0-1.0","1920x1080","","","","","","",""
"true","false","[]","[]","[]","preload","2","54749","0.0-2.0","1920x1080","","","","","","",""
"true","","","","","fullscreen","3","651450","0.0-3.0","1920x1080","11:53 11/10/2022","","","","","",""
"","","","","","survey-html-form","4","660141","0.0-4.0","1920x1080","","8688","{""age"":""20"",""gender"":""Female""}","","","",""
"","","","","","html-button-response","5","799534","0.0-5.0","1920x1080","","139390.80000007153","","<div class=""complex"">You are going to see a series of animations.<br><br></div><div class=""complex"">Move the slider to indicate how <strong style=""text-transform:capitalize"">COMPLEX</strong> you find each animation.<br><br></div><div class=""complex"">0 = Least Complex<br></div><div class=""complex"">1 = Most Complex<br><br></div><div class=""complex"">Remember to use the <strong><em>entire range</em></strong> of the slider to make your ratings.<br></div><div class=""complex"">Please <strong><em>take your time</em></strong> and carefully consider each rating you make.<br><br></div><div class=""complex"">The study has five sections and will take about 45 minutes to complete.<br><br></div>","0","",""
"","","","","","call-function","6","799535","0.0-6.0","1920x1080","","","","","","",""
"","","","","","animation","7","813510","0.0-7.0","1920x1080","","13972.600000023842","13.49","img/117/4.5/0.66667/bw/001.png","","","complex"
"","","","","","animation","8","825229","0.0-8.0","1920x1080","","11717.899999976158","5.29","img/314/5.5/2/bw/001.png","","","complex"
"","","","","","animation","9","832246","0.0-9.0","1920x1080","","7015.899999976158","96","img/117/2.5/1/bw/001.png","","","complex"
"","","","","","animation","10","851846","0.0-10.0","1920x1080","","19598.799999952316","35.45","img/314/4/1.5/bw/001.png","","","complex"
"","","","","","animation","11","861654","0.0-11.0","1920x1080","","9807.600000023842","64.55","img/117/4/0.66667/bw/001.png","","","complex"
"","","","","","animation","12","869766","0.0-12.0","1920x1080","","8110.5","35.58","img/238/3.5/1.5/bw/001.png","","","complex"
"","","","","","animation","13","879189","0.0-13.0","1920x1080","","9422.899999976158","99","img/238/2.5/0.5/bw/001.png","","","complex"
"","","","","","animation","14","894471","0.0-14.0","1920x1080","","15280.199999928474","19","img/117/5.5/0.5/bw/001.png","","","complex"
"","","","","","animation","15","903230","0.0-15.0","1920x1080","","8758.300000071526","9.26","img/238/5.5/0.5/bw/001.png","","","complex"
"","","","","","animation","16","914293","0.0-16.0","1920x1080","","11061.900000095367","91.67","img/314/2.5/0.5/bw/001.png","","","complex"
"","","","","","animation","17","925860","0.0-17.0","1920x1080","","11567.5","42","img/238/4/2/bw/001.png","","","complex"
"","","","","","animation","18","932100","0.0-18.0","1920x1080","","6239","62.43","img/117/4.5/0.5/bw/001.png","","","complex"
"","","","","","animation","19","951987","0.0-19.0","1920x1080","","19886.5","71","img/238/3.5/0.5/bw/001.png","","","complex"
"","","","","","animation","20","962635","0.0-20.0","1920x1080","","10647.200000047684","39.68","img/314/4.5/0.66667/bw/001.png","","","complex"
"","","","","","animation","21","974700","0.0-21.0","1920x1080","","12063.300000071526","44.18","img/117/4/1.5/bw/001.png","","","complex"
"","","","","","animation","22","1005810","0.0-22.0","1920x1080","","31110.799999952316","17.33","img/314/5.5/0.66667/bw/001.png","","","complex"
"","","","","","animation","23","1033762","0.0-23.0","1920x1080","","27951.400000095367","40","img/117/4.5/1.5/bw/001.png","","","complex"
"","","","","","animation","24","1042998","0.0-24.0","1920x1080","","9238.300000071526","39.02","img/117/4.5/2/bw/001.png","","","complex"
"","","","","","animation","25","1054430","0.0-25.0","1920x1080","","11431.400000095367","64.68","img/314/3.5/0.66667/bw/001.png","","","complex"
"","","","","","animation","26","1092158","0.0-26.0","1920x1080","","37727.700000047684","21","img/314/4.5/2/bw/001.png","","","complex"
"","","","","","animation","27","1115886","0.0-27.0","1920x1080","","23719.699999928474","36.64","img/238/4.5/1/bw/001.png","","","complex"
"","","","","","animation","28","1132189","0.0-28.0","1920x1080","","16301.600000023842","72","img/238/2.5/2/bw/001.png","","","complex"
"","","","","","animation","29","1168639","0.0-29.0","1920x1080","","36455.90000009537","54.89","img/117/3.5/1/bw/001.png","","","complex"
"","","","","","animation","30","1174863","0.0-30.0","1920x1080","","6222.599999904633","9.66","img/238/4.5/1.5/bw/001.png","","","complex"
"","","","","","animation","31","1201335","0.0-31.0","1920x1080","","26470.700000047684","63","img/314/2.5/2/bw/001.png","","","complex"
"","","","","","animation","32","1206823","0.0-32.0","1920x1080","","5487.300000071526","39.81","img/314/4/1/bw/001.png","","","complex"
"","","","","","animation","33","1211167","0.0-33.0","1920x1080","","4343","55.82","img/117/2.5/2/bw/001.png","","","complex"
"","","","","","animation","34","1220629","0.0-34.0","1920x1080","","9455.300000071526","14.68","img/238/4.5/2/bw/001.png","","","complex"
"","","","","","animation","35","1225325","0.0-35.0","1920x1080","","4695.200000047684","77.25","img/314/2.5/0.66667/bw/001.png","","","complex"
"","","","","","animation","36","1235981","0.0-36.0","1920x1080","","10654.899999976158","50","img/117/3.5/2/bw/001.png","","","complex"
"","","","","","animation","37","1253589","0.0-37.0","1920x1080","","17606.300000071526","43.52","img/238/4.5/0.66667/bw/001.png","","","complex"
"","","","","","animation","38","1265453","0.0-38.0","1920x1080","","11863.100000023842","99","img/117/2.5/0.5/bw/001.png","","","complex"
"","","","","","animation","39","1271741","0.0-39.0","1920x1080","","6287.100000023842","96","img/238/2.5/0.66667/bw/001.png","","","complex"
"","","","","","animation","40","1287016","0.0-40.0","1920x1080","","15278.899999976158","2","img/117/5.5/2/bw/001.png","","","complex"
"","","","","","animation","41","1295241","0.0-41.0","1920x1080","","8223.599999904633","8.33","img/117/5.5/1.5/bw/001.png","","","complex"
"","","","","","animation","42","1303841","0.0-42.0","1920x1080","","8598.800000071526","5.95","img/238/5.5/2/bw/001.png","","","complex"
"","","","","","animation","43","1307241","0.0-43.0","1920x1080","","3399.2000000476837","32.67","img/117/3.5/1.5/bw/001.png","","","complex"
"","","","","","animation","44","1311968","0.0-44.0","1920x1080","","4726.699999928474","20.63","img/314/4/0.5/bw/001.png","","","complex"
"","","","","","animation","45","1329225","0.0-45.0","1920x1080","","17254.5","12.96","img/238/5.5/1.5/bw/001.png","","","complex"
"","","","","","animation","46","1352936","0.0-46.0","1920x1080","","23704.799999952316","48","img/117/4/0.5/bw/001.png","","","complex"
"","","","","","animation","47","1357736","0.0-47.0","1920x1080","","4799.100000023842","35.58","img/117/4/2/bw/001.png","","","complex"
"","","","","","animation","48","1362053","0.0-48.0","1920x1080","","4316.399999976158","61.24","img/117/3.5/0.66667/bw/001.png","","","complex"
"","","","","","animation","49","1366774","0.0-49.0","1920x1080","","4719.199999928474","80.56","img/238/2.5/1/bw/001.png","","","complex"
"","","","","","animation","50","1377336","0.0-50.0","1920x1080","","10561.100000023842","19.31","img/314/4.5/1.5/bw/001.png","","","complex"
"","","","","","animation","51","1383158","0.0-51.0","1920x1080","","5820.199999928474","26.72","img/238/4/1.5/bw/001.png","","","complex"
"","","","","","animation","52","1394110","0.0-52.0","1920x1080","","10950.899999976158","79.89","img/314/2.5/1.5/bw/001.png","","","complex"
"","","","","","animation","53","1404334","0.0-53.0","1920x1080","","10225.200000047684","65.08","img/238/4/0.5/bw/001.png","","","complex"
"","","","","","animation","54","1408172","0.0-54.0","1920x1080","","3837","44.31","img/314/4.5/1/bw/001.png","","","complex"
"","","","","","animation","55","1414333","0.0-55.0","1920x1080","","6160.399999976158","53","img/314/3.5/1.5/bw/001.png","","","complex"
"","","","","","animation","56","1419340","0.0-56.0","1920x1080","","5006","84.52","img/117/2.5/0.66667/bw/001.png","","","complex"
"","","","","","animation","57","1425020","0.0-57.0","1920x1080","","5678.799999952316","15.34","img/314/5.5/0.5/bw/001.png","","","complex"
"","","","","","animation","58","1432751","0.0-58.0","1920x1080","","7729.700000047684","10.05","img/238/5.5/0.66667/bw/001.png","","","complex"
"","","","","","animation","59","1441076","0.0-59.0","1920x1080","","8324","51.72","img/238/3.5/0.66667/bw/001.png","","","complex"
"","","","","","animation","60","1447934","0.0-60.0","1920x1080","","6856.599999904633","32","img/314/5.5/1.5/bw/001.png","","","complex"
"","","","","","animation","61","1494914","0.0-61.0","1920x1080","","46982.60000002384","38.62","img/238/4/0.66667/bw/001.png","","","complex"
"","","","","","animation","62","1506121","0.0-62.0","1920x1080","","11205.900000095367","15","img/117/5.5/0.66667/bw/001.png","","","complex"
"","","","","","animation","63","1517905","0.0-63.0","1920x1080","","11782.700000047684","60","img/238/3.5/1/bw/001.png","","","complex"
"","","","","","animation","64","1534413","0.0-64.0","1920x1080","","16503","33.73","img/314/4/2/bw/001.png","","","complex"
"","","","","","animation","65","1540630","0.0-65.0","1920x1080","","6215.099999904633","62.96","img/238/4.5/0.5/bw/001.png","","","complex"
"","","","","","animation","66","1548109","0.0-66.0","1920x1080","","7478.100000023842","23.54","img/117/5.5/1/bw/001.png","","","complex"
"","","","","","animation","67","1556373","0.0-67.0","1920x1080","","8263","48","img/117/4/1/bw/001.png","","","complex"
"","","","","","animation","68","1561654","0.0-68.0","1920x1080","","5279.199999928474","53.57","img/314/4/0.66667/bw/001.png","","","complex"
"","","","","","animation","69","1569805","0.0-69.0","1920x1080","","8150.600000023842","86","img/238/2.5/1.5/bw/001.png","","","complex"
"","","","","","animation","70","1574437","0.0-70.0","1920x1080","","4630.600000023842","85.05","img/314/2.5/1/bw/001.png","","","complex"
"","","","","","animation","71","1589117","0.0-71.0","1920x1080","","14680.400000095367","19.71","img/238/5.5/1/bw/001.png","","","complex"
"","","","","","animation","72","1596133","0.0-72.0","1920x1080","","7014","81.35","img/117/2.5/1.5/bw/001.png","","","complex"
"","","","","","animation","73","1667038","0.0-73.0","1920x1080","","70902.70000004768","55.82","img/314/3.5/0.5/bw/001.png","","","complex"
"","","","","","animation","74","1670911","0.0-74.0","1920x1080","","3870.5999999046326","44.31","img/314/4.5/0.5/bw/001.png","","","complex"
"","","","","","animation","75","1674854","0.0-75.0","1920x1080","","3942.600000023842","64.55","img/117/3.5/0.5/bw/001.png","","","complex"
"","","","","","animation","76","1680169","0.0-76.0","1920x1080","","5313.5","42.33","img/238/3.5/2/bw/001.png","","","complex"
"","","","","","animation","77","1687369","0.0-77.0","1920x1080","","7199.199999928474","34.39","img/238/4/1/bw/001.png","","","complex"
"","","","","","animation","78","1692375","0.0-78.0","1920x1080","","5003.700000047684","40.34","img/117/4.5/1/bw/001.png","","","complex"
"","","","","","animation","79","1696402","0.0-79.0","1920x1080","","4026.1999999284744","51.06","img/314/3.5/1/bw/001.png","","","complex"
"","","","","","animation","80","1701002","0.0-80.0","1920x1080","","4599.100000023842","19","img/314/5.5/1/bw/001.png","","","complex"
"","","","","","animation","81","1711568","0.0-81.0","1920x1080","","10564.800000071526","66.27","img/314/3.5/2/bw/001.png","","","complex"
"","","","","","html-button-response","82","1737559","0.0-82.0","1920x1080","","25989.799999952316","","<div class=""intro"">You are about to view a new series of animations.<br><br></div><div class=""intro"">You will evaluate them based on a different descriptor.<br><br></div><div class=""intro"">Move the slider to indicate how <strong style=""text-transform:capitalize"">RELAXING</strong> you find each animation.<br><br></div><div class=""intro"">0 = Least Relaxing<br></div><div class=""intro"">1 = Most Relaxing<br><br></div><div class=""intro"">Remember to use the <strong><em>entire range</em></strong> of the slider to make your ratings.<br></div><div class=""intro"">Please <strong><em>take your time</em></strong> and carefully consider each rating you make.<br><br></div>","0","",""
"","","","","","call-function","83","1737562","0.0-83.0","1920x1080","","","","","","",""
"","","","","","animation","84","1749102","0.0-84.0","1920x1080","","11539.299999952316","0.40","img/117/2.5/0.66667/bw/001.png","","","relaxing"
"","","","","","animation","85","1766555","0.0-85.0","1920x1080","","17455.299999952316","35.58","img/117/5.5/0.5/bw/001.png","","","relaxing"
"","","","","","animation","86","1773139","0.0-86.0","1920x1080","","6582.899999976158","0.79","img/238/2.5/1.5/bw/001.png","","","relaxing"
"","","","","","animation","87","1778003","0.0-87.0","1920x1080","","4861.5","23.15","img/314/3.5/1.5/bw/001.png","","","relaxing"
"","","","","","animation","88","1783851","0.0-88.0","1920x1080","","5846.899999976158","0.93","img/314/2.5/0.66667/bw/001.png","","","relaxing"
"","","","","","animation","89","1791427","0.0-89.0","1920x1080","","7575.199999928474","35.05","img/314/3.5/2/bw/001.png","","","relaxing"
"","","","","","animation","90","1796031","0.0-90.0","1920x1080","","4602.600000023842","24.21","img/314/4.5/0.5/bw/001.png","","","relaxing"
"","","","","","animation","91","1799899","0.0-91.0","1920x1080","","3867.1999999284744","15.34","img/117/3.5/0.5/bw/001.png","","","relaxing"
"","","","","","animation","92","1807659","0.0-92.0","1920x1080","","7758.799999952316","3.70","img/117/2.5/1/bw/001.png","","","relaxing"
"","","","","","animation","93","1813235","0.0-93.0","1920x1080","","5573.5","42.72","img/117/4.5/0.66667/bw/001.png","","","relaxing"
"","","","","","animation","94","1821927","0.0-94.0","1920x1080","","8687.399999976158","23.02","img/238/4/0.5/bw/001.png","","","relaxing"
"","","","","","animation","95","1825863","0.0-95.0","1920x1080","","3934.6999999284744","39.55","img/117/4.5/1/bw/001.png","","","relaxing"
"","","","","","animation","96","1830553","0.0-96.0","1920x1080","","4688.5","53.04","img/117/4.5/1.5/bw/001.png","","","relaxing"
"","","","","","animation","97","1839711","0.0-97.0","1920x1080","","9157.099999904633","83.60","img/238/5.5/1/bw/001.png","","","relaxing"
"","","","","","animation","98","1853039","0.0-98.0","1920x1080","","13326","2","img/314/2.5/1/bw/001.png","","","relaxing"
"","","","","","animation","99","1856903","0.0-99.0","1920x1080","","3862.2999999523163","8.99","img/314/4/0.5/bw/001.png","","","relaxing"
"","","","","","animation","100","1861103","0.0-100.0","1920x1080","","4198.799999952316","0.79","img/314/2.5/1.5/bw/001.png","","","relaxing"
"","","","","","animation","101","1867235","0.0-101.0","1920x1080","","6130.899999976158","0.00","img/238/2.5/0.5/bw/001.png","","","relaxing"
"","","","","","animation","102","1873991","0.0-102.0","1920x1080","","6754.600000023842","6.48","img/117/4/0.5/bw/001.png","","","relaxing"
"","","","","","animation","103","1884999","0.0-103.0","1920x1080","","11008.699999928474","52","img/238/3.5/2/bw/001.png","","","relaxing"
"","","","","","animation","104","1898941","0.0-104.0","1920x1080","","13939.899999976158","57.01","img/314/4.5/1/bw/001.png","","","relaxing"
"","","","","","animation","105","1907525","0.0-105.0","1920x1080","","8582","54.10","img/117/4.5/2/bw/001.png","","","relaxing"
"","","","","","animation","106","1913849","0.0-106.0","1920x1080","","6322.200000047684","48","img/238/4.5/1/bw/001.png","","","relaxing"
"","","","","","animation","107","1924837","0.0-107.0","1920x1080","","10986.899999976158","57","img/238/4/1.5/bw/001.png","","","relaxing"
"","","","","","animation","108","1929816","0.0-108.0","1920x1080","","4977.5","50.93","img/314/4/1/bw/001.png","","","relaxing"
"","","","","","animation","109","1933649","0.0-109.0","1920x1080","","3832.2999999523163","33.60","img/117/4.5/0.5/bw/001.png","","","relaxing"
"","","","","","animation","110","1938501","0.0-110.0","1920x1080","","4851","39.81","img/238/4/1/bw/001.png","","","relaxing"
"","","","","","animation","111","1948597","0.0-111.0","1920x1080","","10097.899999976158","95","img/238/5.5/1.5/bw/001.png","","","relaxing"
"","","","","","animation","112","1953214","0.0-112.0","1920x1080","","4615.099999904633","5.56","img/314/3.5/0.5/bw/001.png","","","relaxing"
"","","","","","animation","113","1956986","0.0-113.0","1920x1080","","3771","16.80","img/238/4/0.66667/bw/001.png","","","relaxing"
"","","","","","animation","114","1989170","0.0-114.0","1920x1080","","32182.399999976158","66.67","img/314/4.5/1.5/bw/001.png","","","relaxing"
"","","","","","animation","115","2004995","0.0-115.0","1920x1080","","15825.5","4","img/117/2.5/1.5/bw/001.png","","","relaxing"
"","","","","","animation","116","2013432","0.0-116.0","1920x1080","","8434.700000047684","6.88","img/117/2.5/2/bw/001.png","","","relaxing"
"","","","","","animation","117","2021872","0.0-117.0","1920x1080","","8439","41.53","img/238/3.5/1/bw/001.png","","","relaxing"
"","","","","","animation","118","2024496","0.0-118.0","1920x1080","","2622.2999999523163","55.95","img/117/3.5/2/bw/001.png","","","relaxing"
"","","","","","animation","119","2028464","0.0-119.0","1920x1080","","3967.2000000476837","1","img/238/2.5/1/bw/001.png","","","relaxing"
"","","","","","animation","120","2035552","0.0-120.0","1920x1080","","7087.199999928474","91.40","img/314/5.5/1/bw/001.png","","","relaxing"
"","","","","","animation","121","2045644","0.0-121.0","1920x1080","","10090.099999904633","4.10","img/314/4/1.5/bw/001.png","","","relaxing"
"","","","","","animation","122","2055352","0.0-122.0","1920x1080","","9707.199999928474","35.19","img/117/4/2/bw/001.png","","","relaxing"
"","","","","","animation","123","2063375","0.0-123.0","1920x1080","","8014.199999928474","86.90","img/117/5.5/2/bw/001.png","","","relaxing"
"","","","","","animation","124","2070551","0.0-124.0","1920x1080","","7174.899999976158","12.17","img/117/4/0.66667/bw/001.png","","","relaxing"
"","","","","","animation","125","2085218","0.0-125.0","1920x1080","","14665.5","28.17","img/117/4/1/bw/001.png","","","relaxing"
"","","","","","animation","126","2096759","0.0-126.0","1920x1080","","11538.699999928474","37.17","img/314/4/2/bw/001.png","","","relaxing"
"","","","","","animation","127","2109083","0.0-127.0","1920x1080","","12322.799999952316","98","img/238/5.5/2/bw/001.png","","","relaxing"
"","","","","","animation","128","2121294","0.0-128.0","1920x1080","","12209.100000023842","26","img/238/3.5/0.66667/bw/001.png","","","relaxing"
"","","","","","animation","129","2124126","0.0-129.0","1920x1080","","2830.899999976158","17.20","img/117/3.5/1/bw/001.png","","","relaxing"
"","","","","","animation","130","2127558","0.0-130.0","1920x1080","","3430.899999976158","4.76","img/314/2.5/2/bw/001.png","","","relaxing"
"","","","","","animation","131","2132383","0.0-131.0","1920x1080","","4824.299999952316","14.95","img/314/3.5/1/bw/001.png","","","relaxing"
"","","","","","animation","132","2136870","0.0-132.0","1920x1080","","4485","63.76","img/117/5.5/0.66667/bw/001.png","","","relaxing"
"","","","","","animation","133","2146438","0.0-133.0","1920x1080","","9566.5","95","img/314/5.5/2/bw/001.png","","","relaxing"
"","","","","","animation","134","2151422","0.0-134.0","1920x1080","","4982.399999976158","59.92","img/238/5.5/0.5/bw/001.png","","","relaxing"
"","","","","","animation","135","2160482","0.0-135.0","1920x1080","","9058.800000071526","7","img/238/3.5/0.5/bw/001.png","","","relaxing"
"","","","","","animation","136","2166742","0.0-136.0","1920x1080","","6258.899999976158","49","img/238/4/2/bw/001.png","","","relaxing"
"","","","","","animation","137","2170342","0.0-137.0","1920x1080","","3598.6999999284744","22.22","img/117/3.5/0.66667/bw/001.png","","","relaxing"
"","","","","","animation","138","2173206","0.0-138.0","1920x1080","","2862.7999999523163","25.66","img/314/4/0.66667/bw/001.png","","","relaxing"
"","","","","","animation","139","2187948","0.0-139.0","1920x1080","","14742.299999952316","82.14","img/117/5.5/1/bw/001.png","","","relaxing"
"","","","","","animation","140","2203420","0.0-140.0","1920x1080","","15471","41","img/238/4.5/0.66667/bw/001.png","","","relaxing"
"","","","","","animation","141","2210188","0.0-141.0","1920x1080","","6766.799999952316","3","img/238/2.5/0.66667/bw/001.png","","","relaxing"
"","","","","","animation","142","2217220","0.0-142.0","1920x1080","","7030.399999976158","72.49","img/238/4.5/1.5/bw/001.png","","","relaxing"
"","","","","","animation","143","2230404","0.0-143.0","1920x1080","","13182","43.92","img/117/5.5/1.5/bw/001.png","","","relaxing"
"","","","","","animation","144","2244151","0.0-144.0","1920x1080","","13737.799999952316","63.10","img/238/4.5/2/bw/001.png","","","relaxing"
"","","","","","animation","145","2258407","0.0-145.0","1920x1080","","14253.700000047684","40.87","img/117/3.5/1.5/bw/001.png","","","relaxing"
"","","","","","animation","146","2282375","0.0-146.0","1920x1080","","23966.699999928474","29.50","img/314/2.5/0.5/bw/001.png","","","relaxing"
"","","","","","animation","147","2304989","0.0-147.0","1920x1080","","22614.599999904633","74.60","img/238/5.5/0.66667/bw/001.png","","","relaxing"
"","","","","","animation","148","2317325","0.0-148.0","1920x1080","","12333","26.19","img/238/2.5/2/bw/001.png","","","relaxing"
"","","","","","animation","149","2347117","0.0-149.0","1920x1080","","29789.600000023842","20.63","img/314/4.5/0.66667/bw/001.png","","","relaxing"
"","","","","","animation","150","2351398","0.0-150.0","1920x1080","","4276.299999952316","59.66","img/314/5.5/0.66667/bw/001.png","","","relaxing"
"","","","","","animation","151","2358189","0.0-151.0","1920x1080","","6790.100000023842","94.58","img/314/5.5/1.5/bw/001.png","","","relaxing"
"","","","","","animation","152","2361851","0.0-152.0","1920x1080","","3662","2","img/117/2.5/0.5/bw/001.png","","","relaxing"
"","","","","","animation","153","2373147","0.0-153.0","1920x1080","","11294.299999952316","54","img/314/5.5/0.5/bw/001.png","","","relaxing"
"","","","","","animation","154","2388835","0.0-154.0","1920x1080","","15686.899999976158","66.14","img/314/4.5/2/bw/001.png","","","relaxing"
"","","","","","animation","155","2400803","0.0-155.0","1920x1080","","11965.199999928474","68.92","img/238/3.5/1.5/bw/001.png","","","relaxing"
"","","","","","animation","156","2427383","0.0-156.0","1920x1080","","26573.700000047684","34.26","img/314/3.5/0.66667/bw/001.png","","","relaxing"
"","","","","","animation","157","2431855","0.0-157.0","1920x1080","","4471","24.60","img/238/4.5/0.5/bw/001.png","","","relaxing"
"","","","","","animation","158","2435135","0.0-158.0","1920x1080","","3278.399999976158","44.58","img/117/4/1.5/bw/001.png","","","relaxing"
"","","","","","html-button-response","159","2479916","0.0-159.0","1920x1080","","44775.299999952316","","<div class=""intro"">You are about to view a new series of animations.<br><br></div><div class=""intro"">You will evaluate them based on a different descriptor.<br><br></div><div class=""intro"">Move the slider to indicate how <strong style=""text-transform:capitalize"">NATURAL</strong> you find each animation.<br><br></div><div class=""intro"">0 = Least Natural<br></div><div class=""intro"">1 = Most Natural<br><br></div><div class=""intro"">Remember to use the <strong><em>entire range</em></strong> of the slider to make your ratings.<br></div><div class=""intro"">Please <strong><em>take your time</em></strong> and carefully consider each rating you make.<br><br></div>","0","",""
"","","","","","call-function","160","2479920","0.0-160.0","1920x1080","","","","","","",""
"","","","","","animation","161","2513357","0.0-161.0","1920x1080","","33436.300000071526","9.26","img/314/2.5/2/bw/001.png","","","natural"
"","","","","","animation","162","2524123","0.0-162.0","1920x1080","","10763.899999976158","41.53","img/314/5.5/0.66667/bw/001.png","","","natural"
"","","","","","animation","163","2531907","0.0-163.0","1920x1080","","7782.600000023842","31.61","img/117/4/0.5/bw/001.png","","","natural"
"","","","","","animation","164","2536443","0.0-164.0","1920x1080","","4534.799999952316","58.33","img/238/4/0.66667/bw/001.png","","","natural"
"","","","","","animation","165","2541695","0.0-165.0","1920x1080","","5257.299999952316","78.17","img/238/4/1.5/bw/001.png","","","natural"
"","","","","","animation","166","2546173","0.0-166.0","1920x1080","","4476.199999928474","88.62","img/117/5.5/1/bw/001.png","","","natural"
"","","","","","animation","167","2551764","0.0-167.0","1920x1080","","5590.299999952316","58.33","img/117/4.5/0.66667/bw/001.png","","","natural"
"","","","","","animation","168","2555279","0.0-168.0","1920x1080","","3513.3000000715256","38.23","img/238/4/1/bw/001.png","","","natural"
"","","","","","animation","169","2560237","0.0-169.0","1920x1080","","4956.699999928474","52.51","img/238/3.5/1.5/bw/001.png","","","natural"
"","","","","","animation","170","2564764","0.0-170.0","1920x1080","","4526.600000023842","19.58","img/117/3.5/0.66667/bw/001.png","","","natural"
"","","","","","animation","171","2568961","0.0-171.0","1920x1080","","4196","30.03","img/314/4.5/0.66667/bw/001.png","","","natural"
"","","","","","animation","172","2573317","0.0-172.0","1920x1080","","4353.899999976158","80.29","img/314/5.5/1.5/bw/001.png","","","natural"
"","","","","","animation","173","2578069","0.0-173.0","1920x1080","","4750.799999952316","27.12","img/117/4/1/bw/001.png","","","natural"
"","","","","","animation","174","2581162","0.0-174.0","1920x1080","","3092.100000023842","54.76","img/314/4.5/1.5/bw/001.png","","","natural"
"","","","","","animation","175","2586629","0.0-175.0","1920x1080","","5464.899999976158","83.73","img/238/4.5/1/bw/001.png","","","natural"
"","","","","","animation","176","2594262","0.0-176.0","1920x1080","","7632.399999976158","91.27","img/314/5.5/2/bw/001.png","","","natural"
"","","","","","animation","177","2597700","0.0-177.0","1920x1080","","3435","6","img/238/2.5/1.5/bw/001.png","","","natural"
"","","","","","animation","178","2600915","0.0-178.0","1920x1080","","3210.399999976158","22.49","img/314/3.5/2/bw/001.png","","","natural"
"","","","","","animation","179","2606681","0.0-179.0","1920x1080","","5765.399999976158","10.85","img/238/3.5/0.5/bw/001.png","","","natural"
"","","","","","animation","180","2612699","0.0-180.0","1920x1080","","6016.299999952316","64","img/117/5.5/0.66667/bw/001.png","","","natural"
"","","","","","animation","181","2617119","0.0-181.0","1920x1080","","4418.600000023842","78.17","img/314/4.5/2/bw/001.png","","","natural"
"","","","","","animation","182","2621039","0.0-182.0","1920x1080","","3918.1999999284744","84","img/117/4.5/1.5/bw/001.png","","","natural"
"","","","","","animation","183","2626087","0.0-183.0","1920x1080","","5046.899999976158","41.14","img/117/4.5/0.5/bw/001.png","","","natural"
"","","","","","animation","184","2631671","0.0-184.0","1920x1080","","5582.600000023842","90.48","img/117/5.5/2/bw/001.png","","","natural"
"","","","","","animation","185","2646150","0.0-185.0","1920x1080","","14476.700000047684","73","img/238/5.5/1.5/bw/001.png","","","natural"
"","","","","","animation","186","2671053","0.0-186.0","1920x1080","","24903.600000023842","25.53","img/238/3.5/0.66667/bw/001.png","","","natural"
"","","","","","animation","187","2679269","0.0-187.0","1920x1080","","8214.799999952316","23","img/314/4.5/0.5/bw/001.png","","","natural"
"","","","","","animation","188","2682901","0.0-188.0","1920x1080","","3630.6999999284744","1.32","img/117/2.5/0.66667/bw/001.png","","","natural"
"","","","","","animation","189","2689529","0.0-189.0","1920x1080","","6625.399999976158","56.08","img/117/3.5/1.5/bw/001.png","","","natural"
"","","","","","animation","190","2726081","0.0-190.0","1920x1080","","36548.39999997616","49.87","img/238/4.5/0.66667/bw/001.png","","","natural"
"","","","","","animation","191","2731183","0.0-191.0","1920x1080","","5100.300000071526","24.47","img/314/3.5/0.5/bw/001.png","","","natural"
"","","","","","animation","192","2736752","0.0-192.0","1920x1080","","5567","63.89","img/314/4/1.5/bw/001.png","","","natural"
"","","","","","animation","193","2767815","0.0-193.0","1920x1080","","31062.200000047684","40.87","img/117/3.5/1/bw/001.png","","","natural"
"","","","","","animation","194","2772887","0.0-194.0","1920x1080","","5071.399999976158","2","img/238/2.5/0.5/bw/001.png","","","natural"
"","","","","","animation","195","2777455","0.0-195.0","1920x1080","","4566.799999952316","87.96","img/238/5.5/1/bw/001.png","","","natural"
"","","","","","animation","196","2791237","0.0-196.0","1920x1080","","13782.599999904633","56.88","img/238/5.5/0.5/bw/001.png","","","natural"
"","","","","","animation","197","2794221","0.0-197.0","1920x1080","","2982.100000023842","36.90","img/314/3.5/1.5/bw/001.png","","","natural"
"","","","","","animation","198","2796837","0.0-198.0","1920x1080","","2614.7999999523163","21.16","img/314/3.5/0.66667/bw/001.png","","","natural"
"","","","","","animation","199","2799578","0.0-199.0","1920x1080","","2739.899999976158","22.22","img/314/4/0.66667/bw/001.png","","","natural"
"","","","","","animation","200","2802545","0.0-200.0","1920x1080","","2965.5","60.32","img/117/4.5/2/bw/001.png","","","natural"
"","","","","","animation","201","2805728","0.0-201.0","1920x1080","","3181.7000000476837","36.24","img/117/4/0.66667/bw/001.png","","","natural"
"","","","","","animation","202","2808413","0.0-202.0","1920x1080","","2683.2999999523163","3.31","img/314/2.5/1/bw/001.png","","","natural"
"","","","","","animation","203","2810885","0.0-203.0","1920x1080","","2471.100000023842","18.78","img/238/3.5/2/bw/001.png","","","natural"
"","","","","","animation","204","2815528","0.0-204.0","1920x1080","","4641.800000071526","14.42","img/238/4.5/0.5/bw/001.png","","","natural"
"","","","","","animation","205","2818895","0.0-205.0","1920x1080","","3365.5999999046326","3.17","img/117/2.5/0.5/bw/001.png","","","natural"
"","","","","","animation","206","2823101","0.0-206.0","1920x1080","","4204.899999976158","5.16","img/117/2.5/1/bw/001.png","","","natural"
"","","","","","animation","207","2827653","0.0-207.0","1920x1080","","4550.799999952316","71.30","img/238/5.5/0.66667/bw/001.png","","","natural"
"","","","","","animation","208","2833165","0.0-208.0","1920x1080","","5510.200000047684","6.48","img/238/2.5/2/bw/001.png","","","natural"
"","","","","","animation","209","2871151","0.0-209.0","1920x1080","","37982.90000009537","29.76","img/117/4/2/bw/001.png","","","natural"
"","","","","","animation","210","2876614","0.0-210.0","1920x1080","","5460.399999976158","37.57","img/117/3.5/2/bw/001.png","","","natural"
"","","","","","animation","211","2880767","0.0-211.0","1920x1080","","4151.5","25.53","img/117/3.5/0.5/bw/001.png","","","natural"
"","","","","","animation","212","2883080","0.0-212.0","1920x1080","","2311.899999976158","65.61","img/238/4.5/2/bw/001.png","","","natural"
"","","","","","animation","213","2886714","0.0-213.0","1920x1080","","3632.1999999284744","89.81","img/238/5.5/2/bw/001.png","","","natural"
"","","","","","animation","214","2890780","0.0-214.0","1920x1080","","4065.5","53.31","img/314/4/1/bw/001.png","","","natural"
"","","","","","animation","215","2893280","0.0-215.0","1920x1080","","2496.899999976158","57.94","img/238/4/2/bw/001.png","","","natural"
"","","","","","animation","216","2895297","0.0-216.0","1920x1080","","2015.3999999761581","37.70","img/238/4/0.5/bw/001.png","","","natural"
"","","","","","animation","217","2899021","0.0-217.0","1920x1080","","3725.2999999523163","5.16","img/117/2.5/1.5/bw/001.png","","","natural"
"","","","","","animation","218","2902549","0.0-218.0","1920x1080","","3526.5","1.32","img/238/2.5/0.66667/bw/001.png","","","natural"
"","","","","","animation","219","2905595","0.0-219.0","1920x1080","","3045.2999999523163","5.56","img/117/2.5/2/bw/001.png","","","natural"
"","","","","","animation","220","2908932","0.0-220.0","1920x1080","","3335.8000000715256","7.01","img/314/2.5/1.5/bw/001.png","","","natural"
"","","","","","animation","221","2915780","0.0-221.0","1920x1080","","6846.600000023842","62","img/314/4.5/1/bw/001.png","","","natural"
"","","","","","animation","222","2921285","0.0-222.0","1920x1080","","5500.899999976158","77.12","img/238/4.5/1.5/bw/001.png","","","natural"
"","","","","","animation","223","2926528","0.0-223.0","1920x1080","","5241.600000023842","51.98","img/117/4/1.5/bw/001.png","","","natural"
"","","","","","animation","224","2930404","0.0-224.0","1920x1080","","3875.399999976158","79.89","img/117/5.5/1.5/bw/001.png","","","natural"
"","","","","","animation","225","2935128","0.0-225.0","1920x1080","","4721","35.05","img/117/4.5/1/bw/001.png","","","natural"
"","","","","","animation","226","2938396","0.0-226.0","1920x1080","","3267.600000023842","4.89","img/238/2.5/1/bw/001.png","","","natural"
"","","","","","animation","227","2944011","0.0-227.0","1920x1080","","5613.200000047684","17.59","img/314/3.5/1/bw/001.png","","","natural"
"","","","","","animation","228","2947885","0.0-228.0","1920x1080","","3872.600000023842","31.75","img/314/4/2/bw/001.png","","","natural"
"","","","","","animation","229","2953780","0.0-229.0","1920x1080","","5894.200000047684","77.91","img/314/5.5/1/bw/001.png","","","natural"
"","","","","","animation","230","2957796","0.0-230.0","1920x1080","","4014.100000023842","47.88","img/314/4/0.5/bw/001.png","","","natural"
"","","","","","animation","231","2961143","0.0-231.0","1920x1080","","3346.600000023842","64.02","img/117/5.5/0.5/bw/001.png","","","natural"
"","","","","","animation","232","2971812","0.0-232.0","1920x1080","","10666.699999928474","5.82","img/314/2.5/0.5/bw/001.png","","","natural"
"","","","","","animation","233","2974410","0.0-233.0","1920x1080","","2595.100000023842","20.63","img/238/3.5/1/bw/001.png","","","natural"
"","","","","","animation","234","2978027","0.0-234.0","1920x1080","","3615.3000000715256","0.79","img/314/2.5/0.66667/bw/001.png","","","natural"
"","","","","","animation","235","2984068","0.0-235.0","1920x1080","","6039.600000023842","37.57","img/314/5.5/0.5/bw/001.png","","","natural"
"","","","","","html-button-response","236","3005111","0.0-236.0","1920x1080","","21042.100000023842","","<div class=""intro"">You are about to view a new series of animations.<br><br></div><div class=""intro"">You will evaluate them based on a different descriptor.<br><br></div><div class=""intro"">Move the slider to indicate how <strong style=""text-transform:capitalize"">INTERESTING</strong> you find each animation.<br><br></div><div class=""intro"">0 = Least Interesting<br></div><div class=""intro"">1 = Most Interesting<br><br></div><div class=""intro"">Remember to use the <strong><em>entire range</em></strong> of the slider to make your ratings.<br></div><div class=""intro"">Please <strong><em>take your time</em></strong> and carefully consider each rating you make.<br><br></div>","0","",""
"","","","","","call-function","237","3005113","0.0-237.0","1920x1080","","","","","","",""
"","","","","","animation","238","3019280","0.0-238.0","1920x1080","","14162.700000047684","31.22","img/238/4.5/0.5/bw/001.png","","","interesting"
"","","","","","animation","239","3023101","0.0-239.0","1920x1080","","3819.899999976158","11.90","img/117/2.5/1/bw/001.png","","","interesting"
"","","","","","animation","240","3026896","0.0-240.0","1920x1080","","3793.399999976158","14.29","img/238/4/0.5/bw/001.png","","","interesting"
"","","","","","animation","241","3030999","0.0-241.0","1920x1080","","4101.600000023842","36.90","img/117/3.5/2/bw/001.png","","","interesting"
"","","","","","animation","242","3034015","0.0-242.0","1920x1080","","3014.600000023842","29.23","img/314/4/0.5/bw/001.png","","","interesting"
"","","","","","animation","243","3036855","0.0-243.0","1920x1080","","2838.7000000476837","42.46","img/238/4/2/bw/001.png","","","interesting"
"","","","","","animation","244","3039071","0.0-244.0","1920x1080","","2214.5","24.34","img/238/2.5/1/bw/001.png","","","interesting"
"","","","","","animation","245","3044455","0.0-245.0","1920x1080","","5382.800000071526","96","img/238/5.5/0.5/bw/001.png","","","interesting"
"","","","","","animation","246","3051351","0.0-246.0","1920x1080","","6894","35.32","img/314/3.5/0.66667/bw/001.png","","","interesting"
"","","","","","animation","247","3055365","0.0-247.0","1920x1080","","4012.4000000953674","38.89","img/314/3.5/1/bw/001.png","","","interesting"
"","","","","","animation","248","3059746","0.0-248.0","1920x1080","","4379.799999952316","78.44","img/314/4.5/2/bw/001.png","","","interesting"
"","","","","","animation","249","3085704","0.0-249.0","1920x1080","","25964.900000095367","53.44","img/238/2.5/2/bw/001.png","","","interesting"
"","","","","","animation","250","3088693","0.0-250.0","1920x1080","","2987","17.06","img/238/2.5/0.5/bw/001.png","","","interesting"
"","","","","","animation","251","3092154","0.0-251.0","1920x1080","","3460.3000000715256","70.63","img/314/4.5/1/bw/001.png","","","interesting"
"","","","","","animation","252","3094940","0.0-252.0","1920x1080","","2784","57.14","img/238/4.5/1.5/bw/001.png","","","interesting"
"","","","","","animation","253","3097404","0.0-253.0","1920x1080","","2463.100000023842","32.41","img/117/4/0.66667/bw/001.png","","","interesting"
"","","","","","animation","254","3102495","0.0-254.0","1920x1080","","5089.100000023842","16.27","img/238/3.5/0.5/bw/001.png","","","interesting"
"","","","","","animation","255","3108154","0.0-255.0","1920x1080","","5657.599999904633","87.04","img/238/5.5/1/bw/001.png","","","interesting"
"","","","","","animation","256","3112279","0.0-256.0","1920x1080","","4122.299999952316","62.57","img/238/4.5/1/bw/001.png","","","interesting"
"","","","","","animation","257","3117271","0.0-257.0","1920x1080","","4990.799999952316","36.64","img/314/3.5/0.5/bw/001.png","","","interesting"
"","","","","","animation","258","3128204","0.0-258.0","1920x1080","","10932.199999928474","42.59","img/117/4/1/bw/001.png","","","interesting"
"","","","","","animation","259","3131538","0.0-259.0","1920x1080","","3331.8000000715256","22.09","img/314/2.5/1/bw/001.png","","","interesting"
"","","","","","animation","260","3134910","0.0-260.0","1920x1080","","3371.3000000715256","36.24","img/117/3.5/1/bw/001.png","","","interesting"
"","","","","","animation","261","3138543","0.0-261.0","1920x1080","","3631.2000000476837","58.99","img/117/4.5/0.66667/bw/001.png","","","interesting"
"","","","","","animation","262","3141914","0.0-262.0","1920x1080","","3361.2000000476837","10.05","img/238/2.5/0.66667/bw/001.png","","","interesting"
"","","","","","animation","263","3145015","0.0-263.0","1920x1080","","3099.3000000715256","30.03","img/117/3.5/0.5/bw/001.png","","","interesting"
"","","","","","animation","264","3147383","0.0-264.0","1920x1080","","2366.600000023842","45.90","img/314/3.5/1.5/bw/001.png","","","interesting"
"","","","","","animation","265","3150087","0.0-265.0","1920x1080","","2703.100000023842","28.44","img/117/4.5/0.5/bw/001.png","","","interesting"
"","","","","","animation","266","3154415","0.0-266.0","1920x1080","","4326.200000047684","56.75","img/238/3.5/1.5/bw/001.png","","","interesting"
"","","","","","animation","267","3160263","0.0-267.0","1920x1080","","5846.800000071526","94","img/314/5.5/1/bw/001.png","","","interesting"
"","","","","","animation","268","3163399","0.0-268.0","1920x1080","","3134.2000000476837","85.71","img/314/4/1/bw/001.png","","","interesting"
"","","","","","animation","269","3166796","0.0-269.0","1920x1080","","3395.399999976158","28.44","img/314/2.5/0.5/bw/001.png","","","interesting"
"","","","","","animation","270","3171983","0.0-270.0","1920x1080","","5184.700000047684","54","img/238/4/1/bw/001.png","","","interesting"
"","","","","","animation","271","3186983","0.0-271.0","1920x1080","","14998.099999904633","79.10","img/117/4.5/2/bw/001.png","","","interesting"
"","","","","","animation","272","3189919","0.0-272.0","1920x1080","","2934.899999976158","38.23","img/117/3.5/0.66667/bw/001.png","","","interesting"
"","","","","","animation","273","3192263","0.0-273.0","1920x1080","","2342.2000000476837","67.33","img/117/5.5/0.66667/bw/001.png","","","interesting"
"","","","","","animation","274","3196179","0.0-274.0","1920x1080","","3915.100000023842","83.07","img/117/5.5/1.5/bw/001.png","","","interesting"
"","","","","","animation","275","3200102","0.0-275.0","1920x1080","","3922.5","71.03","img/314/5.5/0.5/bw/001.png","","","interesting"
"","","","","","animation","276","3203687","0.0-276.0","1920x1080","","3582.7000000476837","50.40","img/117/4/2/bw/001.png","","","interesting"
"","","","","","animation","277","3206566","0.0-277.0","1920x1080","","2878.399999976158","60.32","img/238/5.5/0.66667/bw/001.png","","","interesting"
"","","","","","animation","278","3208712","0.0-278.0","1920x1080","","2144.399999976158","51.06","img/238/3.5/2/bw/001.png","","","interesting"
"","","","","","animation","279","3211798","0.0-279.0","1920x1080","","3084.9000000953674","65.87","img/238/4/0.66667/bw/001.png","","","interesting"
"","","","","","animation","280","3217614","0.0-280.0","1920x1080","","5814.700000047684","69.71","img/238/4/1.5/bw/001.png","","","interesting"
"","","","","","animation","281","3222430","0.0-281.0","1920x1080","","4814.200000047684","59.39","img/314/4/1.5/bw/001.png","","","interesting"
"","","","","","animation","282","3224662","0.0-282.0","1920x1080","","2230.7000000476837","50.53","img/314/4.5/1.5/bw/001.png","","","interesting"
"","","","","","animation","283","3228982","0.0-283.0","1920x1080","","4319","46.03","img/238/3.5/1/bw/001.png","","","interesting"
"","","","","","animation","284","3231630","0.0-284.0","1920x1080","","2646.100000023842","19.58","img/314/2.5/0.66667/bw/001.png","","","interesting"
"","","","","","animation","285","3234400","0.0-285.0","1920x1080","","2767.7999999523163","32.14","img/314/3.5/2/bw/001.png","","","interesting"
"","","","","","animation","286","3237564","0.0-286.0","1920x1080","","3162.899999976158","77.25","img/117/5.5/2/bw/001.png","","","interesting"
"","","","","","animation","287","3241020","0.0-287.0","1920x1080","","3454","53.57","img/314/4/2/bw/001.png","","","interesting"
"","","","","","animation","288","3243813","0.0-288.0","1920x1080","","2791","66.67","img/117/5.5/1/bw/001.png","","","interesting"
"","","","","","animation","289","3248696","0.0-289.0","1920x1080","","4881.200000047684","50.26","img/117/4.5/1/bw/001.png","","","interesting"
"","","","","","animation","290","3252318","0.0-290.0","1920x1080","","3621.600000023842","66.93","img/314/5.5/0.66667/bw/001.png","","","interesting"
"","","","","","animation","291","3255179","0.0-291.0","1920x1080","","2858.8000000715256","81.35","img/238/5.5/1.5/bw/001.png","","","interesting"
"","","","","","animation","292","3259553","0.0-292.0","1920x1080","","4372.799999952316","87","img/314/5.5/2/bw/001.png","","","interesting"
"","","","","","animation","293","3262438","0.0-293.0","1920x1080","","2883.2999999523163","31.75","img/117/4/0.5/bw/001.png","","","interesting"
"","","","","","animation","294","3265486","0.0-294.0","1920x1080","","3046.600000023842","9.39","img/314/2.5/2/bw/001.png","","","interesting"
"","","","","","animation","295","3270486","0.0-295.0","1920x1080","","4998.199999928474","39","img/117/4.5/1.5/bw/001.png","","","interesting"
"","","","","","animation","296","3274902","0.0-296.0","1920x1080","","4414","5","img/117/2.5/0.66667/bw/001.png","","","interesting"
"","","","","","animation","297","3281597","0.0-297.0","1920x1080","","6694.100000023842","6","img/314/2.5/1.5/bw/001.png","","","interesting"
"","","","","","animation","298","3284461","0.0-298.0","1920x1080","","2862.5","85.85","img/238/5.5/2/bw/001.png","","","interesting"
"","","","","","animation","299","3288581","0.0-299.0","1920x1080","","4118.600000023842","38.49","img/314/4.5/0.66667/bw/001.png","","","interesting"
"","","","","","animation","300","3293086","0.0-300.0","1920x1080","","4502.899999976158","33.86","img/238/2.5/1.5/bw/001.png","","","interesting"
"","","","","","animation","301","3296645","0.0-301.0","1920x1080","","3557.7000000476837","40.08","img/314/4/0.66667/bw/001.png","","","interesting"
"","","","","","animation","302","3307950","0.0-302.0","1920x1080","","11303.200000047684","60.71","img/117/3.5/1.5/bw/001.png","","","interesting"
"","","","","","animation","303","3311511","0.0-303.0","1920x1080","","3559.100000023842","20.37","img/117/2.5/2/bw/001.png","","","interesting"
"","","","","","animation","304","3318539","0.0-304.0","1920x1080","","7026.200000047684","60.32","img/238/4.5/0.66667/bw/001.png","","","interesting"
"","","","","","animation","305","3322460","0.0-305.0","1920x1080","","3919.5","76.59","img/314/5.5/1.5/bw/001.png","","","interesting"
"","","","","","animation","306","3325213","0.0-306.0","1920x1080","","2751.2000000476837","55.03","img/117/4/1.5/bw/001.png","","","interesting"
"","","","","","animation","307","3330451","0.0-307.0","1920x1080","","5236","72.88","img/117/5.5/0.5/bw/001.png","","","interesting"
"","","","","","animation","308","3333553","0.0-308.0","1920x1080","","3069","23","img/117/2.5/1.5/bw/001.png","","","interesting"
"","","","","","animation","309","3335645","0.0-309.0","1920x1080","","2090.399999976158","48.54","img/238/3.5/0.66667/bw/001.png","","","interesting"
"","","","","","animation","310","3338480","0.0-310.0","1920x1080","","2832.7000000476837","53.57","img/314/4.5/0.5/bw/001.png","","","interesting"
"","","","","","animation","311","3340794","0.0-311.0","1920x1080","","2313.2000000476837","68.78","img/238/4.5/2/bw/001.png","","","interesting"
"","","","","","animation","312","3345612","0.0-312.0","1920x1080","","4815.699999928474","5.95","img/117/2.5/0.5/bw/001.png","","","interesting"
"","","","","","html-button-response","313","3366118","0.0-313.0","1920x1080","","20504.099999904633","","<div class=""intro"">You are about to view a new series of animations.<br><br></div><div class=""intro"">You will evaluate them based on a different descriptor.<br><br></div><div class=""intro"">Move the slider to indicate how <strong style=""text-transform:capitalize"">APPEALING</strong> you find each animation.<br><br></div><div class=""intro"">0 = Least Appealing<br></div><div class=""intro"">1 = Most Appealing<br><br></div><div class=""intro"">Remember to use the <strong><em>entire range</em></strong> of the slider to make your ratings.<br></div><div class=""intro"">Please <strong><em>take your time</em></strong> and carefully consider each rating you make.<br><br></div>","0","",""
"","","","","","call-function","314","3366121","0.0-314.0","1920x1080","","","","","","",""
"","","","","","animation","315","3379422","0.0-315.0","1920x1080","","13292.100000023842","31","img/314/3.5/2/bw/001.png","","","appealing"
"","","","","","animation","316","3383710","0.0-316.0","1920x1080","","4284.600000023842","33.20","img/238/4.5/0.5/bw/001.png","","","appealing"
"","","","","","animation","317","3387146","0.0-317.0","1920x1080","","3433.399999976158","94","img/117/5.5/2/bw/001.png","","","appealing"
"","","","","","animation","318","3389574","0.0-318.0","1920x1080","","2426.600000023842","58.47","img/117/4/1/bw/001.png","","","appealing"
"","","","","","animation","319","3392469","0.0-319.0","1920x1080","","2893.2000000476837","46.30","img/117/4.5/0.5/bw/001.png","","","appealing"
"","","","","","animation","320","3396186","0.0-320.0","1920x1080","","3715.2000000476837","50.66","img/238/4/2/bw/001.png","","","appealing"
"","","","","","animation","321","3400181","0.0-321.0","1920x1080","","3994.2999999523163","77","img/314/5.5/0.66667/bw/001.png","","","appealing"
"","","","","","animation","322","3403811","0.0-322.0","1920x1080","","3628","31.08","img/117/3.5/1/bw/001.png","","","appealing"
"","","","","","animation","323","3407128","0.0-323.0","1920x1080","","3314.6999999284744","43.52","img/238/4.5/0.66667/bw/001.png","","","appealing"
"","","","","","animation","324","3410190","0.0-324.0","1920x1080","","3060.9000000953674","13.62","img/117/2.5/0.66667/bw/001.png","","","appealing"
"","","","","","animation","325","3420326","0.0-325.0","1920x1080","","10135","40.74","img/117/4.5/1/bw/001.png","","","appealing"
"","","","","","animation","326","3423526","0.0-326.0","1920x1080","","3198.2999999523163","85.45","img/314/5.5/2/bw/001.png","","","appealing"
"","","","","","animation","327","3425620","0.0-327.0","1920x1080","","2091.7000000476837","66.27","img/117/4.5/2/bw/001.png","","","appealing"
"","","","","","animation","328","3429742","0.0-328.0","1920x1080","","4121.200000047684","31.35","img/238/3.5/1/bw/001.png","","","appealing"
"","","","","","animation","329","3433706","0.0-329.0","1920x1080","","3961.5","8.07","img/314/2.5/2/bw/001.png","","","appealing"
"","","","","","animation","330","3436776","0.0-330.0","1920x1080","","3068.600000023842","89.42","img/238/5.5/1.5/bw/001.png","","","appealing"
"","","","","","animation","331","3439347","0.0-331.0","1920x1080","","2578.0999999046326","7.94","img/238/2.5/1.5/bw/001.png","","","appealing"
"","","","","","animation","332","3441863","0.0-332.0","1920x1080","","2514.7999999523163","32.94","img/117/4/2/bw/001.png","","","appealing"
"","","","","","animation","333","3444519","0.0-333.0","1920x1080","","2654.7999999523163","22.88","img/238/3.5/0.5/bw/001.png","","","appealing"
"","","","","","animation","334","3448732","0.0-334.0","1920x1080","","4211.100000023842","36","img/117/3.5/1.5/bw/001.png","","","appealing"
"","","","","","animation","335","3452999","0.0-335.0","1920x1080","","4265.199999928474","31.08","img/314/3.5/1/bw/001.png","","","appealing"
"","","","","","animation","336","3457181","0.0-336.0","1920x1080","","4180.200000047684","43","img/314/4/1.5/bw/001.png","","","appealing"
"","","","","","animation","337","3461068","0.0-337.0","1920x1080","","3885.100000023842","60","img/314/4.5/1.5/bw/001.png","","","appealing"
"","","","","","animation","338","3464451","0.0-338.0","1920x1080","","3381.6999999284744","69.84","img/238/4/1.5/bw/001.png","","","appealing"
"","","","","","animation","339","3470164","0.0-339.0","1920x1080","","5711.100000023842","59.92","img/238/4.5/1/bw/001.png","","","appealing"
"","","","","","animation","340","3473893","0.0-340.0","1920x1080","","3727.1999999284744","86.11","img/238/5.5/0.66667/bw/001.png","","","appealing"
"","","","","","animation","341","3477277","0.0-341.0","1920x1080","","3381.3000000715256","1.32","img/238/2.5/0.5/bw/001.png","","","appealing"
"","","","","","animation","342","3481117","0.0-342.0","1920x1080","","3838.8000000715256","1.72","img/238/2.5/0.66667/bw/001.png","","","appealing"
"","","","","","animation","343","3484799","0.0-343.0","1920x1080","","3680","35.32","img/238/3.5/2/bw/001.png","","","appealing"
"","","","","","animation","344","3488448","0.0-344.0","1920x1080","","3648","19.97","img/314/3.5/0.5/bw/001.png","","","appealing"
"","","","","","animation","345","3500654","0.0-345.0","1920x1080","","12201.400000095367","12.30","img/238/2.5/2/bw/001.png","","","appealing"
"","","","","","animation","346","3503665","0.0-346.0","1920x1080","","3008.399999976158","37.96","img/117/4/1.5/bw/001.png","","","appealing"
"","","","","","animation","347","3508862","0.0-347.0","1920x1080","","5195.899999976158","45","img/238/4/1/bw/001.png","","","appealing"
"","","","","","animation","348","3512856","0.0-348.0","1920x1080","","3991.7000000476837","18.65","img/314/2.5/1.5/bw/001.png","","","appealing"
"","","","","","animation","349","3516335","0.0-349.0","1920x1080","","3476.899999976158","13.76","img/117/3.5/0.66667/bw/001.png","","","appealing"
"","","","","","animation","350","3519417","0.0-350.0","1920x1080","","3079.399999976158","71.56","img/117/3.5/2/bw/001.png","","","appealing"
"","","","","","animation","351","3524588","0.0-351.0","1920x1080","","5169","2","img/314/2.5/0.66667/bw/001.png","","","appealing"
"","","","","","animation","352","3529519","0.0-352.0","1920x1080","","4929.100000023842","81.08","img/238/4.5/2/bw/001.png","","","appealing"
"","","","","","animation","353","3533966","0.0-353.0","1920x1080","","4445.099999904633","3.17","img/117/3.5/0.5/bw/001.png","","","appealing"
"","","","","","animation","354","3539752","0.0-354.0","1920x1080","","5783.400000095367","95","img/314/5.5/1.5/bw/001.png","","","appealing"
"","","","","","animation","355","3560629","0.0-355.0","1920x1080","","20866.5","11.90","img/314/4.5/1/bw/001.png","","","appealing"
"","","","","","animation","356","3597343","0.0-356.0","1920x1080","","36711.800000071526","18","img/117/2.5/1.5/bw/001.png","","","appealing"
"","","","","","animation","357","3604061","0.0-357.0","1920x1080","","6715.700000047684","11.11","img/117/2.5/1/bw/001.png","","","appealing"
"","","","","","animation","358","3616569","0.0-358.0","1920x1080","","12506.200000047684","33","img/238/3.5/1.5/bw/001.png","","","appealing"
"","","","","","animation","359","3619313","0.0-359.0","1920x1080","","2742.100000023842","17.20","img/238/4/0.66667/bw/001.png","","","appealing"
"","","","","","animation","360","3622086","0.0-360.0","1920x1080","","2771.399999976158","67.33","img/314/5.5/0.5/bw/001.png","","","appealing"
"","","","","","animation","361","3626809","0.0-361.0","1920x1080","","4720.799999952316","11.51","img/314/4.5/0.5/bw/001.png","","","appealing"
"","","","","","animation","362","3629660","0.0-362.0","1920x1080","","2848.399999976158","54.50","img/238/4.5/1.5/bw/001.png","","","appealing"
"","","","","","animation","363","3634306","0.0-363.0","1920x1080","","4644.399999976158","25.53","img/238/3.5/0.66667/bw/001.png","","","appealing"
"","","","","","animation","364","3637303","0.0-364.0","1920x1080","","2995.6999999284744","30.82","img/117/4/0.66667/bw/001.png","","","appealing"
"","","","","","animation","365","3642902","0.0-365.0","1920x1080","","5596.799999952316","70.11","img/314/4/2/bw/001.png","","","appealing"
"","","","","","animation","366","3651409","0.0-366.0","1920x1080","","8505","81.88","img/238/5.5/0.5/bw/001.png","","","appealing"
"","","","","","animation","367","3661054","0.0-367.0","1920x1080","","9643.399999976158","39","img/117/5.5/0.5/bw/001.png","","","appealing"
"","","","","","animation","368","3664606","0.0-368.0","1920x1080","","3550.0999999046326","7.67","img/314/4/0.66667/bw/001.png","","","appealing"
"","","","","","animation","369","3667848","0.0-369.0","1920x1080","","3239.1999999284744","1.98","img/314/2.5/1/bw/001.png","","","appealing"
"","","","","","animation","370","3671805","0.0-370.0","1920x1080","","3955.7000000476837","81.08","img/238/5.5/1/bw/001.png","","","appealing"
"","","","","","animation","371","3674958","0.0-371.0","1920x1080","","3151.399999976158","17.33","img/314/4/0.5/bw/001.png","","","appealing"
"","","","","","animation","372","3678806","0.0-372.0","1920x1080","","3845.7999999523163","7.14","img/117/2.5/2/bw/001.png","","","appealing"
"","","","","","animation","373","3682070","0.0-373.0","1920x1080","","3261.600000023842","15.87","img/314/3.5/0.66667/bw/001.png","","","appealing"
"","","","","","animation","374","3685053","0.0-374.0","1920x1080","","2981.5","1.72","img/117/2.5/0.5/bw/001.png","","","appealing"
"","","","","","animation","375","3700336","0.0-375.0","1920x1080","","15281","44","img/238/4/0.5/bw/001.png","","","appealing"
"","","","","","animation","376","3712870","0.0-376.0","1920x1080","","12533.100000023842","74.87","img/117/4.5/1.5/bw/001.png","","","appealing"
"","","","","","animation","377","3717192","0.0-377.0","1920x1080","","4320.299999952316","17.72","img/314/3.5/1.5/bw/001.png","","","appealing"
"","","","","","animation","378","3721445","0.0-378.0","1920x1080","","4251.299999952316","79.50","img/117/5.5/1/bw/001.png","","","appealing"
"","","","","","animation","379","3723606","0.0-379.0","1920x1080","","2159","4.37","img/314/2.5/0.5/bw/001.png","","","appealing"
"","","","","","animation","380","3726339","0.0-380.0","1920x1080","","2731","19.05","img/314/4/1/bw/001.png","","","appealing"
"","","","","","animation","381","3729352","0.0-381.0","1920x1080","","3012.2999999523163","71.03","img/117/5.5/1.5/bw/001.png","","","appealing"
"","","","","","animation","382","3732285","0.0-382.0","1920x1080","","2931.4000000953674","59.92","img/117/5.5/0.66667/bw/001.png","","","appealing"
"","","","","","animation","383","3735205","0.0-383.0","1920x1080","","2917.899999976158","69","img/314/4.5/2/bw/001.png","","","appealing"
"","","","","","animation","384","3738890","0.0-384.0","1920x1080","","3683.5","88.76","img/314/5.5/1/bw/001.png","","","appealing"
"","","","","","animation","385","3741596","0.0-385.0","1920x1080","","2703.7000000476837","46.16","img/314/4.5/0.66667/bw/001.png","","","appealing"
"","","","","","animation","386","3744305","0.0-386.0","1920x1080","","2707.399999976158","98","img/238/5.5/2/bw/001.png","","","appealing"
"","","","","","animation","387","3747394","0.0-387.0","1920x1080","","3087","20.63","img/117/4/0.5/bw/001.png","","","appealing"
"","","","","","animation","388","3750569","0.0-388.0","1920x1080","","3173.399999976158","2.91","img/238/2.5/1/bw/001.png","","","appealing"
"","","","","","animation","389","3753175","0.0-389.0","1920x1080","","2604","15","img/117/4.5/0.66667/bw/001.png","","","appealing"
"","","","","","html-button-response","390","3817225","0.0-390.0","1920x1080","","64047.5","","<strong>Study Debriefing</strong><br><p class=""debrief""><strong>Background:</strong> The patterns you rated are called <em>fractals</em>. The term fractal describes a class of irregular curves or shapes for which any suitably chosen part is similar in shape to a given larger or smaller part when magnified or reduced to the same size. Fractal properties are found throughout the natural and manmade world. The series of animations you saw today displayed animated fractal patterns of a varying complexity.</p><p class=""debrief""><strong>Purpose of this study:</strong> We hope to better understand how the perception of static fractals differs from the perception of animated fractals, and how the speed of the animated patterns influences people&apos;s perception of them. Fractals allow us to study the perception of aesthetic properties (e.g. the perceived level of beauty in an image) without using recognizable content, which makes them an excellent tool for studying abstract aesthetic judgement.</p><p class=""debrief""><strong>Your part:</strong> Your participation has helped us to further understand how humans perceive these patterns across different levels of speed and complexity. This research with allow us to better understand how the visual system and brain process our ever-changing visual environments.<p class=""debrief""><strong>Feedback and Further information:</strong> If you have additional questions about this study, please feel free to ask the researcher, Nathan Gonzales-Hess at nhess @ uoregon.edu. If you have any questions concerning your rights as a research participant, please contact Research Compliance Services, 5237 University of Oregon, Eugene, OR 97403, 541-346-2510, or email researchCompliance @ uoregon.edu. You can also email the Human Subjects Coordinator for psychology and linguistics research at hscoord @ uoregon.edu. ","0","",""
"","","","","","html-button-response","391","3860110","0.0-391.0","1920x1080","","42881.09999990463","","Thank you for participating in this study. <br>Please click below to finish the experiment and submit your responses.<br><br>","0","",""
"true","","","","","fullscreen","392","3861119","0.0-392.0","1920x1080","12:56 11/10/2022","","","","","",""
