"success","timeout","failed_images","failed_audio","failed_video","trial_type","trial_index","time_elapsed","internal_node_id","resolution","timeStamp","rt","response","stimulus","button_pressed","value","descriptor"
"true","false","[]","[]","[]","preload","0","31584","0.0-0.0","1920x1080","","","","","","",""
"true","false","[]","[]","[]","preload","1","62087","0.0-1.0","1920x1080","","","","","","",""
"true","false","[]","[]","[]","preload","2","93698","0.0-2.0","1920x1080","","","","","","",""
"true","","","","","fullscreen","3","99123","0.0-3.0","1920x1080","12:1 17/10/2022","","","","","",""
"","","","","","survey-html-form","4","109969","0.0-4.0","1920x1080","","10843.100000023842","{""age"":""18"",""gender"":""female""}","","","",""
"","","","","","html-button-response","5","122502","0.0-5.0","1920x1080","","12534.699999988079","","<div class=""complex"">You are going to see a series of animations.<br><br></div><div class=""complex"">Move the slider to indicate how <strong style=""text-transform:capitalize"">COMPLEX</strong> you find each animation.<br><br></div><div class=""complex"">0 = Least Complex<br></div><div class=""complex"">1 = Most Complex<br><br></div><div class=""complex"">Remember to use the <strong><em>entire range</em></strong> of the slider to make your ratings.<br></div><div class=""complex"">Please <strong><em>take your time</em></strong> and carefully consider each rating you make.<br><br></div><div class=""complex"">The study has five sections and will take about 45 minutes to complete.<br><br></div>","0","",""
"","","","","","call-function","6","122502","0.0-6.0","1920x1080","","","","","","",""
"","","","","","animation","7","141438","0.0-7.0","1920x1080","","18933.80000001192","71.96","img/117/4/0.5/bw/001.png","","","complex"
"","","","","","animation","8","147933","0.0-8.0","1920x1080","","6494.099999964237","49.07","img/117/3.5/0.66667/bw/001.png","","","complex"
"","","","","","animation","9","153558","0.0-9.0","1920x1080","","5623.800000011921","12.96","img/117/4.5/1.5/bw/001.png","","","complex"
"","","","","","animation","10","158262","0.0-10.0","1920x1080","","4703.599999964237","22.49","img/314/4.5/0.66667/bw/001.png","","","complex"
"","","","","","animation","11","163654","0.0-11.0","1920x1080","","5390.399999976158","77.65","img/314/3.5/0.66667/bw/001.png","","","complex"
"","","","","","animation","12","168029","0.0-12.0","1920x1080","","4374.699999988079","1","img/238/4.5/1.5/bw/001.png","","","complex"
"","","","","","animation","13","172437","0.0-13.0","1920x1080","","4407.300000011921","99","img/238/2.5/1/bw/001.png","","","complex"
"","","","","","animation","14","180224","0.0-14.0","1920x1080","","7783.100000023842","98","img/314/2.5/1.5/bw/001.png","","","complex"
"","","","","","animation","15","183936","0.0-15.0","1920x1080","","3710.600000023842","0.93","img/314/4.5/1.5/bw/001.png","","","complex"
"","","","","","animation","16","187352","0.0-16.0","1920x1080","","3415.199999988079","37.57","img/314/4.5/0.5/bw/001.png","","","complex"
"","","","","","animation","17","191040","0.0-17.0","1920x1080","","3687.399999976158","48.68","img/314/3.5/0.5/bw/001.png","","","complex"
"","","","","","animation","18","197176","0.0-18.0","1920x1080","","6135.100000023842","97","img/117/2.5/1.5/bw/001.png","","","complex"
"","","","","","animation","19","201224","0.0-19.0","1920x1080","","4046.899999976158","7.41","img/314/4.5/1/bw/001.png","","","complex"
"","","","","","animation","20","205696","0.0-20.0","1920x1080","","4471.300000011921","1.19","img/314/5.5/2/bw/001.png","","","complex"
"","","","","","animation","21","216104","0.0-21.0","1920x1080","","10406.900000035763","100","img/314/2.5/0.5/bw/001.png","","","complex"
"","","","","","animation","22","226880","0.0-22.0","1920x1080","","10775.600000023842","66.53","img/117/3.5/2/bw/001.png","","","complex"
"","","","","","animation","23","231584","0.0-23.0","1920x1080","","4702.799999952316","61","img/314/4/0.5/bw/001.png","","","complex"
"","","","","","animation","24","238216","0.0-24.0","1920x1080","","6631","57.54","img/238/4/0.66667/bw/001.png","","","complex"
"","","","","","animation","25","240809","0.0-25.0","1920x1080","","2591.600000023842","64.68","img/117/4/0.66667/bw/001.png","","","complex"
"","","","","","animation","26","250937","0.0-26.0","1920x1080","","10126.600000023842","39","img/117/4/1.5/bw/001.png","","","complex"
"","","","","","animation","27","254273","0.0-27.0","1920x1080","","3335.599999964237","1.72","img/117/5.5/0.66667/bw/001.png","","","complex"
"","","","","","animation","28","259145","0.0-28.0","1920x1080","","4870.900000035763","100","img/117/2.5/2/bw/001.png","","","complex"
"","","","","","animation","29","265834","0.0-29.0","1920x1080","","6687.800000011921","1.72","img/238/4/2/bw/001.png","","","complex"
"","","","","","animation","30","274209","0.0-30.0","1920x1080","","8374.600000023842","97","img/238/2.5/1.5/bw/001.png","","","complex"
"","","","","","animation","31","277777","0.0-31.0","1920x1080","","3566.2999999523163","2.38","img/238/5.5/2/bw/001.png","","","complex"
"","","","","","animation","32","280593","0.0-32.0","1920x1080","","2815.5","98","img/314/2.5/1/bw/001.png","","","complex"
"","","","","","animation","33","291105","0.0-33.0","1920x1080","","10511.300000011921","8.07","img/117/5.5/1/bw/001.png","","","complex"
"","","","","","animation","34","295385","0.0-34.0","1920x1080","","4278.600000023842","96","img/117/2.5/1/bw/001.png","","","complex"
"","","","","","animation","35","315825","0.0-35.0","1920x1080","","20440","17.20","img/117/4.5/0.66667/bw/001.png","","","complex"
"","","","","","animation","36","322321","0.0-36.0","1920x1080","","6494.699999988079","81","img/117/3.5/0.5/bw/001.png","","","complex"
"","","","","","animation","37","325217","0.0-37.0","1920x1080","","2894.800000011921","70.63","img/117/4/1/bw/001.png","","","complex"
"","","","","","animation","38","328393","0.0-38.0","1920x1080","","3175.600000023842","91.14","img/117/3.5/1.5/bw/001.png","","","complex"
"","","","","","animation","39","335697","0.0-39.0","1920x1080","","7303.300000011921","16","img/117/5.5/1.5/bw/001.png","","","complex"
"","","","","","animation","40","340545","0.0-40.0","1920x1080","","4847","19.44","img/314/4/1.5/bw/001.png","","","complex"
"","","","","","animation","41","347283","0.0-41.0","1920x1080","","6737.100000023842","25.53","img/314/3.5/1/bw/001.png","","","complex"
"","","","","","animation","42","360876","0.0-42.0","1920x1080","","13589.399999976158","10","img/314/5.5/0.5/bw/001.png","","","complex"
"","","","","","animation","43","369269","0.0-43.0","1920x1080","","8391.599999964237","6.88","img/238/4.5/0.5/bw/001.png","","","complex"
"","","","","","animation","44","377220","0.0-44.0","1920x1080","","7950.300000011921","31","img/238/3.5/1/bw/001.png","","","complex"
"","","","","","animation","45","379924","0.0-45.0","1920x1080","","2703.400000035763","36.38","img/238/3.5/0.5/bw/001.png","","","complex"
"","","","","","animation","46","383669","0.0-46.0","1920x1080","","3744.199999988079","31.75","img/238/3.5/1.5/bw/001.png","","","complex"
"","","","","","animation","47","387172","0.0-47.0","1920x1080","","3502.199999988079","5.82","img/117/5.5/0.5/bw/001.png","","","complex"
"","","","","","animation","48","395820","0.0-48.0","1920x1080","","8647.800000011921","5.95","img/238/5.5/1.5/bw/001.png","","","complex"
"","","","","","animation","49","403686","0.0-49.0","1920x1080","","7862","11.51","img/314/4/2/bw/001.png","","","complex"
"","","","","","animation","50","417092","0.0-50.0","1920x1080","","13405.199999988079","4","img/314/5.5/1/bw/001.png","","","complex"
"","","","","","animation","51","421324","0.0-51.0","1920x1080","","4230.800000011921","97","img/238/2.5/2/bw/001.png","","","complex"
"","","","","","animation","52","426556","0.0-52.0","1920x1080","","5231.099999964237","48.02","img/238/3.5/2/bw/001.png","","","complex"
"","","","","","animation","53","431924","0.0-53.0","1920x1080","","5367.300000011921","60.05","img/238/4/0.5/bw/001.png","","","complex"
"","","","","","animation","54","435774","0.0-54.0","1920x1080","","3848.5","6.48","img/117/5.5/2/bw/001.png","","","complex"
"","","","","","animation","55","440860","0.0-55.0","1920x1080","","5085.199999988079","2.12","img/238/5.5/1/bw/001.png","","","complex"
"","","","","","animation","56","445140","0.0-56.0","1920x1080","","4279","100","img/117/2.5/0.5/bw/001.png","","","complex"
"","","","","","animation","57","449421","0.0-57.0","1920x1080","","4279.800000011921","7.54","img/314/4.5/2/bw/001.png","","","complex"
"","","","","","animation","58","455452","0.0-58.0","1920x1080","","6030.5","12.70","img/238/4.5/1/bw/001.png","","","complex"
"","","","","","animation","59","463124","0.0-59.0","1920x1080","","7669.800000011921","5.56","img/238/5.5/0.5/bw/001.png","","","complex"
"","","","","","animation","60","467716","0.0-60.0","1920x1080","","4590.900000035763","53.17","img/238/4/1/bw/001.png","","","complex"
"","","","","","animation","61","471676","0.0-61.0","1920x1080","","3958.900000035763","39.68","img/314/5.5/0.66667/bw/001.png","","","complex"
"","","","","","animation","62","477276","0.0-62.0","1920x1080","","5598.899999976158","6","img/238/4.5/2/bw/001.png","","","complex"
"","","","","","animation","63","500285","0.0-63.0","1920x1080","","23009.5","10.71","img/117/4/2/bw/001.png","","","complex"
"","","","","","animation","64","504301","0.0-64.0","1920x1080","","4011.699999988079","68.12","img/238/4/1.5/bw/001.png","","","complex"
"","","","","","animation","65","509501","0.0-65.0","1920x1080","","5198.5","52","img/314/3.5/1.5/bw/001.png","","","complex"
"","","","","","animation","66","521539","0.0-66.0","1920x1080","","12037","66.53","img/117/4.5/1/bw/001.png","","","complex"
"","","","","","animation","67","525379","0.0-67.0","1920x1080","","3839.399999976158","96","img/117/2.5/0.66667/bw/001.png","","","complex"
"","","","","","animation","68","528395","0.0-68.0","1920x1080","","3015.199999988079","73.02","img/314/4/1/bw/001.png","","","complex"
"","","","","","animation","69","530955","0.0-69.0","1920x1080","","2558.600000023842","75.79","img/117/3.5/1/bw/001.png","","","complex"
"","","","","","animation","70","535195","0.0-70.0","1920x1080","","4239.399999976158","83.60","img/314/3.5/2/bw/001.png","","","complex"
"","","","","","animation","71","539068","0.0-71.0","1920x1080","","3873.099999964237","5.95","img/238/5.5/0.66667/bw/001.png","","","complex"
"","","","","","animation","72","544251","0.0-72.0","1920x1080","","5179.800000011921","100","img/238/2.5/0.5/bw/001.png","","","complex"
"","","","","","animation","73","549419","0.0-73.0","1920x1080","","5165.900000035763","84.13","img/117/4.5/0.5/bw/001.png","","","complex"
"","","","","","animation","74","551906","0.0-74.0","1920x1080","","2486.100000023842","97","img/314/2.5/2/bw/001.png","","","complex"
"","","","","","animation","75","555002","0.0-75.0","1920x1080","","3094.900000035763","100","img/238/2.5/0.66667/bw/001.png","","","complex"
"","","","","","animation","76","559585","0.0-76.0","1920x1080","","4582.399999976158","16.53","img/314/5.5/1.5/bw/001.png","","","complex"
"","","","","","animation","77","575202","0.0-77.0","1920x1080","","15615.300000011921","12","img/238/3.5/0.66667/bw/001.png","","","complex"
"","","","","","animation","78","578900","0.0-78.0","1920x1080","","3696.199999988079","97","img/314/2.5/0.66667/bw/001.png","","","complex"
"","","","","","animation","79","585010","0.0-79.0","1920x1080","","6109","19.18","img/314/4/0.66667/bw/001.png","","","complex"
"","","","","","animation","80","596994","0.0-80.0","1920x1080","","11982.799999952316","16","img/117/4.5/2/bw/001.png","","","complex"
"","","","","","animation","81","603617","0.0-81.0","1920x1080","","6617.800000011921","16","img/238/4.5/0.66667/bw/001.png","","","complex"
"","","","","","html-button-response","82","622665","0.0-82.0","1920x1080","","19047","","<div class=""intro"">You are about to view a new series of animations.<br><br></div><div class=""intro"">You will evaluate them based on a different descriptor.<br><br></div><div class=""intro"">Move the slider to indicate how <strong style=""text-transform:capitalize"">RELAXING</strong> you find each animation.<br><br></div><div class=""intro"">0 = Least Relaxing<br></div><div class=""intro"">1 = Most Relaxing<br><br></div><div class=""intro"">Remember to use the <strong><em>entire range</em></strong> of the slider to make your ratings.<br></div><div class=""intro"">Please <strong><em>take your time</em></strong> and carefully consider each rating you make.<br><br></div>","0","",""
"","","","","","call-function","83","622666","0.0-83.0","1920x1080","","","","","","",""
"","","","","","animation","84","639145","0.0-84.0","1920x1080","","16478.099999964237","59","img/314/4/2/bw/001.png","","","relaxing"
"","","","","","animation","85","643289","0.0-85.0","1920x1080","","4142","68.25","img/117/5.5/1/bw/001.png","","","relaxing"
"","","","","","animation","86","649561","0.0-86.0","1920x1080","","6270.900000035763","1.32","img/117/2.5/1/bw/001.png","","","relaxing"
"","","","","","animation","87","653401","0.0-87.0","1920x1080","","3837.7999999523163","15","img/117/4/0.66667/bw/001.png","","","relaxing"
"","","","","","animation","88","656736","0.0-88.0","1920x1080","","3334.199999988079","34.52","img/117/4/1.5/bw/001.png","","","relaxing"
"","","","","","animation","89","659542","0.0-89.0","1920x1080","","2798.7999999523163","71","img/238/4.5/2/bw/001.png","","","relaxing"
"","","","","","animation","90","663182","0.0-90.0","1920x1080","","3639.399999976158","84","img/238/5.5/0.66667/bw/001.png","","","relaxing"
"","","","","","animation","91","671998","0.0-91.0","1920x1080","","8814.900000035763","2","img/314/2.5/2/bw/001.png","","","relaxing"
"","","","","","animation","92","675022","0.0-92.0","1920x1080","","3022.600000023842","5.29","img/117/2.5/2/bw/001.png","","","relaxing"
"","","","","","animation","93","678758","0.0-93.0","1920x1080","","3734.900000035763","81.08","img/117/5.5/2/bw/001.png","","","relaxing"
"","","","","","animation","94","682998","0.0-94.0","1920x1080","","4239.099999964237","39","img/238/3.5/1/bw/001.png","","","relaxing"
"","","","","","animation","95","693142","0.0-95.0","1920x1080","","10143.099999964237","97","img/238/5.5/1/bw/001.png","","","relaxing"
"","","","","","animation","96","701910","0.0-96.0","1920x1080","","8763.800000011921","58","img/238/4.5/1/bw/001.png","","","relaxing"
"","","","","","animation","97","707872","0.0-97.0","1920x1080","","5960.5","0","img/314/2.5/1/bw/001.png","","","relaxing"
"","","","","","animation","98","716689","0.0-98.0","1920x1080","","8815.899999976158","59.79","img/117/5.5/0.5/bw/001.png","","","relaxing"
"","","","","","animation","99","723124","0.0-99.0","1920x1080","","6436.100000023842","94.58","img/117/5.5/1.5/bw/001.png","","","relaxing"
"","","","","","animation","100","730948","0.0-100.0","1920x1080","","7822.199999988079","62.57","img/238/4.5/1.5/bw/001.png","","","relaxing"
"","","","","","animation","101","734748","0.0-101.0","1920x1080","","3798.7000000476837","55.95","img/117/5.5/0.66667/bw/001.png","","","relaxing"
"","","","","","animation","102","739340","0.0-102.0","1920x1080","","4590.800000011921","41.01","img/117/4.5/0.66667/bw/001.png","","","relaxing"
"","","","","","animation","103","756372","0.0-103.0","1920x1080","","17030.900000035763","46","img/238/3.5/2/bw/001.png","","","relaxing"
"","","","","","animation","104","759036","0.0-104.0","1920x1080","","2662.599999964237","33.86","img/238/3.5/1.5/bw/001.png","","","relaxing"
"","","","","","animation","105","764720","0.0-105.0","1920x1080","","5683.699999988079","11","img/238/3.5/0.5/bw/001.png","","","relaxing"
"","","","","","animation","106","772180","0.0-106.0","1920x1080","","7458.899999976158","66","img/238/4.5/0.66667/bw/001.png","","","relaxing"
"","","","","","animation","107","775136","0.0-107.0","1920x1080","","2954.900000035763","0.93","img/238/2.5/0.66667/bw/001.png","","","relaxing"
"","","","","","animation","108","784340","0.0-108.0","1920x1080","","9199.899999976158","7.54","img/238/2.5/2/bw/001.png","","","relaxing"
"","","","","","animation","109","791248","0.0-109.0","1920x1080","","6906.300000011921","11","img/117/3.5/0.5/bw/001.png","","","relaxing"
"","","","","","animation","110","794744","0.0-110.0","1920x1080","","3492.300000011921","62.57","img/314/4.5/1/bw/001.png","","","relaxing"
"","","","","","animation","111","797623","0.0-111.0","1920x1080","","2878.699999988079","1.72","img/314/2.5/0.5/bw/001.png","","","relaxing"
"","","","","","animation","112","801847","0.0-112.0","1920x1080","","4223.099999964237","58","img/314/4.5/0.66667/bw/001.png","","","relaxing"
"","","","","","animation","113","819752","0.0-113.0","1920x1080","","17903.19999998808","78","img/314/3.5/2/bw/001.png","","","relaxing"
"","","","","","animation","114","830240","0.0-114.0","1920x1080","","10487.399999976158","58","img/314/4/1/bw/001.png","","","relaxing"
"","","","","","animation","115","845964","0.0-115.0","1920x1080","","15725.900000035763","60","img/238/4/1.5/bw/001.png","","","relaxing"
"","","","","","animation","116","849691","0.0-116.0","1920x1080","","3727.100000023842","6.88","img/117/2.5/0.66667/bw/001.png","","","relaxing"
"","","","","","animation","117","858870","0.0-117.0","1920x1080","","9177.600000023842","97","img/314/5.5/1/bw/001.png","","","relaxing"
"","","","","","animation","118","867355","0.0-118.0","1920x1080","","8480.699999988079","75","img/314/4/0.66667/bw/001.png","","","relaxing"
"","","","","","animation","119","870548","0.0-119.0","1920x1080","","3191.300000011921","85","img/314/5.5/0.5/bw/001.png","","","relaxing"
"","","","","","animation","120","879486","0.0-120.0","1920x1080","","8936.699999988079","41.53","img/117/3.5/1/bw/001.png","","","relaxing"
"","","","","","animation","121","883536","0.0-121.0","1920x1080","","4048.899999976158","30.03","img/314/3.5/0.5/bw/001.png","","","relaxing"
"","","","","","animation","122","894107","0.0-122.0","1920x1080","","10571.100000023842","85.05","img/238/4.5/0.5/bw/001.png","","","relaxing"
"","","","","","animation","123","896780","0.0-123.0","1920x1080","","2670.800000011921","0","img/238/2.5/1.5/bw/001.png","","","relaxing"
"","","","","","animation","124","914852","0.0-124.0","1920x1080","","18079","49","img/314/4/0.5/bw/001.png","","","relaxing"
"","","","","","animation","125","923478","0.0-125.0","1920x1080","","8624.400000035763","99","img/238/5.5/1.5/bw/001.png","","","relaxing"
"","","","","","animation","126","926884","0.0-126.0","1920x1080","","3403.699999988079","46.30","img/238/4/0.66667/bw/001.png","","","relaxing"
"","","","","","animation","127","930548","0.0-127.0","1920x1080","","3662.400000035763","25.40","img/314/3.5/1/bw/001.png","","","relaxing"
"","","","","","animation","128","935113","0.0-128.0","1920x1080","","4563.800000011921","2","img/238/2.5/1/bw/001.png","","","relaxing"
"","","","","","animation","129","945004","0.0-129.0","1920x1080","","9890.600000023842","33.07","img/238/3.5/0.66667/bw/001.png","","","relaxing"
"","","","","","animation","130","963123","0.0-130.0","1920x1080","","18107.69999998808","55","img/117/4.5/1.5/bw/001.png","","","relaxing"
"","","","","","animation","131","967622","0.0-131.0","1920x1080","","4498.100000023842","70.50","img/117/4.5/2/bw/001.png","","","relaxing"
"","","","","","animation","132","975047","0.0-132.0","1920x1080","","7422.899999976158","49.60","img/117/4.5/0.5/bw/001.png","","","relaxing"
"","","","","","animation","133","983383","0.0-133.0","1920x1080","","8334.5","47.75","img/238/4/1/bw/001.png","","","relaxing"
"","","","","","animation","134","989126","0.0-134.0","1920x1080","","5742.100000023842","36.90","img/117/3.5/1.5/bw/001.png","","","relaxing"
"","","","","","animation","135","993630","0.0-135.0","1920x1080","","4501.300000011921","39.15","img/314/3.5/1.5/bw/001.png","","","relaxing"
"","","","","","animation","136","1005310","0.0-136.0","1920x1080","","11678.899999976158","40","img/238/4/0.5/bw/001.png","","","relaxing"
"","","","","","animation","137","1020253","0.0-137.0","1920x1080","","14943.099999964237","67.99","img/117/4.5/1/bw/001.png","","","relaxing"
"","","","","","animation","138","1027839","0.0-138.0","1920x1080","","7584.199999988079","60.19","img/117/3.5/2/bw/001.png","","","relaxing"
"","","","","","animation","139","1034153","0.0-139.0","1920x1080","","6313.400000035763","40.87","img/117/3.5/0.66667/bw/001.png","","","relaxing"
"","","","","","animation","140","1037765","0.0-140.0","1920x1080","","3610.300000011921","0","img/117/2.5/0.5/bw/001.png","","","relaxing"
"","","","","","animation","141","1040725","0.0-141.0","1920x1080","","2958.199999988079","87.30","img/238/5.5/0.5/bw/001.png","","","relaxing"
"","","","","","animation","142","1043965","0.0-142.0","1920x1080","","3239.199999988079","5.42","img/117/2.5/1.5/bw/001.png","","","relaxing"
"","","","","","animation","143","1049309","0.0-143.0","1920x1080","","5342.600000023842","93.65","img/314/4.5/2/bw/001.png","","","relaxing"
"","","","","","animation","144","1055871","0.0-144.0","1920x1080","","6560.5","11.38","img/314/3.5/0.66667/bw/001.png","","","relaxing"
"","","","","","animation","145","1065309","0.0-145.0","1920x1080","","9437.200000047684","92","img/117/4/2/bw/001.png","","","relaxing"
"","","","","","animation","146","1070937","0.0-146.0","1920x1080","","5626.199999988079","99","img/314/4.5/1.5/bw/001.png","","","relaxing"
"","","","","","animation","147","1074737","0.0-147.0","1920x1080","","3798.300000011921","99","img/314/5.5/2/bw/001.png","","","relaxing"
"","","","","","animation","148","1078245","0.0-148.0","1920x1080","","3507.2000000476837","3.57","img/238/2.5/0.5/bw/001.png","","","relaxing"
"","","","","","animation","149","1086306","0.0-149.0","1920x1080","","8057.400000035763","48.81","img/314/4.5/0.5/bw/001.png","","","relaxing"
"","","","","","animation","150","1090755","0.0-150.0","1920x1080","","4448.300000011921","18","img/117/4/0.5/bw/001.png","","","relaxing"
"","","","","","animation","151","1102727","0.0-151.0","1920x1080","","11970.800000011921","62","img/117/4/1/bw/001.png","","","relaxing"
"","","","","","animation","152","1107556","0.0-152.0","1920x1080","","4826.900000035763","99","img/238/5.5/2/bw/001.png","","","relaxing"
"","","","","","animation","153","1124555","0.0-153.0","1920x1080","","16998.600000023842","90","img/238/4/2/bw/001.png","","","relaxing"
"","","","","","animation","154","1129383","0.0-154.0","1920x1080","","4825.699999988079","8.60","img/314/2.5/1.5/bw/001.png","","","relaxing"
"","","","","","animation","155","1134706","0.0-155.0","1920x1080","","5321.299999952316","98","img/314/5.5/1.5/bw/001.png","","","relaxing"
"","","","","","animation","156","1138863","0.0-156.0","1920x1080","","4155.699999988079","4","img/314/2.5/0.66667/bw/001.png","","","relaxing"
"","","","","","animation","157","1143105","0.0-157.0","1920x1080","","4241.300000011921","86.11","img/314/4/1.5/bw/001.png","","","relaxing"
"","","","","","animation","158","1149078","0.0-158.0","1920x1080","","5972.100000023842","77.25","img/314/5.5/0.66667/bw/001.png","","","relaxing"
"","","","","","html-button-response","159","1169879","0.0-159.0","1920x1080","","20799.30000001192","","<div class=""intro"">You are about to view a new series of animations.<br><br></div><div class=""intro"">You will evaluate them based on a different descriptor.<br><br></div><div class=""intro"">Move the slider to indicate how <strong style=""text-transform:capitalize"">APPEALING</strong> you find each animation.<br><br></div><div class=""intro"">0 = Least Appealing<br></div><div class=""intro"">1 = Most Appealing<br><br></div><div class=""intro"">Remember to use the <strong><em>entire range</em></strong> of the slider to make your ratings.<br></div><div class=""intro"">Please <strong><em>take your time</em></strong> and carefully consider each rating you make.<br><br></div>","0","",""
"","","","","","call-function","160","1169881","0.0-160.0","1920x1080","","","","","","",""
"","","","","","animation","161","1178879","0.0-161.0","1920x1080","","8996.300000011921","21.69","img/238/4/0.5/bw/001.png","","","appealing"
"","","","","","animation","162","1186755","0.0-162.0","1920x1080","","7875","52.65","img/238/2.5/2/bw/001.png","","","appealing"
"","","","","","animation","163","1194799","0.0-163.0","1920x1080","","8042.800000011921","89.29","img/238/4.5/2/bw/001.png","","","appealing"
"","","","","","animation","164","1198695","0.0-164.0","1920x1080","","3893.900000035763","26.72","img/314/4.5/0.5/bw/001.png","","","appealing"
"","","","","","animation","165","1205039","0.0-165.0","1920x1080","","6343.699999988079","36","img/117/4/1/bw/001.png","","","appealing"
"","","","","","animation","166","1211337","0.0-166.0","1920x1080","","6297.400000035763","83.47","img/314/5.5/0.66667/bw/001.png","","","appealing"
"","","","","","animation","167","1219678","0.0-167.0","1920x1080","","8339.800000011921","89.42","img/117/3.5/2/bw/001.png","","","appealing"
"","","","","","animation","168","1223262","0.0-168.0","1920x1080","","3582.5","94.97","img/117/4/2/bw/001.png","","","appealing"
"","","","","","animation","169","1228689","0.0-169.0","1920x1080","","5425.300000011921","4","img/117/2.5/0.5/bw/001.png","","","appealing"
"","","","","","animation","170","1233446","0.0-170.0","1920x1080","","4755.699999988079","0.53","img/238/2.5/0.5/bw/001.png","","","appealing"
"","","","","","animation","171","1245230","0.0-171.0","1920x1080","","11782.900000035763","97","img/238/5.5/0.5/bw/001.png","","","appealing"
"","","","","","animation","172","1254278","0.0-172.0","1920x1080","","9044.300000011921","55.16","img/314/2.5/2/bw/001.png","","","appealing"
"","","","","","animation","173","1257859","0.0-173.0","1920x1080","","3579.399999976158","6.22","img/314/2.5/0.5/bw/001.png","","","appealing"
"","","","","","animation","174","1267171","0.0-174.0","1920x1080","","9310","99","img/238/5.5/1/bw/001.png","","","appealing"
"","","","","","animation","175","1273143","0.0-175.0","1920x1080","","5968.199999988079","81.88","img/314/5.5/0.5/bw/001.png","","","appealing"
"","","","","","animation","176","1277671","0.0-176.0","1920x1080","","4527.399999976158","42.33","img/117/3.5/1/bw/001.png","","","appealing"
"","","","","","animation","177","1283759","0.0-177.0","1920x1080","","6086.399999976158","99","img/117/5.5/1/bw/001.png","","","appealing"
"","","","","","animation","178","1287015","0.0-178.0","1920x1080","","3255","1","img/117/2.5/0.66667/bw/001.png","","","appealing"
"","","","","","animation","179","1295372","0.0-179.0","1920x1080","","8355.900000035763","74.74","img/238/4/2/bw/001.png","","","appealing"
"","","","","","animation","180","1299958","0.0-180.0","1920x1080","","4584.100000023842","53.57","img/238/3.5/1.5/bw/001.png","","","appealing"
"","","","","","animation","181","1305038","0.0-181.0","1920x1080","","5078.800000011921","57.67","img/117/3.5/1.5/bw/001.png","","","appealing"
"","","","","","animation","182","1311888","0.0-182.0","1920x1080","","6848.800000011921","16.40","img/238/2.5/0.66667/bw/001.png","","","appealing"
"","","","","","animation","183","1317695","0.0-183.0","1920x1080","","5805.400000035763","32.54","img/238/4.5/0.66667/bw/001.png","","","appealing"
"","","","","","animation","184","1323155","0.0-184.0","1920x1080","","5458.599999964237","44","img/117/5.5/0.5/bw/001.png","","","appealing"
"","","","","","animation","185","1330015","0.0-185.0","1920x1080","","6859.100000023842","60.19","img/314/4/1.5/bw/001.png","","","appealing"
"","","","","","animation","186","1347311","0.0-186.0","1920x1080","","17294.899999976158","32.54","img/117/3.5/0.5/bw/001.png","","","appealing"
"","","","","","animation","187","1356696","0.0-187.0","1920x1080","","9382.300000011921","85.45","img/117/4.5/0.66667/bw/001.png","","","appealing"
"","","","","","animation","188","1368175","0.0-188.0","1920x1080","","11476.899999976158","35.58","img/314/3.5/0.66667/bw/001.png","","","appealing"
"","","","","","animation","189","1373556","0.0-189.0","1920x1080","","5379.700000047684","9","img/314/2.5/0.66667/bw/001.png","","","appealing"
"","","","","","animation","190","1380422","0.0-190.0","1920x1080","","6865.599999964237","91","img/314/4.5/2/bw/001.png","","","appealing"
"","","","","","animation","191","1385430","0.0-191.0","1920x1080","","5007.200000047684","55.29","img/238/4/1/bw/001.png","","","appealing"
"","","","","","animation","192","1395488","0.0-192.0","1920x1080","","10055.899999976158","89.42","img/314/5.5/1.5/bw/001.png","","","appealing"
"","","","","","animation","193","1398790","0.0-193.0","1920x1080","","3301.199999988079","54.37","img/314/4/1/bw/001.png","","","appealing"
"","","","","","animation","194","1401538","0.0-194.0","1920x1080","","2746.400000035763","61.24","img/314/4.5/1.5/bw/001.png","","","appealing"
"","","","","","animation","195","1404438","0.0-195.0","1920x1080","","2899.300000011921","44.58","img/314/4/0.66667/bw/001.png","","","appealing"
"","","","","","animation","196","1408854","0.0-196.0","1920x1080","","4415.299999952316","70.37","img/117/5.5/1.5/bw/001.png","","","appealing"
"","","","","","animation","197","1417722","0.0-197.0","1920x1080","","8866.5","57","img/238/3.5/1/bw/001.png","","","appealing"
"","","","","","animation","198","1428688","0.0-198.0","1920x1080","","10964.699999988079","86","img/238/5.5/0.66667/bw/001.png","","","appealing"
"","","","","","animation","199","1432630","0.0-199.0","1920x1080","","3941.399999976158","36.51","img/117/4.5/0.5/bw/001.png","","","appealing"
"","","","","","animation","200","1438406","0.0-200.0","1920x1080","","5774.100000023842","27.12","img/238/4/0.66667/bw/001.png","","","appealing"
"","","","","","animation","201","1443761","0.0-201.0","1920x1080","","5347.699999988079","75.53","img/314/3.5/2/bw/001.png","","","appealing"
"","","","","","animation","202","1448036","0.0-202.0","1920x1080","","4273.199999988079","57.01","img/238/4.5/0.5/bw/001.png","","","appealing"
"","","","","","animation","203","1451100","0.0-203.0","1920x1080","","3062.2000000476837","63","img/314/4.5/1/bw/001.png","","","appealing"
"","","","","","animation","204","1460028","0.0-204.0","1920x1080","","8926.400000035763","89.68","img/238/5.5/1.5/bw/001.png","","","appealing"
"","","","","","animation","205","1465020","0.0-205.0","1920x1080","","4991.200000047684","3.31","img/117/2.5/1/bw/001.png","","","appealing"
"","","","","","animation","206","1471836","0.0-206.0","1920x1080","","6814.100000023842","48","img/238/3.5/0.66667/bw/001.png","","","appealing"
"","","","","","animation","207","1480810","0.0-207.0","1920x1080","","8973.300000011921","43.25","img/238/3.5/0.5/bw/001.png","","","appealing"
"","","","","","animation","208","1490044","0.0-208.0","1920x1080","","9230.800000011921","63.76","img/314/3.5/1.5/bw/001.png","","","appealing"
"","","","","","animation","209","1495410","0.0-209.0","1920x1080","","5363.099999964237","3.84","img/238/2.5/1/bw/001.png","","","appealing"
"","","","","","animation","210","1516676","0.0-210.0","1920x1080","","21265.5","38","img/117/3.5/0.66667/bw/001.png","","","appealing"
"","","","","","animation","211","1521593","0.0-211.0","1920x1080","","4915.800000011921","95","img/117/4/1.5/bw/001.png","","","appealing"
"","","","","","animation","212","1528563","0.0-212.0","1920x1080","","6968.600000023842","92","img/238/4.5/1.5/bw/001.png","","","appealing"
"","","","","","animation","213","1534625","0.0-213.0","1920x1080","","6061.099999964237","35","img/314/3.5/1/bw/001.png","","","appealing"
"","","","","","animation","214","1541131","0.0-214.0","1920x1080","","6504.300000011921","87","img/117/5.5/0.66667/bw/001.png","","","appealing"
"","","","","","animation","215","1545067","0.0-215.0","1920x1080","","3934.699999988079","37.57","img/117/4/0.66667/bw/001.png","","","appealing"
"","","","","","animation","216","1550009","0.0-216.0","1920x1080","","4940.5","28","img/314/4/0.5/bw/001.png","","","appealing"
"","","","","","animation","217","1556027","0.0-217.0","1920x1080","","6016.600000023842","97","img/117/5.5/2/bw/001.png","","","appealing"
"","","","","","animation","218","1560318","0.0-218.0","1920x1080","","4286.699999988079","99","img/117/4.5/2/bw/001.png","","","appealing"
"","","","","","animation","219","1564612","0.0-219.0","1920x1080","","4292.5","70","img/117/4.5/1/bw/001.png","","","appealing"
"","","","","","animation","220","1572445","0.0-220.0","1920x1080","","7832.399999976158","55","img/117/2.5/2/bw/001.png","","","appealing"
"","","","","","animation","221","1580429","0.0-221.0","1920x1080","","7982.800000011921","61","img/238/3.5/2/bw/001.png","","","appealing"
"","","","","","animation","222","1583262","0.0-222.0","1920x1080","","2830.600000023842","3.97","img/314/2.5/1.5/bw/001.png","","","appealing"
"","","","","","animation","223","1588212","0.0-223.0","1920x1080","","4948.699999988079","15","img/238/2.5/1.5/bw/001.png","","","appealing"
"","","","","","animation","224","1598350","0.0-224.0","1920x1080","","10136.300000011921","70","img/238/4/1.5/bw/001.png","","","appealing"
"","","","","","animation","225","1602437","0.0-225.0","1920x1080","","4086.5","76","img/117/4.5/1.5/bw/001.png","","","appealing"
"","","","","","animation","226","1611118","0.0-226.0","1920x1080","","8678.699999988079","62","img/314/4.5/0.66667/bw/001.png","","","appealing"
"","","","","","animation","227","1614828","0.0-227.0","1920x1080","","3709.100000023842","45.50","img/314/3.5/0.5/bw/001.png","","","appealing"
"","","","","","animation","228","1621702","0.0-228.0","1920x1080","","6872.399999976158","90.74","img/238/5.5/2/bw/001.png","","","appealing"
"","","","","","animation","229","1627686","0.0-229.0","1920x1080","","5981.200000047684","80.82","img/238/4.5/1/bw/001.png","","","appealing"
"","","","","","animation","230","1632798","0.0-230.0","1920x1080","","5108.099999964237","20","img/117/4/0.5/bw/001.png","","","appealing"
"","","","","","animation","231","1637179","0.0-231.0","1920x1080","","4379.300000011921","83.47","img/314/5.5/2/bw/001.png","","","appealing"
"","","","","","animation","232","1641612","0.0-232.0","1920x1080","","4431.899999976158","4.10","img/314/2.5/1/bw/001.png","","","appealing"
"","","","","","animation","233","1644950","0.0-233.0","1920x1080","","3336.300000011921","13.36","img/117/2.5/1.5/bw/001.png","","","appealing"
"","","","","","animation","234","1650946","0.0-234.0","1920x1080","","5994.100000023842","95","img/314/5.5/1/bw/001.png","","","appealing"
"","","","","","animation","235","1655398","0.0-235.0","1920x1080","","4449.5","88.76","img/314/4/2/bw/001.png","","","appealing"
"","","","","","html-button-response","236","1675966","0.0-236.0","1920x1080","","20566.5","","<div class=""intro"">You are about to view a new series of animations.<br><br></div><div class=""intro"">You will evaluate them based on a different descriptor.<br><br></div><div class=""intro"">Move the slider to indicate how <strong style=""text-transform:capitalize"">NATURAL</strong> you find each animation.<br><br></div><div class=""intro"">0 = Least Natural<br></div><div class=""intro"">1 = Most Natural<br><br></div><div class=""intro"">Remember to use the <strong><em>entire range</em></strong> of the slider to make your ratings.<br></div><div class=""intro"">Please <strong><em>take your time</em></strong> and carefully consider each rating you make.<br><br></div>","0","",""
"","","","","","call-function","237","1675968","0.0-237.0","1920x1080","","","","","","",""
"","","","","","animation","238","1691568","0.0-238.0","1920x1080","","15600.199999988079","56","img/117/3.5/1.5/bw/001.png","","","natural"
"","","","","","animation","239","1695838","0.0-239.0","1920x1080","","4267.300000011921","67","img/117/4/1.5/bw/001.png","","","natural"
"","","","","","animation","240","1699195","0.0-240.0","1920x1080","","3356.2000000476837","36.51","img/117/3.5/0.66667/bw/001.png","","","natural"
"","","","","","animation","241","1702038","0.0-241.0","1920x1080","","2841.400000035763","41.93","img/314/4/0.66667/bw/001.png","","","natural"
"","","","","","animation","242","1705312","0.0-242.0","1920x1080","","3273.5","28.57","img/314/4/0.5/bw/001.png","","","natural"
"","","","","","animation","243","1716517","0.0-243.0","1920x1080","","11203.5","81","img/314/5.5/0.5/bw/001.png","","","natural"
"","","","","","animation","244","1722728","0.0-244.0","1920x1080","","6208.599999964237","28","img/238/3.5/1.5/bw/001.png","","","natural"
"","","","","","animation","245","1728095","0.0-245.0","1920x1080","","5365.300000011921","91.27","img/238/5.5/2/bw/001.png","","","natural"
"","","","","","animation","246","1732686","0.0-246.0","1920x1080","","4589.600000023842","38","img/117/4/0.5/bw/001.png","","","natural"
"","","","","","animation","247","1735878","0.0-247.0","1920x1080","","3191.199999988079","67.06","img/314/3.5/2/bw/001.png","","","natural"
"","","","","","animation","248","1740383","0.0-248.0","1920x1080","","4503.100000023842","58","img/314/4.5/0.66667/bw/001.png","","","natural"
"","","","","","animation","249","1746765","0.0-249.0","1920x1080","","6380.199999988079","84","img/238/5.5/1/bw/001.png","","","natural"
"","","","","","animation","250","1749565","0.0-250.0","1920x1080","","2798.399999976158","17","img/117/3.5/0.5/bw/001.png","","","natural"
"","","","","","animation","251","1753528","0.0-251.0","1920x1080","","3961.199999988079","95","img/117/5.5/2/bw/001.png","","","natural"
"","","","","","animation","252","1756797","0.0-252.0","1920x1080","","3268.300000011921","20.50","img/117/3.5/1/bw/001.png","","","natural"
"","","","","","animation","253","1762279","0.0-253.0","1920x1080","","5480.599999964237","35","img/314/3.5/1.5/bw/001.png","","","natural"
"","","","","","animation","254","1769197","0.0-254.0","1920x1080","","6916.5","1","img/238/2.5/1.5/bw/001.png","","","natural"
"","","","","","animation","255","1774212","0.0-255.0","1920x1080","","5013.100000023842","86.90","img/314/4.5/1/bw/001.png","","","natural"
"","","","","","animation","256","1777731","0.0-256.0","1920x1080","","3517.899999976158","96","img/238/5.5/0.66667/bw/001.png","","","natural"
"","","","","","animation","257","1787195","0.0-257.0","1920x1080","","9462.799999952316","64","img/314/4/1/bw/001.png","","","natural"
"","","","","","animation","258","1802917","0.0-258.0","1920x1080","","15721.400000035763","63.76","img/238/3.5/1/bw/001.png","","","natural"
"","","","","","animation","259","1817780","0.0-259.0","1920x1080","","14859.700000047684","7","img/117/2.5/2/bw/001.png","","","natural"
"","","","","","animation","260","1820853","0.0-260.0","1920x1080","","3071","4","img/238/2.5/2/bw/001.png","","","natural"
"","","","","","animation","261","1827660","0.0-261.0","1920x1080","","6806","5","img/238/3.5/0.66667/bw/001.png","","","natural"
"","","","","","animation","262","1832494","0.0-262.0","1920x1080","","4832.5","0.79","img/117/2.5/1.5/bw/001.png","","","natural"
"","","","","","animation","263","1838411","0.0-263.0","1920x1080","","5915.299999952316","0","img/117/2.5/0.5/bw/001.png","","","natural"
"","","","","","animation","264","1843901","0.0-264.0","1920x1080","","5488.400000035763","99","img/314/5.5/0.66667/bw/001.png","","","natural"
"","","","","","animation","265","1854380","0.0-265.0","1920x1080","","10478.199999988079","86.77","img/238/4/0.66667/bw/001.png","","","natural"
"","","","","","animation","266","1861084","0.0-266.0","1920x1080","","6702.599999964237","0","img/238/2.5/0.66667/bw/001.png","","","natural"
"","","","","","animation","267","1863996","0.0-267.0","1920x1080","","2908.899999976158","76.46","img/117/3.5/2/bw/001.png","","","natural"
"","","","","","animation","268","1870669","0.0-268.0","1920x1080","","6671.200000047684","46.30","img/238/4/1.5/bw/001.png","","","natural"
"","","","","","animation","269","1890484","0.0-269.0","1920x1080","","19814.19999998808","57","img/314/2.5/2/bw/001.png","","","natural"
"","","","","","animation","270","1895765","0.0-270.0","1920x1080","","5277.899999976158","74.47","img/314/4.5/0.5/bw/001.png","","","natural"
"","","","","","animation","271","1901314","0.0-271.0","1920x1080","","5547.200000047684","90.74","img/117/5.5/0.5/bw/001.png","","","natural"
"","","","","","animation","272","1913849","0.0-272.0","1920x1080","","12532.199999988079","94","img/117/4.5/1.5/bw/001.png","","","natural"
"","","","","","animation","273","1922863","0.0-273.0","1920x1080","","9009.399999976158","100","img/314/5.5/1.5/bw/001.png","","","natural"
"","","","","","animation","274","1927503","0.0-274.0","1920x1080","","4637.700000047684","3.31","img/314/2.5/1.5/bw/001.png","","","natural"
"","","","","","animation","275","1933814","0.0-275.0","1920x1080","","6309.699999988079","93.39","img/117/5.5/1/bw/001.png","","","natural"
"","","","","","animation","276","1938598","0.0-276.0","1920x1080","","4781.800000011921","70.50","img/238/4.5/2/bw/001.png","","","natural"
"","","","","","animation","277","1944214","0.0-277.0","1920x1080","","5614.100000023842","82","img/314/4.5/2/bw/001.png","","","natural"
"","","","","","animation","278","1950763","0.0-278.0","1920x1080","","6546.699999988079","41","img/238/4.5/0.5/bw/001.png","","","natural"
"","","","","","animation","279","1963662","0.0-279.0","1920x1080","","12898","69.18","img/314/4.5/1.5/bw/001.png","","","natural"
"","","","","","animation","280","1968182","0.0-280.0","1920x1080","","4518.300000011921","21.69","img/314/2.5/0.66667/bw/001.png","","","natural"
"","","","","","animation","281","1972029","0.0-281.0","1920x1080","","3844.600000023842","7.94","img/314/2.5/0.5/bw/001.png","","","natural"
"","","","","","animation","282","1977133","0.0-282.0","1920x1080","","5103","75.26","img/117/4.5/1/bw/001.png","","","natural"
"","","","","","animation","283","1983946","0.0-283.0","1920x1080","","6808.199999988079","4","img/314/2.5/1/bw/001.png","","","natural"
"","","","","","animation","284","1995998","0.0-284.0","1920x1080","","12051","87.30","img/238/4.5/1.5/bw/001.png","","","natural"
"","","","","","animation","285","1999614","0.0-285.0","1920x1080","","3611.300000011921","70.50","img/238/5.5/0.5/bw/001.png","","","natural"
"","","","","","animation","286","2003671","0.0-286.0","1920x1080","","4055","41.14","img/238/3.5/2/bw/001.png","","","natural"
"","","","","","animation","287","2015662","0.0-287.0","1920x1080","","11990","58.07","img/238/4.5/1/bw/001.png","","","natural"
"","","","","","animation","288","2022796","0.0-288.0","1920x1080","","7131.699999988079","39.02","img/314/3.5/0.66667/bw/001.png","","","natural"
"","","","","","animation","289","2027779","0.0-289.0","1920x1080","","4981.199999988079","77.12","img/314/5.5/1/bw/001.png","","","natural"
"","","","","","animation","290","2034269","0.0-290.0","1920x1080","","6487.399999976158","83.86","img/238/5.5/1.5/bw/001.png","","","natural"
"","","","","","animation","291","2042946","0.0-291.0","1920x1080","","8674.5","9.66","img/117/2.5/1/bw/001.png","","","natural"
"","","","","","animation","292","2046545","0.0-292.0","1920x1080","","3598.5","83.33","img/238/4/1/bw/001.png","","","natural"
"","","","","","animation","293","2049718","0.0-293.0","1920x1080","","3171.600000023842","2","img/238/2.5/1/bw/001.png","","","natural"
"","","","","","animation","294","2053583","0.0-294.0","1920x1080","","3862.900000035763","58.99","img/117/4.5/0.66667/bw/001.png","","","natural"
"","","","","","animation","295","2055903","0.0-295.0","1920x1080","","2318.399999976158","68.39","img/238/4/2/bw/001.png","","","natural"
"","","","","","animation","296","2060179","0.0-296.0","1920x1080","","4275.199999988079","18","img/117/2.5/0.66667/bw/001.png","","","natural"
"","","","","","animation","297","2072471","0.0-297.0","1920x1080","","12289.600000023842","50","img/238/3.5/0.5/bw/001.png","","","natural"
"","","","","","animation","298","2079279","0.0-298.0","1920x1080","","6807","100","img/117/5.5/1.5/bw/001.png","","","natural"
"","","","","","animation","299","2086346","0.0-299.0","1920x1080","","7065.800000011921","52","img/117/4/0.66667/bw/001.png","","","natural"
"","","","","","animation","300","2089151","0.0-300.0","1920x1080","","2803.100000023842","81","img/314/4/1.5/bw/001.png","","","natural"
"","","","","","animation","301","2095551","0.0-301.0","1920x1080","","6398.800000011921","57","img/117/4/1/bw/001.png","","","natural"
"","","","","","animation","302","2100328","0.0-302.0","1920x1080","","4777.5","75.26","img/117/4/2/bw/001.png","","","natural"
"","","","","","animation","303","2124133","0.0-303.0","1920x1080","","23803.299999952316","72","img/117/4.5/0.5/bw/001.png","","","natural"
"","","","","","animation","304","2131164","0.0-304.0","1920x1080","","7027.700000047684","43.92","img/238/4/0.5/bw/001.png","","","natural"
"","","","","","animation","305","2137032","0.0-305.0","1920x1080","","5865.699999988079","89","img/117/4.5/2/bw/001.png","","","natural"
"","","","","","animation","306","2142767","0.0-306.0","1920x1080","","5732.399999976158","34.52","img/314/3.5/1/bw/001.png","","","natural"
"","","","","","animation","307","2145981","0.0-307.0","1920x1080","","3212.2999999523163","71","img/314/4/2/bw/001.png","","","natural"
"","","","","","animation","308","2150661","0.0-308.0","1920x1080","","4678.800000011921","84.39","img/238/4.5/0.66667/bw/001.png","","","natural"
"","","","","","animation","309","2153270","0.0-309.0","1920x1080","","2606.300000011921","95","img/117/5.5/0.66667/bw/001.png","","","natural"
"","","","","","animation","310","2162796","0.0-310.0","1920x1080","","9521.899999976158","97","img/314/5.5/2/bw/001.png","","","natural"
"","","","","","animation","311","2166847","0.0-311.0","1920x1080","","4049.399999976158","51.32","img/314/3.5/0.5/bw/001.png","","","natural"
"","","","","","animation","312","2174031","0.0-312.0","1920x1080","","7182.100000023842","37.57","img/238/2.5/0.5/bw/001.png","","","natural"
"","","","","","html-button-response","313","2196751","0.0-313.0","1920x1080","","22719.19999998808","","<div class=""intro"">You are about to view a new series of animations.<br><br></div><div class=""intro"">You will evaluate them based on a different descriptor.<br><br></div><div class=""intro"">Move the slider to indicate how <strong style=""text-transform:capitalize"">INTERESTING</strong> you find each animation.<br><br></div><div class=""intro"">0 = Least Interesting<br></div><div class=""intro"">1 = Most Interesting<br><br></div><div class=""intro"">Remember to use the <strong><em>entire range</em></strong> of the slider to make your ratings.<br></div><div class=""intro"">Please <strong><em>take your time</em></strong> and carefully consider each rating you make.<br><br></div>","0","",""
"","","","","","call-function","314","2196754","0.0-314.0","1920x1080","","","","","","",""
"","","","","","animation","315","2204446","0.0-315.0","1920x1080","","7691","72.35","img/117/4/2/bw/001.png","","","interesting"
"","","","","","animation","316","2207930","0.0-316.0","1920x1080","","3480.900000035763","79","img/117/4.5/2/bw/001.png","","","interesting"
"","","","","","animation","317","2215199","0.0-317.0","1920x1080","","7267.600000023842","63.62","img/314/2.5/1/bw/001.png","","","interesting"
"","","","","","animation","318","2217952","0.0-318.0","1920x1080","","2752","67","img/238/3.5/0.66667/bw/001.png","","","interesting"
"","","","","","animation","319","2221946","0.0-319.0","1920x1080","","3992.099999964237","91.27","img/238/2.5/2/bw/001.png","","","interesting"
"","","","","","animation","320","2225413","0.0-320.0","1920x1080","","3465.099999964237","87","img/117/4.5/1/bw/001.png","","","interesting"
"","","","","","animation","321","2228013","0.0-321.0","1920x1080","","2598.199999988079","84","img/238/3.5/1.5/bw/001.png","","","interesting"
"","","","","","animation","322","2233135","0.0-322.0","1920x1080","","5120.699999988079","9","img/238/5.5/1.5/bw/001.png","","","interesting"
"","","","","","animation","323","2240779","0.0-323.0","1920x1080","","7642.800000011921","70","img/117/2.5/0.5/bw/001.png","","","interesting"
"","","","","","animation","324","2244930","0.0-324.0","1920x1080","","4148.899999976158","92","img/314/3.5/1.5/bw/001.png","","","interesting"
"","","","","","animation","325","2248103","0.0-325.0","1920x1080","","3171.5","94","img/238/2.5/1.5/bw/001.png","","","interesting"
"","","","","","animation","326","2251735","0.0-326.0","1920x1080","","3630.199999988079","88","img/314/3.5/2/bw/001.png","","","interesting"
"","","","","","animation","327","2257151","0.0-327.0","1920x1080","","5413.399999976158","41","img/238/4/1.5/bw/001.png","","","interesting"
"","","","","","animation","328","2263631","0.0-328.0","1920x1080","","6478","65","img/238/2.5/0.5/bw/001.png","","","interesting"
"","","","","","animation","329","2267605","0.0-329.0","1920x1080","","3972.900000035763","60.19","img/314/4.5/0.5/bw/001.png","","","interesting"
"","","","","","animation","330","2274019","0.0-330.0","1920x1080","","6412.399999976158","46.83","img/238/4/1/bw/001.png","","","interesting"
"","","","","","animation","331","2282589","0.0-331.0","1920x1080","","8557.5","36.77","img/314/5.5/1/bw/001.png","","","interesting"
"","","","","","animation","332","2286657","0.0-332.0","1920x1080","","4065.599999964237","78","img/117/3.5/2/bw/001.png","","","interesting"
"","","","","","animation","333","2294064","0.0-333.0","1920x1080","","7405.300000011921","75","img/117/4/0.5/bw/001.png","","","interesting"
"","","","","","animation","334","2305777","0.0-334.0","1920x1080","","11710.5","43.65","img/238/4.5/0.5/bw/001.png","","","interesting"
"","","","","","animation","335","2309441","0.0-335.0","1920x1080","","3661.7999999523163","12.17","img/314/5.5/2/bw/001.png","","","interesting"
"","","","","","animation","336","2314097","0.0-336.0","1920x1080","","4655","91","img/117/2.5/1.5/bw/001.png","","","interesting"
"","","","","","animation","337","2320860","0.0-337.0","1920x1080","","6761.300000011921","19.18","img/314/5.5/1.5/bw/001.png","","","interesting"
"","","","","","animation","338","2327346","0.0-338.0","1920x1080","","6482.100000023842","91.93","img/238/2.5/0.66667/bw/001.png","","","interesting"
"","","","","","animation","339","2338850","0.0-339.0","1920x1080","","11503.100000023842","23.94","img/117/5.5/1.5/bw/001.png","","","interesting"
"","","","","","animation","340","2343084","0.0-340.0","1920x1080","","4236","91.40","img/117/5.5/0.5/bw/001.png","","","interesting"
"","","","","","animation","341","2345594","0.0-341.0","1920x1080","","2508","93","img/117/4/0.66667/bw/001.png","","","interesting"
"","","","","","animation","342","2349524","0.0-342.0","1920x1080","","3928.600000023842","85","img/238/4.5/1/bw/001.png","","","interesting"
"","","","","","animation","343","2375940","0.0-343.0","1920x1080","","26413.799999952316","91.80","img/314/2.5/1.5/bw/001.png","","","interesting"
"","","","","","animation","344","2378917","0.0-344.0","1920x1080","","2974.5","86.51","img/314/4.5/1/bw/001.png","","","interesting"
"","","","","","animation","345","2384876","0.0-345.0","1920x1080","","5957.399999976158","86","img/238/3.5/0.5/bw/001.png","","","interesting"
"","","","","","animation","346","2388818","0.0-346.0","1920x1080","","3939.199999988079","75.66","img/314/4/1/bw/001.png","","","interesting"
"","","","","","animation","347","2402335","0.0-347.0","1920x1080","","13504.800000011921","97","img/117/2.5/2/bw/001.png","","","interesting"
"","","","","","animation","348","2408798","0.0-348.0","1920x1080","","6460.900000035763","90","img/314/3.5/1/bw/001.png","","","interesting"
"","","","","","animation","349","2418752","0.0-349.0","1920x1080","","9952.199999988079","76.19","img/238/3.5/2/bw/001.png","","","interesting"
"","","","","","animation","350","2428063","0.0-350.0","1920x1080","","9308.5","67.99","img/314/4.5/0.66667/bw/001.png","","","interesting"
"","","","","","animation","351","2435764","0.0-351.0","1920x1080","","7697.300000011921","96","img/117/3.5/1.5/bw/001.png","","","interesting"
"","","","","","animation","352","2438887","0.0-352.0","1920x1080","","3121.099999964237","41.93","img/117/4.5/0.66667/bw/001.png","","","interesting"
"","","","","","animation","353","2442795","0.0-353.0","1920x1080","","3906.900000035763","59","img/238/4/0.5/bw/001.png","","","interesting"
"","","","","","animation","354","2446390","0.0-354.0","1920x1080","","3592.5","15.74","img/238/5.5/1/bw/001.png","","","interesting"
"","","","","","animation","355","2448856","0.0-355.0","1920x1080","","2463.800000011921","20.90","img/314/4.5/1.5/bw/001.png","","","interesting"
"","","","","","animation","356","2451862","0.0-356.0","1920x1080","","3004.5","45.77","img/314/3.5/0.66667/bw/001.png","","","interesting"
"","","","","","animation","357","2456270","0.0-357.0","1920x1080","","4405.699999988079","86.24","img/314/2.5/2/bw/001.png","","","interesting"
"","","","","","animation","358","2459792","0.0-358.0","1920x1080","","3525.899999976158","15","img/117/5.5/0.66667/bw/001.png","","","interesting"
"","","","","","animation","359","2468805","0.0-359.0","1920x1080","","9011.100000023842","30","img/117/3.5/1/bw/001.png","","","interesting"
"","","","","","animation","360","2472954","0.0-360.0","1920x1080","","4145.800000011921","6","img/314/5.5/0.5/bw/001.png","","","interesting"
"","","","","","animation","361","2481960","0.0-361.0","1920x1080","","9003.200000047684","95","img/238/5.5/2/bw/001.png","","","interesting"
"","","","","","animation","362","2489563","0.0-362.0","1920x1080","","7602.199999988079","95","img/238/2.5/1/bw/001.png","","","interesting"
"","","","","","animation","363","2493372","0.0-363.0","1920x1080","","3805.099999964237","30.95","img/238/4.5/0.66667/bw/001.png","","","interesting"
"","","","","","animation","364","2496739","0.0-364.0","1920x1080","","3365.7999999523163","48","img/314/4/0.5/bw/001.png","","","interesting"
"","","","","","animation","365","2499255","0.0-365.0","1920x1080","","2512.2999999523163","26.19","img/117/4/1/bw/001.png","","","interesting"
"","","","","","animation","366","2504365","0.0-366.0","1920x1080","","5109","56.61","img/314/4/1.5/bw/001.png","","","interesting"
"","","","","","animation","367","2507939","0.0-367.0","1920x1080","","3572.399999976158","67","img/117/2.5/0.66667/bw/001.png","","","interesting"
"","","","","","animation","368","2514612","0.0-368.0","1920x1080","","6671.5","34","img/238/5.5/0.5/bw/001.png","","","interesting"
"","","","","","animation","369","2526482","0.0-369.0","1920x1080","","11865.699999988079","12","img/117/5.5/2/bw/001.png","","","interesting"
"","","","","","animation","370","2530675","0.0-370.0","1920x1080","","4190.699999988079","91.93","img/117/4/1.5/bw/001.png","","","interesting"
"","","","","","animation","371","2536042","0.0-371.0","1920x1080","","5364.899999976158","71","img/117/3.5/0.5/bw/001.png","","","interesting"
"","","","","","animation","372","2540275","0.0-372.0","1920x1080","","4231.399999976158","94.97","img/238/4/2/bw/001.png","","","interesting"
"","","","","","animation","373","2545658","0.0-373.0","1920x1080","","5381.400000035763","45.90","img/238/4/0.66667/bw/001.png","","","interesting"
"","","","","","animation","374","2548387","0.0-374.0","1920x1080","","2728","56.22","img/314/3.5/0.5/bw/001.png","","","interesting"
"","","","","","animation","375","2552667","0.0-375.0","1920x1080","","4277.600000023842","46","img/238/4.5/2/bw/001.png","","","interesting"
"","","","","","animation","376","2555791","0.0-376.0","1920x1080","","3122.800000011921","77","img/314/4/2/bw/001.png","","","interesting"
"","","","","","animation","377","2558733","0.0-377.0","1920x1080","","2940.599999964237","81","img/117/4.5/1.5/bw/001.png","","","interesting"
"","","","","","animation","378","2571525","0.0-378.0","1920x1080","","12790.300000011921","80.82","img/314/2.5/0.5/bw/001.png","","","interesting"
"","","","","","animation","379","2574875","0.0-379.0","1920x1080","","3346.5","22.75","img/117/5.5/1/bw/001.png","","","interesting"
"","","","","","animation","380","2577711","0.0-380.0","1920x1080","","2834.100000023842","25","img/314/5.5/0.66667/bw/001.png","","","interesting"
"","","","","","animation","381","2585786","0.0-381.0","1920x1080","","8075","24","img/117/3.5/0.66667/bw/001.png","","","interesting"
"","","","","","animation","382","2590025","0.0-382.0","1920x1080","","4237.800000011921","21.69","img/238/4.5/1.5/bw/001.png","","","interesting"
"","","","","","animation","383","2593882","0.0-383.0","1920x1080","","3854.300000011921","5","img/238/5.5/0.66667/bw/001.png","","","interesting"
"","","","","","animation","384","2601659","0.0-384.0","1920x1080","","7775","77","img/314/2.5/0.66667/bw/001.png","","","interesting"
"","","","","","animation","385","2611240","0.0-385.0","1920x1080","","9579.700000047684","91","img/117/4.5/0.5/bw/001.png","","","interesting"
"","","","","","animation","386","2619535","0.0-386.0","1920x1080","","8292.600000023842","78.31","img/314/4/0.66667/bw/001.png","","","interesting"
"","","","","","animation","387","2625866","0.0-387.0","1920x1080","","6328.699999988079","84.79","img/314/4.5/2/bw/001.png","","","interesting"
"","","","","","animation","388","2628093","0.0-388.0","1920x1080","","2224.600000023842","56.22","img/238/3.5/1/bw/001.png","","","interesting"
"","","","","","animation","389","2632482","0.0-389.0","1920x1080","","4388","40.87","img/117/2.5/1/bw/001.png","","","interesting"
"","","","","","html-button-response","390","2672195","0.0-390.0","1920x1080","","39699.80000001192","","<strong>Study Debriefing</strong><br><p class=""debrief""><strong>Background:</strong> The patterns you rated are called <em>fractals</em>. The term fractal describes a class of irregular curves or shapes for which any suitably chosen part is similar in shape to a given larger or smaller part when magnified or reduced to the same size. Fractal properties are found throughout the natural and manmade world. The series of animations you saw today displayed animated fractal patterns of a varying complexity.</p><p class=""debrief""><strong>Purpose of this study:</strong> We hope to better understand how the perception of static fractals differs from the perception of animated fractals, and how the speed of the animated patterns influences people&apos;s perception of them. Fractals allow us to study the perception of aesthetic properties (e.g. the perceived level of beauty in an image) without using recognizable content, which makes them an excellent tool for studying abstract aesthetic judgement.</p><p class=""debrief""><strong>Your part:</strong> Your participation has helped us to further understand how humans perceive these patterns across different levels of speed and complexity. This research with allow us to better understand how the visual system and brain process our ever-changing visual environments.<p class=""debrief""><strong>Feedback and Further information:</strong> If you have additional questions about this study, please feel free to ask the researcher, Nathan Gonzales-Hess at nhess @ uoregon.edu. If you have any questions concerning your rights as a research participant, please contact Research Compliance Services, 5237 University of Oregon, Eugene, OR 97403, 541-346-2510, or email researchCompliance @ uoregon.edu. You can also email the Human Subjects Coordinator for psychology and linguistics research at hscoord @ uoregon.edu. ","0","",""
"","","","","","html-button-response","391","2675157","0.0-391.0","1920x1080","","2957.399999976158","","Thank you for participating in this study. <br>Please click below to finish the experiment and submit your responses.<br><br>","0","",""
"true","","","","","fullscreen","392","2676240","0.0-392.0","1920x1080","12:44 17/10/2022","","","","","",""
