"success","timeout","failed_images","failed_audio","failed_video","trial_type","trial_index","time_elapsed","internal_node_id","resolution","timeStamp","rt","response","stimulus","button_pressed","value","descriptor"
"true","false","[]","[]","[]","preload","0","5965","0.0-0.0","1920x1080","","","","","","",""
"true","false","[]","[]","[]","preload","1","12135","0.0-1.0","1920x1080","","","","","","",""
"true","false","[]","[]","[]","preload","2","18379","0.0-2.0","1920x1080","","","","","","",""
"true","","","","","fullscreen","3","297106","0.0-3.0","1920x1080","9:59 19/10/2022","","","","","",""
"","","","","","survey-html-form","4","302048","0.0-4.0","1920x1080","","4939.399999999907","{""age"":""20"",""gender"":""""}","","","",""
"","","","","","html-button-response","5","370176","0.0-5.0","1920x1080","","68126.8999999999","","<div class=""complex"">You are going to see a series of animations.<br><br></div><div class=""complex"">Move the slider to indicate how <strong style=""text-transform:capitalize"">COMPLEX</strong> you find each animation.<br><br></div><div class=""complex"">0 = Least Complex<br></div><div class=""complex"">1 = Most Complex<br><br></div><div class=""complex"">Remember to use the <strong><em>entire range</em></strong> of the slider to make your ratings.<br></div><div class=""complex"">Please <strong><em>take your time</em></strong> and carefully consider each rating you make.<br><br></div><div class=""complex"">The study has five sections and will take about 45 minutes to complete.<br><br></div>","0","",""
"","","","","","call-function","6","370177","0.0-6.0","1920x1080","","","","","","",""
"","","","","","animation","7","392400","0.0-7.0","1920x1080","","22221","32.94","img/314/4/0.5/bw/001.png","","","complex"
"","","","","","animation","8","401328","0.0-8.0","1920x1080","","8926.5","33.07","img/117/4.5/1.5/bw/001.png","","","complex"
"","","","","","animation","9","408208","0.0-9.0","1920x1080","","6878.899999999907","39.55","img/238/2.5/2/bw/001.png","","","complex"
"","","","","","animation","10","412440","0.0-10.0","1920x1080","","4230.899999999907","23.68","img/314/4.5/0.66667/bw/001.png","","","complex"
"","","","","","animation","11","417304","0.0-11.0","1920x1080","","4863.5","35.05","img/117/3.5/2/bw/001.png","","","complex"
"","","","","","animation","12","425256","0.0-12.0","1920x1080","","7950.700000000186","10.32","img/117/5.5/0.5/bw/001.png","","","complex"
"","","","","","animation","13","429969","0.0-13.0","1920x1080","","4711.399999999907","16","img/238/4.5/1.5/bw/001.png","","","complex"
"","","","","","animation","14","436337","0.0-14.0","1920x1080","","6367.299999999814","5.03","img/238/5.5/1.5/bw/001.png","","","complex"
"","","","","","animation","15","441098","0.0-15.0","1920x1080","","4760.100000000093","28","img/314/3.5/0.66667/bw/001.png","","","complex"
"","","","","","animation","16","449689","0.0-16.0","1920x1080","","8590.399999999907","9","img/238/5.5/0.5/bw/001.png","","","complex"
"","","","","","animation","17","456065","0.0-17.0","1920x1080","","6375.100000000093","16.67","img/314/5.5/1/bw/001.png","","","complex"
"","","","","","animation","18","461889","0.0-18.0","1920x1080","","5823.0999999996275","41.53","img/117/2.5/1/bw/001.png","","","complex"
"","","","","","animation","19","468200","0.0-19.0","1920x1080","","6310.899999999907","36.77","img/117/3.5/1.5/bw/001.png","","","complex"
"","","","","","animation","20","475098","0.0-20.0","1920x1080","","6896.700000000186","39.29","img/314/4/0.66667/bw/001.png","","","complex"
"","","","","","animation","21","478521","0.0-21.0","1920x1080","","3421.1999999997206","57.41","img/238/2.5/0.5/bw/001.png","","","complex"
"","","","","","animation","22","484313","0.0-22.0","1920x1080","","5791.199999999721","35.85","img/314/4/1.5/bw/001.png","","","complex"
"","","","","","animation","23","487625","0.0-23.0","1920x1080","","3311.2000000001863","25.13","img/117/5.5/2/bw/001.png","","","complex"
"","","","","","animation","24","499445","0.0-24.0","1920x1080","","11822.700000000186","24","img/314/4.5/2/bw/001.png","","","complex"
"","","","","","animation","25","502261","0.0-25.0","1920x1080","","2815.100000000093","25","img/117/4.5/1/bw/001.png","","","complex"
"","","","","","animation","26","504917","0.0-26.0","1920x1080","","2655.6999999997206","25","img/238/4.5/1/bw/001.png","","","complex"
"","","","","","animation","27","508669","0.0-27.0","1920x1080","","3751.0999999996275","44.71","img/314/4/2/bw/001.png","","","complex"
"","","","","","animation","28","512717","0.0-28.0","1920x1080","","4047.0999999996275","43.65","img/238/3.5/1.5/bw/001.png","","","complex"
"","","","","","animation","29","515310","0.0-29.0","1920x1080","","2592.5999999996275","59.79","img/314/2.5/2/bw/001.png","","","complex"
"","","","","","animation","30","517694","0.0-30.0","1920x1080","","2383.0999999996275","70","img/238/2.5/1/bw/001.png","","","complex"
"","","","","","animation","31","521845","0.0-31.0","1920x1080","","4149.600000000093","10.45","img/117/5.5/0.66667/bw/001.png","","","complex"
"","","","","","animation","32","525278","0.0-32.0","1920x1080","","3431.899999999907","5.42","img/314/5.5/0.66667/bw/001.png","","","complex"
"","","","","","animation","33","531725","0.0-33.0","1920x1080","","6446.4000000003725","34","img/238/4/0.5/bw/001.png","","","complex"
"","","","","","animation","34","535653","0.0-34.0","1920x1080","","3926.899999999907","40.74","img/238/3.5/0.66667/bw/001.png","","","complex"
"","","","","","animation","35","538437","0.0-35.0","1920x1080","","2783.399999999907","31.35","img/238/4/1.5/bw/001.png","","","complex"
"","","","","","animation","36","541525","0.0-36.0","1920x1080","","3087.1999999997206","31.75","img/238/4/2/bw/001.png","","","complex"
"","","","","","animation","37","545941","0.0-37.0","1920x1080","","4415","39.15","img/314/4.5/1.5/bw/001.png","","","complex"
"","","","","","animation","38","550065","0.0-38.0","1920x1080","","4119.399999999907","43.92","img/238/3.5/1/bw/001.png","","","complex"
"","","","","","animation","39","553993","0.0-39.0","1920x1080","","3926.7999999998137","9.26","img/314/5.5/2/bw/001.png","","","complex"
"","","","","","animation","40","559201","0.0-40.0","1920x1080","","5206.699999999721","42.20","img/117/4.5/0.5/bw/001.png","","","complex"
"","","","","","animation","41","561841","0.0-41.0","1920x1080","","2639.5","43.39","img/238/4.5/0.66667/bw/001.png","","","complex"
"","","","","","animation","42","563969","0.0-42.0","1920x1080","","2127.100000000093","57.01","img/314/3.5/0.5/bw/001.png","","","complex"
"","","","","","animation","43","566115","0.0-43.0","1920x1080","","2145.5999999996275","65.34","img/314/2.5/0.66667/bw/001.png","","","complex"
"","","","","","animation","44","568753","0.0-44.0","1920x1080","","2634.899999999907","58.33","img/238/4/0.66667/bw/001.png","","","complex"
"","","","","","animation","45","572609","0.0-45.0","1920x1080","","3855.399999999907","5.56","img/238/5.5/2/bw/001.png","","","complex"
"","","","","","animation","46","575841","0.0-46.0","1920x1080","","3231.1999999997206","38.23","img/314/4.5/0.5/bw/001.png","","","complex"
"","","","","","animation","47","577921","0.0-47.0","1920x1080","","2078.899999999907","45.77","img/117/4.5/2/bw/001.png","","","complex"
"","","","","","animation","48","581393","0.0-48.0","1920x1080","","3471.2000000001863","50","img/314/3.5/1/bw/001.png","","","complex"
"","","","","","animation","49","586425","0.0-49.0","1920x1080","","5031.199999999721","37","img/314/4.5/1/bw/001.png","","","complex"
"","","","","","animation","50","591841","0.0-50.0","1920x1080","","5415.0999999996275","47.35","img/117/4.5/0.66667/bw/001.png","","","complex"
"","","","","","animation","51","594441","0.0-51.0","1920x1080","","2599.100000000093","66.01","img/117/4/0.5/bw/001.png","","","complex"
"","","","","","animation","52","599115","0.0-52.0","1920x1080","","4673.399999999907","9.13","img/117/5.5/1.5/bw/001.png","","","complex"
"","","","","","animation","53","601682","0.0-53.0","1920x1080","","2565.7999999998137","19.05","img/238/3.5/2/bw/001.png","","","complex"
"","","","","","animation","54","603931","0.0-54.0","1920x1080","","2247.899999999907","31.22","img/314/3.5/1.5/bw/001.png","","","complex"
"","","","","","animation","55","606705","0.0-55.0","1920x1080","","2773.2999999998137","39.15","img/117/4/1.5/bw/001.png","","","complex"
"","","","","","animation","56","609632","0.0-56.0","1920x1080","","2926.899999999907","77.38","img/117/2.5/0.66667/bw/001.png","","","complex"
"","","","","","animation","57","612024","0.0-57.0","1920x1080","","2391.7000000001863","55.16","img/238/4.5/0.5/bw/001.png","","","complex"
"","","","","","animation","58","614656","0.0-58.0","1920x1080","","2631","91","img/117/2.5/0.5/bw/001.png","","","complex"
"","","","","","animation","59","618665","0.0-59.0","1920x1080","","4007.600000000093","74.47","img/238/3.5/0.5/bw/001.png","","","complex"
"","","","","","animation","60","621192","0.0-60.0","1920x1080","","2526.7000000001863","83.86","img/314/2.5/1/bw/001.png","","","complex"
"","","","","","animation","61","623282","0.0-61.0","1920x1080","","2088.600000000093","67.33","img/117/4/1/bw/001.png","","","complex"
"","","","","","animation","62","626192","0.0-62.0","1920x1080","","2909.2999999998137","50.79","img/314/3.5/2/bw/001.png","","","complex"
"","","","","","animation","63","628224","0.0-63.0","1920x1080","","2031.4000000003725","70.50","img/117/3.5/0.5/bw/001.png","","","complex"
"","","","","","animation","64","630681","0.0-64.0","1920x1080","","2456.1999999997206","78.04","img/117/2.5/2/bw/001.png","","","complex"
"","","","","","animation","65","633856","0.0-65.0","1920x1080","","3173.8000000002794","13.36","img/314/5.5/1.5/bw/001.png","","","complex"
"","","","","","animation","66","636488","0.0-66.0","1920x1080","","2630.899999999907","26.98","img/314/5.5/0.5/bw/001.png","","","complex"
"","","","","","animation","67","639232","0.0-67.0","1920x1080","","2742.600000000093","81.22","img/117/2.5/1.5/bw/001.png","","","complex"
"","","","","","animation","68","642400","0.0-68.0","1920x1080","","3166.9000000003725","19.71","img/238/4.5/2/bw/001.png","","","complex"
"","","","","","animation","69","646936","0.0-69.0","1920x1080","","4534.9000000003725","17.33","img/238/5.5/0.66667/bw/001.png","","","complex"
"","","","","","animation","70","650352","0.0-70.0","1920x1080","","3415","22.62","img/238/5.5/1/bw/001.png","","","complex"
"","","","","","animation","71","652704","0.0-71.0","1920x1080","","2351","39.81","img/314/4/1/bw/001.png","","","complex"
"","","","","","animation","72","654624","0.0-72.0","1920x1080","","1919.1000000000931","35.85","img/238/4/1/bw/001.png","","","complex"
"","","","","","animation","73","659248","0.0-73.0","1920x1080","","4623.299999999814","55.69","img/117/3.5/0.66667/bw/001.png","","","complex"
"","","","","","animation","74","662432","0.0-74.0","1920x1080","","3182.7999999998137","22.62","img/117/5.5/1/bw/001.png","","","complex"
"","","","","","animation","75","664698","0.0-75.0","1920x1080","","2265.9000000003725","21.56","img/117/4/0.66667/bw/001.png","","","complex"
"","","","","","animation","76","666416","0.0-76.0","1920x1080","","1716.5","48.41","img/117/3.5/1/bw/001.png","","","complex"
"","","","","","animation","77","669464","0.0-77.0","1920x1080","","3048.899999999907","65.08","img/314/2.5/1.5/bw/001.png","","","complex"
"","","","","","animation","78","671702","0.0-78.0","1920x1080","","2237.7000000001863","85.45","img/314/2.5/0.5/bw/001.png","","","complex"
"","","","","","animation","79","674079","0.0-79.0","1920x1080","","2376","75.66","img/238/2.5/1.5/bw/001.png","","","complex"
"","","","","","animation","80","676447","0.0-80.0","1920x1080","","2366.899999999907","87.30","img/238/2.5/0.66667/bw/001.png","","","complex"
"","","","","","animation","81","680590","0.0-81.0","1920x1080","","4142.399999999907","31","img/117/4/2/bw/001.png","","","complex"
"","","","","","html-button-response","82","699647","0.0-82.0","1920x1080","","19055.5","","<div class=""intro"">You are about to view a new series of animations.<br><br></div><div class=""intro"">You will evaluate them based on a different descriptor.<br><br></div><div class=""intro"">Move the slider to indicate how <strong style=""text-transform:capitalize"">INTERESTING</strong> you find each animation.<br><br></div><div class=""intro"">0 = Least Interesting<br></div><div class=""intro"">1 = Most Interesting<br><br></div><div class=""intro"">Remember to use the <strong><em>entire range</em></strong> of the slider to make your ratings.<br></div><div class=""intro"">Please <strong><em>take your time</em></strong> and carefully consider each rating you make.<br><br></div>","0","",""
"","","","","","call-function","83","699648","0.0-83.0","1920x1080","","","","","","",""
"","","","","","animation","84","707496","0.0-84.0","1920x1080","","7847.799999999814","35.58","img/314/4.5/0.5/bw/001.png","","","interesting"
"","","","","","animation","85","710934","0.0-85.0","1920x1080","","3436.8000000002794","70.11","img/117/2.5/0.5/bw/001.png","","","interesting"
"","","","","","animation","86","713318","0.0-86.0","1920x1080","","2383.600000000093","80.82","img/238/2.5/0.66667/bw/001.png","","","interesting"
"","","","","","animation","87","717559","0.0-87.0","1920x1080","","4239.200000000186","89.95","img/314/4/1/bw/001.png","","","interesting"
"","","","","","animation","88","720247","0.0-88.0","1920x1080","","2687.3000000002794","86.24","img/117/3.5/2/bw/001.png","","","interesting"
"","","","","","animation","89","722718","0.0-89.0","1920x1080","","2469.899999999907","86.64","img/117/3.5/1.5/bw/001.png","","","interesting"
"","","","","","animation","90","725574","0.0-90.0","1920x1080","","2855.2999999998137","88.10","img/238/3.5/1.5/bw/001.png","","","interesting"
"","","","","","animation","91","729558","0.0-91.0","1920x1080","","3983.2000000001863","73.81","img/238/4.5/0.66667/bw/001.png","","","interesting"
"","","","","","animation","92","732990","0.0-92.0","1920x1080","","3430.600000000093","56.08","img/238/4/2/bw/001.png","","","interesting"
"","","","","","animation","93","738318","0.0-93.0","1920x1080","","5327.0999999996275","68.12","img/314/3.5/2/bw/001.png","","","interesting"
"","","","","","animation","94","743145","0.0-94.0","1920x1080","","4826.300000000279","19.44","img/117/5.5/1.5/bw/001.png","","","interesting"
"","","","","","animation","95","745181","0.0-95.0","1920x1080","","2035.3999999999069","16","img/314/5.5/2/bw/001.png","","","interesting"
"","","","","","animation","96","747374","0.0-96.0","1920x1080","","2191.2999999998137","42.46","img/238/4/1/bw/001.png","","","interesting"
"","","","","","animation","97","751830","0.0-97.0","1920x1080","","4455.300000000279","44.18","img/238/2.5/2/bw/001.png","","","interesting"
"","","","","","animation","98","753965","0.0-98.0","1920x1080","","2134.600000000093","15.48","img/238/5.5/2/bw/001.png","","","interesting"
"","","","","","animation","99","755774","0.0-99.0","1920x1080","","1807.6999999997206","26.85","img/117/5.5/0.66667/bw/001.png","","","interesting"
"","","","","","animation","100","757717","0.0-100.0","1920x1080","","1942.6000000000931","49","img/314/3.5/1.5/bw/001.png","","","interesting"
"","","","","","animation","101","759934","0.0-101.0","1920x1080","","2215.1999999997206","31.48","img/238/5.5/1.5/bw/001.png","","","interesting"
"","","","","","animation","102","761645","0.0-102.0","1920x1080","","1710.8999999999069","50","img/314/4/1.5/bw/001.png","","","interesting"
"","","","","","animation","103","764361","0.0-103.0","1920x1080","","2714.7000000001863","48.94","img/117/2.5/2/bw/001.png","","","interesting"
"","","","","","animation","104","767318","0.0-104.0","1920x1080","","2955.9000000003725","94.05","img/238/4.5/0.5/bw/001.png","","","interesting"
"","","","","","animation","105","769765","0.0-105.0","1920x1080","","2446.6999999997206","52.91","img/238/3.5/2/bw/001.png","","","interesting"
"","","","","","animation","106","772679","0.0-106.0","1920x1080","","2913.100000000093","44","img/238/2.5/1.5/bw/001.png","","","interesting"
"","","","","","animation","107","775328","0.0-107.0","1920x1080","","2648.100000000093","75.26","img/238/4.5/2/bw/001.png","","","interesting"
"","","","","","animation","108","777502","0.0-108.0","1920x1080","","2172.3000000002794","77","img/314/4/0.5/bw/001.png","","","interesting"
"","","","","","animation","109","780029","0.0-109.0","1920x1080","","2526.6999999997206","23.15","img/238/5.5/1/bw/001.png","","","interesting"
"","","","","","animation","110","782781","0.0-110.0","1920x1080","","2751.0999999996275","79.50","img/117/3.5/0.66667/bw/001.png","","","interesting"
"","","","","","animation","111","787118","0.0-111.0","1920x1080","","4335.600000000093","81.48","img/314/5.5/1/bw/001.png","","","interesting"
"","","","","","animation","112","789435","0.0-112.0","1920x1080","","2319","42.59","img/238/2.5/0.5/bw/001.png","","","interesting"
"","","","","","animation","113","792947","0.0-113.0","1920x1080","","3511.3000000002794","78.97","img/238/4/0.5/bw/001.png","","","interesting"
"","","","","","animation","114","795003","0.0-114.0","1920x1080","","2055.2000000001863","56.22","img/238/2.5/1/bw/001.png","","","interesting"
"","","","","","animation","115","797510","0.0-115.0","1920x1080","","2506.600000000093","23.68","img/238/5.5/0.66667/bw/001.png","","","interesting"
"","","","","","animation","116","800179","0.0-116.0","1920x1080","","2666.9000000003725","79.37","img/117/3.5/0.5/bw/001.png","","","interesting"
"","","","","","animation","117","802643","0.0-117.0","1920x1080","","2463.1999999997206","87.17","img/117/4/0.5/bw/001.png","","","interesting"
"","","","","","animation","118","804261","0.0-118.0","1920x1080","","1618","55.16","img/314/2.5/1/bw/001.png","","","interesting"
"","","","","","animation","119","806515","0.0-119.0","1920x1080","","2252.9000000003725","20.63","img/314/5.5/1.5/bw/001.png","","","interesting"
"","","","","","animation","120","808126","0.0-120.0","1920x1080","","1609.5","59.13","img/314/3.5/1/bw/001.png","","","interesting"
"","","","","","animation","121","811867","0.0-121.0","1920x1080","","3740.7999999998137","16.67","img/238/4.5/1.5/bw/001.png","","","interesting"
"","","","","","animation","122","814387","0.0-122.0","1920x1080","","2519.1999999997206","5.03","img/117/5.5/0.5/bw/001.png","","","interesting"
"","","","","","animation","123","818603","0.0-123.0","1920x1080","","4214.700000000186","50.40","img/117/2.5/0.66667/bw/001.png","","","interesting"
"","","","","","animation","124","820451","0.0-124.0","1920x1080","","1847.2000000001863","79.50","img/314/4.5/0.66667/bw/001.png","","","interesting"
"","","","","","animation","125","822709","0.0-125.0","1920x1080","","2257.0999999996275","44.71","img/314/2.5/1.5/bw/001.png","","","interesting"
"","","","","","animation","126","824979","0.0-126.0","1920x1080","","2268.6999999997206","12.17","img/314/5.5/0.5/bw/001.png","","","interesting"
"","","","","","animation","127","828667","0.0-127.0","1920x1080","","3687.600000000093","76.98","img/117/4.5/0.66667/bw/001.png","","","interesting"
"","","","","","animation","128","831203","0.0-128.0","1920x1080","","2535.100000000093","39.42","img/117/2.5/1.5/bw/001.png","","","interesting"
"","","","","","animation","129","836283","0.0-129.0","1920x1080","","5078.800000000279","69.18","img/314/3.5/0.66667/bw/001.png","","","interesting"
"","","","","","animation","130","839527","0.0-130.0","1920x1080","","3242.6999999997206","86.90","img/117/4.5/0.5/bw/001.png","","","interesting"
"","","","","","animation","131","841747","0.0-131.0","1920x1080","","2218.8000000002794","88.76","img/314/4/0.66667/bw/001.png","","","interesting"
"","","","","","animation","132","843747","0.0-132.0","1920x1080","","1998.4000000003725","63.89","img/117/4/2/bw/001.png","","","interesting"
"","","","","","animation","133","847547","0.0-133.0","1920x1080","","3799.0999999996275","97","img/117/4/1/bw/001.png","","","interesting"
"","","","","","animation","134","851038","0.0-134.0","1920x1080","","3487.3000000002794","71.96","img/238/3.5/1/bw/001.png","","","interesting"
"","","","","","animation","135","854978","0.0-135.0","1920x1080","","3939.7000000001863","56.08","img/117/4/1.5/bw/001.png","","","interesting"
"","","","","","animation","136","857270","0.0-136.0","1920x1080","","2290.399999999907","39.81","img/314/2.5/2/bw/001.png","","","interesting"
"","","","","","animation","137","859438","0.0-137.0","1920x1080","","2167","12.43","img/238/5.5/0.5/bw/001.png","","","interesting"
"","","","","","animation","138","862318","0.0-138.0","1920x1080","","2879","76.46","img/117/4/0.66667/bw/001.png","","","interesting"
"","","","","","animation","139","866502","0.0-139.0","1920x1080","","4183.100000000093","75.00","img/117/4.5/2/bw/001.png","","","interesting"
"","","","","","animation","140","869765","0.0-140.0","1920x1080","","3261","8.86","img/314/4.5/1/bw/001.png","","","interesting"
"","","","","","animation","141","874630","0.0-141.0","1920x1080","","4863.799999999814","73.68","img/117/4.5/1/bw/001.png","","","interesting"
"","","","","","animation","142","878279","0.0-142.0","1920x1080","","3647.7000000001863","88","img/314/4/2/bw/001.png","","","interesting"
"","","","","","animation","143","880838","0.0-143.0","1920x1080","","2558.3000000002794","10.45","img/314/5.5/0.66667/bw/001.png","","","interesting"
"","","","","","animation","144","888302","0.0-144.0","1920x1080","","7462.799999999814","51.85","img/238/3.5/0.5/bw/001.png","","","interesting"
"","","","","","animation","145","890622","0.0-145.0","1920x1080","","2319.399999999907","49.87","img/314/2.5/0.5/bw/001.png","","","interesting"
"","","","","","animation","146","892480","0.0-146.0","1920x1080","","1857.1999999997206","54.23","img/238/4.5/1/bw/001.png","","","interesting"
"","","","","","animation","147","894063","0.0-147.0","1920x1080","","1581.7000000001863","53.70","img/238/4/0.66667/bw/001.png","","","interesting"
"","","","","","animation","148","896206","0.0-148.0","1920x1080","","2141.899999999907","15.48","img/117/5.5/1/bw/001.png","","","interesting"
"","","","","","animation","149","898270","0.0-149.0","1920x1080","","2062.600000000093","45.50","img/238/3.5/0.66667/bw/001.png","","","interesting"
"","","","","","animation","150","900662","0.0-150.0","1920x1080","","2389.5","46.30","img/117/2.5/1/bw/001.png","","","interesting"
"","","","","","animation","151","904197","0.0-151.0","1920x1080","","3534.399999999907","21.03","img/117/4.5/1.5/bw/001.png","","","interesting"
"","","","","","animation","152","906397","0.0-152.0","1920x1080","","2198.8000000002794","46.69","img/314/3.5/0.5/bw/001.png","","","interesting"
"","","","","","animation","153","909211","0.0-153.0","1920x1080","","2815","47.75","img/117/3.5/1/bw/001.png","","","interesting"
"","","","","","animation","154","911376","0.0-154.0","1920x1080","","2164.100000000093","50.79","img/314/4.5/2/bw/001.png","","","interesting"
"","","","","","animation","155","913203","0.0-155.0","1920x1080","","1826.6000000000931","48","img/314/2.5/0.66667/bw/001.png","","","interesting"
"","","","","","animation","156","915276","0.0-156.0","1920x1080","","2071.7999999998137","54.10","img/314/4.5/1.5/bw/001.png","","","interesting"
"","","","","","animation","157","917395","0.0-157.0","1920x1080","","2117.7000000001863","70.24","img/238/4/1.5/bw/001.png","","","interesting"
"","","","","","animation","158","920127","0.0-158.0","1920x1080","","2730.7999999998137","13.49","img/117/5.5/2/bw/001.png","","","interesting"
"","","","","","html-button-response","159","939743","0.0-159.0","1920x1080","","19614.19999999972","","<div class=""intro"">You are about to view a new series of animations.<br><br></div><div class=""intro"">You will evaluate them based on a different descriptor.<br><br></div><div class=""intro"">Move the slider to indicate how <strong style=""text-transform:capitalize"">NATURAL</strong> you find each animation.<br><br></div><div class=""intro"">0 = Least Natural<br></div><div class=""intro"">1 = Most Natural<br><br></div><div class=""intro"">Remember to use the <strong><em>entire range</em></strong> of the slider to make your ratings.<br></div><div class=""intro"">Please <strong><em>take your time</em></strong> and carefully consider each rating you make.<br><br></div>","0","",""
"","","","","","call-function","160","939743","0.0-160.0","1920x1080","","","","","","",""
"","","","","","animation","161","949483","0.0-161.0","1920x1080","","9739.299999999814","66.27","img/314/4.5/2/bw/001.png","","","natural"
"","","","","","animation","162","954395","0.0-162.0","1920x1080","","4910.800000000279","92","img/117/5.5/1/bw/001.png","","","natural"
"","","","","","animation","163","956760","0.0-163.0","1920x1080","","2364.5","88.62","img/238/5.5/1/bw/001.png","","","natural"
"","","","","","animation","164","958976","0.0-164.0","1920x1080","","2214.600000000093","59.52","img/314/4.5/1/bw/001.png","","","natural"
"","","","","","animation","165","962179","0.0-165.0","1920x1080","","3201.5","90.87","img/314/5.5/2/bw/001.png","","","natural"
"","","","","","animation","166","964777","0.0-166.0","1920x1080","","2596.7000000001863","50.26","img/117/4.5/0.66667/bw/001.png","","","natural"
"","","","","","animation","167","967577","0.0-167.0","1920x1080","","2799.2999999998137","35.45","img/117/4.5/0.5/bw/001.png","","","natural"
"","","","","","animation","168","970022","0.0-168.0","1920x1080","","2441.1999999997206","38.36","img/238/4.5/2/bw/001.png","","","natural"
"","","","","","animation","169","973038","0.0-169.0","1920x1080","","3014.899999999907","91.14","img/238/5.5/0.5/bw/001.png","","","natural"
"","","","","","animation","170","977222","0.0-170.0","1920x1080","","4183","90.34","img/117/5.5/0.66667/bw/001.png","","","natural"
"","","","","","animation","171","979270","0.0-171.0","1920x1080","","2046.5999999996275","35.71","img/238/4/0.66667/bw/001.png","","","natural"
"","","","","","animation","172","981534","0.0-172.0","1920x1080","","2263","5.29","img/314/2.5/0.66667/bw/001.png","","","natural"
"","","","","","animation","173","984113","0.0-173.0","1920x1080","","2577.7999999998137","22.88","img/238/4/2/bw/001.png","","","natural"
"","","","","","animation","174","986950","0.0-174.0","1920x1080","","2835.899999999907","23.94","img/314/4/1/bw/001.png","","","natural"
"","","","","","animation","175","989181","0.0-175.0","1920x1080","","2230.7999999998137","84.13","img/117/5.5/0.5/bw/001.png","","","natural"
"","","","","","animation","176","991702","0.0-176.0","1920x1080","","2517.6999999997206","26.98","img/314/4.5/0.66667/bw/001.png","","","natural"
"","","","","","animation","177","994470","0.0-177.0","1920x1080","","2767","98","img/238/5.5/2/bw/001.png","","","natural"
"","","","","","animation","178","996870","0.0-178.0","1920x1080","","2398.399999999907","30.95","img/117/4/1/bw/001.png","","","natural"
"","","","","","animation","179","999181","0.0-179.0","1920x1080","","2309.899999999907","65.34","img/117/5.5/1.5/bw/001.png","","","natural"
"","","","","","animation","180","1001934","0.0-180.0","1920x1080","","2751.5","11.38","img/314/3.5/1.5/bw/001.png","","","natural"
"","","","","","animation","181","1004285","0.0-181.0","1920x1080","","2350.5999999996275","3","img/314/4/0.5/bw/001.png","","","natural"
"","","","","","animation","182","1006113","0.0-182.0","1920x1080","","1826.5","9.26","img/238/3.5/1/bw/001.png","","","natural"
"","","","","","animation","183","1008534","0.0-183.0","1920x1080","","2419.9000000003725","18.65","img/117/2.5/2/bw/001.png","","","natural"
"","","","","","animation","184","1012254","0.0-184.0","1920x1080","","3719.0999999996275","24.60","img/238/4.5/0.5/bw/001.png","","","natural"
"","","","","","animation","185","1014197","0.0-185.0","1920x1080","","1942.5","39.68","img/117/4.5/1/bw/001.png","","","natural"
"","","","","","animation","186","1016095","0.0-186.0","1920x1080","","1897.2000000001863","14.02","img/238/4/0.5/bw/001.png","","","natural"
"","","","","","animation","187","1018838","0.0-187.0","1920x1080","","2741.5","2.51","img/314/2.5/0.5/bw/001.png","","","natural"
"","","","","","animation","188","1023102","0.0-188.0","1920x1080","","4262.799999999814","58.47","img/314/3.5/2/bw/001.png","","","natural"
"","","","","","animation","189","1026350","0.0-189.0","1920x1080","","3246.899999999907","46.83","img/238/2.5/2/bw/001.png","","","natural"
"","","","","","animation","190","1030392","0.0-190.0","1920x1080","","4044.2999999998137","1.59","img/238/2.5/0.5/bw/001.png","","","natural"
"","","","","","animation","191","1032730","0.0-191.0","1920x1080","","2337.100000000093","17.33","img/314/4/0.66667/bw/001.png","","","natural"
"","","","","","animation","192","1035808","0.0-192.0","1920x1080","","3077","60.45","img/314/2.5/2/bw/001.png","","","natural"
"","","","","","animation","193","1037642","0.0-193.0","1920x1080","","1833","27.78","img/117/3.5/0.66667/bw/001.png","","","natural"
"","","","","","animation","194","1039975","0.0-194.0","1920x1080","","2332.600000000093","97","img/314/5.5/0.66667/bw/001.png","","","natural"
"","","","","","animation","195","1042018","0.0-195.0","1920x1080","","2041.6999999997206","23.68","img/238/4.5/1.5/bw/001.png","","","natural"
"","","","","","animation","196","1044759","0.0-196.0","1920x1080","","2739.5","28.97","img/238/3.5/1.5/bw/001.png","","","natural"
"","","","","","animation","197","1049175","0.0-197.0","1920x1080","","4415.5","52","img/117/2.5/1.5/bw/001.png","","","natural"
"","","","","","animation","198","1051509","0.0-198.0","1920x1080","","2333.100000000093","48.94","img/117/4.5/1.5/bw/001.png","","","natural"
"","","","","","animation","199","1054434","0.0-199.0","1920x1080","","2923.9000000003725","48.68","img/314/4.5/1.5/bw/001.png","","","natural"
"","","","","","animation","200","1056609","0.0-200.0","1920x1080","","2174.5","36.90","img/117/4/0.66667/bw/001.png","","","natural"
"","","","","","animation","201","1060442","0.0-201.0","1920x1080","","3831.100000000093","95","img/314/5.5/1/bw/001.png","","","natural"
"","","","","","animation","202","1063266","0.0-202.0","1920x1080","","2822.9000000003725","41.14","img/117/4/2/bw/001.png","","","natural"
"","","","","","animation","203","1065634","0.0-203.0","1920x1080","","2367","48.02","img/117/3.5/1/bw/001.png","","","natural"
"","","","","","animation","204","1067914","0.0-204.0","1920x1080","","2278.7000000001863","46.56","img/238/3.5/0.66667/bw/001.png","","","natural"
"","","","","","animation","205","1069930","0.0-205.0","1920x1080","","2015","45.11","img/117/4/1.5/bw/001.png","","","natural"
"","","","","","animation","206","1072250","0.0-206.0","1920x1080","","2319.100000000093","48.54","img/238/4/1/bw/001.png","","","natural"
"","","","","","animation","207","1076482","0.0-207.0","1920x1080","","4230.700000000186","18.65","img/117/2.5/1/bw/001.png","","","natural"
"","","","","","animation","208","1079834","0.0-208.0","1920x1080","","3351.100000000093","80.82","img/238/4.5/0.66667/bw/001.png","","","natural"
"","","","","","animation","209","1081930","0.0-209.0","1920x1080","","2095","27.65","img/314/3.5/0.5/bw/001.png","","","natural"
"","","","","","animation","210","1085777","0.0-210.0","1920x1080","","3846.600000000093","26.98","img/238/3.5/2/bw/001.png","","","natural"
"","","","","","animation","211","1088209","0.0-211.0","1920x1080","","2430.899999999907","25","img/238/2.5/1/bw/001.png","","","natural"
"","","","","","animation","212","1090825","0.0-212.0","1920x1080","","2614.899999999907","60.71","img/238/4/1.5/bw/001.png","","","natural"
"","","","","","animation","213","1092808","0.0-213.0","1920x1080","","1982.2999999998137","23.15","img/314/2.5/1/bw/001.png","","","natural"
"","","","","","animation","214","1096065","0.0-214.0","1920x1080","","3256.399999999907","13.23","img/117/3.5/0.5/bw/001.png","","","natural"
"","","","","","animation","215","1098008","0.0-215.0","1920x1080","","1941.2000000001863","15.34","img/117/2.5/0.66667/bw/001.png","","","natural"
"","","","","","animation","216","1101091","0.0-216.0","1920x1080","","3082.600000000093","15.08","img/238/4.5/1/bw/001.png","","","natural"
"","","","","","animation","217","1103409","0.0-217.0","1920x1080","","2316.399999999907","90.61","img/314/5.5/1.5/bw/001.png","","","natural"
"","","","","","animation","218","1105313","0.0-218.0","1920x1080","","1903.2000000001863","22","img/238/2.5/0.66667/bw/001.png","","","natural"
"","","","","","animation","219","1110081","0.0-219.0","1920x1080","","4767","52.91","img/238/2.5/1.5/bw/001.png","","","natural"
"","","","","","animation","220","1115974","0.0-220.0","1920x1080","","5891.899999999907","43.25","img/314/5.5/0.5/bw/001.png","","","natural"
"","","","","","animation","221","1118761","0.0-221.0","1920x1080","","2785.3000000002794","33.47","img/314/3.5/1/bw/001.png","","","natural"
"","","","","","animation","222","1120713","0.0-222.0","1920x1080","","1951.5","28.57","img/117/3.5/1.5/bw/001.png","","","natural"
"","","","","","animation","223","1123425","0.0-223.0","1920x1080","","2710.5","60.58","img/117/3.5/2/bw/001.png","","","natural"
"","","","","","animation","224","1125713","0.0-224.0","1920x1080","","2287.100000000093","51.85","img/117/4.5/2/bw/001.png","","","natural"
"","","","","","animation","225","1127513","0.0-225.0","1920x1080","","1799","52.12","img/314/4/1.5/bw/001.png","","","natural"
"","","","","","animation","226","1129433","0.0-226.0","1920x1080","","1919","37.96","img/314/3.5/0.66667/bw/001.png","","","natural"
"","","","","","animation","227","1132345","0.0-227.0","1920x1080","","2910.899999999907","100","img/238/5.5/1.5/bw/001.png","","","natural"
"","","","","","animation","228","1138577","0.0-228.0","1920x1080","","6230.5","35.45","img/117/4/0.5/bw/001.png","","","natural"
"","","","","","animation","229","1141377","0.0-229.0","1920x1080","","2798.600000000093","17.86","img/117/2.5/0.5/bw/001.png","","","natural"
"","","","","","animation","230","1145265","0.0-230.0","1920x1080","","3887.2000000001863","48.15","img/314/4.5/0.5/bw/001.png","","","natural"
"","","","","","animation","231","1147209","0.0-231.0","1920x1080","","1942.7000000001863","44.18","img/238/3.5/0.5/bw/001.png","","","natural"
"","","","","","animation","232","1150315","0.0-232.0","1920x1080","","3103.2999999998137","52.78","img/314/4/2/bw/001.png","","","natural"
"","","","","","animation","233","1152883","0.0-233.0","1920x1080","","2567","87.17","img/238/5.5/0.66667/bw/001.png","","","natural"
"","","","","","animation","234","1155410","0.0-234.0","1920x1080","","2526.399999999907","83.07","img/117/5.5/2/bw/001.png","","","natural"
"","","","","","animation","235","1157826","0.0-235.0","1920x1080","","2414.7000000001863","57.80","img/314/2.5/1.5/bw/001.png","","","natural"
"","","","","","html-button-response","236","1181124","0.0-236.0","1920x1080","","23296.299999999814","","<div class=""intro"">You are about to view a new series of animations.<br><br></div><div class=""intro"">You will evaluate them based on a different descriptor.<br><br></div><div class=""intro"">Move the slider to indicate how <strong style=""text-transform:capitalize"">APPEALING</strong> you find each animation.<br><br></div><div class=""intro"">0 = Least Appealing<br></div><div class=""intro"">1 = Most Appealing<br><br></div><div class=""intro"">Remember to use the <strong><em>entire range</em></strong> of the slider to make your ratings.<br></div><div class=""intro"">Please <strong><em>take your time</em></strong> and carefully consider each rating you make.<br><br></div>","0","",""
"","","","","","call-function","237","1181128","0.0-237.0","1920x1080","","","","","","",""
"","","","","","animation","238","1190235","0.0-238.0","1920x1080","","9105.5","24.21","img/238/4/1/bw/001.png","","","appealing"
"","","","","","animation","239","1192593","0.0-239.0","1920x1080","","2356.5999999996275","22","img/238/3.5/0.5/bw/001.png","","","appealing"
"","","","","","animation","240","1195178","0.0-240.0","1920x1080","","2584.600000000093","32.67","img/117/4/0.66667/bw/001.png","","","appealing"
"","","","","","animation","241","1198051","0.0-241.0","1920x1080","","2871.2999999998137","78.84","img/238/5.5/0.5/bw/001.png","","","appealing"
"","","","","","animation","242","1201699","0.0-242.0","1920x1080","","3646.7999999998137","0","img/314/2.5/0.5/bw/001.png","","","appealing"
"","","","","","animation","243","1204331","0.0-243.0","1920x1080","","2630.7999999998137","12.43","img/238/3.5/1/bw/001.png","","","appealing"
"","","","","","animation","244","1206259","0.0-244.0","1920x1080","","1927.3999999999069","16.01","img/117/4/1/bw/001.png","","","appealing"
"","","","","","animation","245","1208651","0.0-245.0","1920x1080","","2390.1999999997206","96","img/314/5.5/2/bw/001.png","","","appealing"
"","","","","","animation","246","1211160","0.0-246.0","1920x1080","","2510.399999999907","78.57","img/314/4/0.5/bw/001.png","","","appealing"
"","","","","","animation","247","1213664","0.0-247.0","1920x1080","","2503.399999999907","77.65","img/117/4.5/1/bw/001.png","","","appealing"
"","","","","","animation","248","1217741","0.0-248.0","1920x1080","","4075.399999999907","48.02","img/117/3.5/0.66667/bw/001.png","","","appealing"
"","","","","","animation","249","1220448","0.0-249.0","1920x1080","","2706.7999999998137","87.70","img/314/5.5/1/bw/001.png","","","appealing"
"","","","","","animation","250","1222880","0.0-250.0","1920x1080","","2430.5999999996275","72.88","img/117/4/1.5/bw/001.png","","","appealing"
"","","","","","animation","251","1225280","0.0-251.0","1920x1080","","2399","34.26","img/314/3.5/2/bw/001.png","","","appealing"
"","","","","","animation","252","1227507","0.0-252.0","1920x1080","","2225.8000000002794","29.63","img/117/4/0.5/bw/001.png","","","appealing"
"","","","","","animation","253","1230057","0.0-253.0","1920x1080","","2548.9000000003725","0.93","img/238/2.5/2/bw/001.png","","","appealing"
"","","","","","animation","254","1233757","0.0-254.0","1920x1080","","3698.399999999907","3.04","img/314/2.5/1/bw/001.png","","","appealing"
"","","","","","animation","255","1235776","0.0-255.0","1920x1080","","2017.8999999999069","0","img/314/2.5/1.5/bw/001.png","","","appealing"
"","","","","","animation","256","1238849","0.0-256.0","1920x1080","","3071.1999999997206","75.00","img/314/4/1.5/bw/001.png","","","appealing"
"","","","","","animation","257","1240857","0.0-257.0","1920x1080","","2007.2999999998137","85.19","img/238/4.5/1/bw/001.png","","","appealing"
"","","","","","animation","258","1243592","0.0-258.0","1920x1080","","2733.6999999997206","90.34","img/117/4/2/bw/001.png","","","appealing"
"","","","","","animation","259","1246090","0.0-259.0","1920x1080","","2497.0999999996275","78.84","img/238/4/1.5/bw/001.png","","","appealing"
"","","","","","animation","260","1248690","0.0-260.0","1920x1080","","2598.7999999998137","13.49","img/238/3.5/0.66667/bw/001.png","","","appealing"
"","","","","","animation","261","1253528","0.0-261.0","1920x1080","","4836.699999999721","87.83","img/238/4.5/2/bw/001.png","","","appealing"
"","","","","","animation","262","1256240","0.0-262.0","1920x1080","","2710.2000000001863","80.95","img/314/4/2/bw/001.png","","","appealing"
"","","","","","animation","263","1258840","0.0-263.0","1920x1080","","2599","3.57","img/117/2.5/0.66667/bw/001.png","","","appealing"
"","","","","","animation","264","1263440","0.0-264.0","1920x1080","","4599","18.78","img/238/4/0.5/bw/001.png","","","appealing"
"","","","","","animation","265","1265757","0.0-265.0","1920x1080","","2315.2999999998137","93.25","img/314/5.5/1.5/bw/001.png","","","appealing"
"","","","","","animation","266","1267992","0.0-266.0","1920x1080","","2233.7999999998137","90.21","img/117/5.5/1.5/bw/001.png","","","appealing"
"","","","","","animation","267","1270638","0.0-267.0","1920x1080","","2646.6999999997206","91.93","img/238/4.5/0.5/bw/001.png","","","appealing"
"","","","","","animation","268","1273055","0.0-268.0","1920x1080","","2415.7999999998137","82.67","img/314/4.5/0.66667/bw/001.png","","","appealing"
"","","","","","animation","269","1275105","0.0-269.0","1920x1080","","2049.100000000093","6.08","img/314/3.5/0.5/bw/001.png","","","appealing"
"","","","","","animation","270","1277338","0.0-270.0","1920x1080","","2231.7000000001863","0","img/238/2.5/1/bw/001.png","","","appealing"
"","","","","","animation","271","1280072","0.0-271.0","1920x1080","","2732.100000000093","5.29","img/238/2.5/0.5/bw/001.png","","","appealing"
"","","","","","animation","272","1283406","0.0-272.0","1920x1080","","3333.0999999996275","1.19","img/117/2.5/2/bw/001.png","","","appealing"
"","","","","","animation","273","1285358","0.0-273.0","1920x1080","","1950.6999999997206","94","img/314/5.5/0.5/bw/001.png","","","appealing"
"","","","","","animation","274","1287606","0.0-274.0","1920x1080","","2246.7000000001863","94.97","img/238/5.5/0.66667/bw/001.png","","","appealing"
"","","","","","animation","275","1290038","0.0-275.0","1920x1080","","2431.2000000001863","17.59","img/314/3.5/0.66667/bw/001.png","","","appealing"
"","","","","","animation","276","1292772","0.0-276.0","1920x1080","","2732.399999999907","90.74","img/238/5.5/2/bw/001.png","","","appealing"
"","","","","","animation","277","1297756","0.0-277.0","1920x1080","","4982.299999999814","58","img/117/4.5/2/bw/001.png","","","appealing"
"","","","","","animation","278","1300039","0.0-278.0","1920x1080","","2282","87.17","img/238/5.5/1.5/bw/001.png","","","appealing"
"","","","","","animation","279","1302790","0.0-279.0","1920x1080","","2750","14.15","img/117/3.5/0.5/bw/001.png","","","appealing"
"","","","","","animation","280","1305505","0.0-280.0","1920x1080","","2713.800000000745","33.86","img/314/4/1/bw/001.png","","","appealing"
"","","","","","animation","281","1308072","0.0-281.0","1920x1080","","2565.300000000745","54.37","img/238/4.5/1.5/bw/001.png","","","appealing"
"","","","","","animation","282","1310462","0.0-282.0","1920x1080","","2389.7000000001863","0.13","img/238/2.5/0.66667/bw/001.png","","","appealing"
"","","","","","animation","283","1314038","0.0-283.0","1920x1080","","3574.600000000559","14.81","img/117/3.5/1/bw/001.png","","","appealing"
"","","","","","animation","284","1317089","0.0-284.0","1920x1080","","3048.9000000003725","44.58","img/117/4.5/0.5/bw/001.png","","","appealing"
"","","","","","animation","285","1319555","0.0-285.0","1920x1080","","2465.5","1.32","img/117/2.5/1/bw/001.png","","","appealing"
"","","","","","animation","286","1322805","0.0-286.0","1920x1080","","3248.5999999996275","47.22","img/238/3.5/2/bw/001.png","","","appealing"
"","","","","","animation","287","1325055","0.0-287.0","1920x1080","","2248.9000000003725","2.91","img/314/2.5/0.66667/bw/001.png","","","appealing"
"","","","","","animation","288","1327822","0.0-288.0","1920x1080","","2765.5","50.53","img/238/4/2/bw/001.png","","","appealing"
"","","","","","animation","289","1330556","0.0-289.0","1920x1080","","2732.2000000001863","99","img/117/5.5/0.66667/bw/001.png","","","appealing"
"","","","","","animation","290","1333139","0.0-290.0","1920x1080","","2580.199999999255","19.97","img/117/3.5/1.5/bw/001.png","","","appealing"
"","","","","","animation","291","1335391","0.0-291.0","1920x1080","","2250.100000000559","30.82","img/238/4/0.66667/bw/001.png","","","appealing"
"","","","","","animation","292","1337755","0.0-292.0","1920x1080","","2363.7999999998137","99","img/117/5.5/2/bw/001.png","","","appealing"
"","","","","","animation","293","1340006","0.0-293.0","1920x1080","","2249","93.39","img/238/5.5/1/bw/001.png","","","appealing"
"","","","","","animation","294","1341975","0.0-294.0","1920x1080","","1967.6000000005588","60.19","img/314/4.5/1.5/bw/001.png","","","appealing"
"","","","","","animation","295","1345589","0.0-295.0","1920x1080","","3613.2000000001863","0.40","img/117/2.5/0.5/bw/001.png","","","appealing"
"","","","","","animation","296","1347673","0.0-296.0","1920x1080","","2082.5999999996275","24.87","img/314/4/0.66667/bw/001.png","","","appealing"
"","","","","","animation","297","1350152","0.0-297.0","1920x1080","","2478.100000000559","1.72","img/238/2.5/1.5/bw/001.png","","","appealing"
"","","","","","animation","298","1352391","0.0-298.0","1920x1080","","2236.7000000001863","34.66","img/117/3.5/2/bw/001.png","","","appealing"
"","","","","","animation","299","1354206","0.0-299.0","1920x1080","","1814.6000000005588","31.22","img/314/3.5/1/bw/001.png","","","appealing"
"","","","","","animation","300","1356159","0.0-300.0","1920x1080","","1951.2000000001863","31.75","img/314/3.5/1.5/bw/001.png","","","appealing"
"","","","","","animation","301","1358956","0.0-301.0","1920x1080","","2796.399999999441","89.02","img/117/5.5/1/bw/001.png","","","appealing"
"","","","","","animation","302","1361706","0.0-302.0","1920x1080","","2748.7000000001863","0","img/314/2.5/2/bw/001.png","","","appealing"
"","","","","","animation","303","1364127","0.0-303.0","1920x1080","","2419.5999999996275","99","img/117/5.5/0.5/bw/001.png","","","appealing"
"","","","","","animation","304","1366640","0.0-304.0","1920x1080","","2511.2999999998137","1","img/117/2.5/1.5/bw/001.png","","","appealing"
"","","","","","animation","305","1369256","0.0-305.0","1920x1080","","2615.2000000001863","29.37","img/314/4.5/2/bw/001.png","","","appealing"
"","","","","","animation","306","1371207","0.0-306.0","1920x1080","","1949.199999999255","26.32","img/117/4.5/0.66667/bw/001.png","","","appealing"
"","","","","","animation","307","1373873","0.0-307.0","1920x1080","","2665","97","img/314/5.5/0.66667/bw/001.png","","","appealing"
"","","","","","animation","308","1377849","0.0-308.0","1920x1080","","3974.5999999996275","88.62","img/314/4.5/0.5/bw/001.png","","","appealing"
"","","","","","animation","309","1380111","0.0-309.0","1920x1080","","2259.9000000003725","85.98","img/314/4.5/1/bw/001.png","","","appealing"
"","","","","","animation","310","1386678","0.0-310.0","1920x1080","","6565.0999999996275","43","img/238/3.5/1.5/bw/001.png","","","appealing"
"","","","","","animation","311","1390183","0.0-311.0","1920x1080","","3497.5","47.49","img/117/4.5/1.5/bw/001.png","","","appealing"
"","","","","","animation","312","1392045","0.0-312.0","1920x1080","","1860.3999999994412","41.53","img/238/4.5/0.66667/bw/001.png","","","appealing"
"","","","","","html-button-response","313","1417845","0.0-313.0","1920x1080","","25798.400000000373","","<div class=""intro"">You are about to view a new series of animations.<br><br></div><div class=""intro"">You will evaluate them based on a different descriptor.<br><br></div><div class=""intro"">Move the slider to indicate how <strong style=""text-transform:capitalize"">RELAXING</strong> you find each animation.<br><br></div><div class=""intro"">0 = Least Relaxing<br></div><div class=""intro"">1 = Most Relaxing<br><br></div><div class=""intro"">Remember to use the <strong><em>entire range</em></strong> of the slider to make your ratings.<br></div><div class=""intro"">Please <strong><em>take your time</em></strong> and carefully consider each rating you make.<br><br></div>","0","",""
"","","","","","call-function","314","1417849","0.0-314.0","1920x1080","","","","","","",""
"","","","","","animation","315","1420901","0.0-315.0","1920x1080","","3051.9000000003725","31.48","img/238/4.5/1/bw/001.png","","","relaxing"
"","","","","","animation","316","1423797","0.0-316.0","1920x1080","","2894.0999999996275","5.56","img/314/4.5/0.5/bw/001.png","","","relaxing"
"","","","","","animation","317","1425765","0.0-317.0","1920x1080","","1966.7000000001863","2.91","img/238/4/1.5/bw/001.png","","","relaxing"
"","","","","","animation","318","1427579","0.0-318.0","1920x1080","","1812.699999999255","13.49","img/314/3.5/2/bw/001.png","","","relaxing"
"","","","","","animation","319","1429895","0.0-319.0","1920x1080","","2315.2000000001863","0.40","img/314/4/0.5/bw/001.png","","","relaxing"
"","","","","","animation","320","1431756","0.0-320.0","1920x1080","","1860.1000000005588","3.84","img/314/3.5/1.5/bw/001.png","","","relaxing"
"","","","","","animation","321","1433885","0.0-321.0","1920x1080","","2126.7999999998137","1.98","img/238/3.5/0.66667/bw/001.png","","","relaxing"
"","","","","","animation","322","1436413","0.0-322.0","1920x1080","","2526.4000000003725","42.20","img/314/4.5/2/bw/001.png","","","relaxing"
"","","","","","animation","323","1438662","0.0-323.0","1920x1080","","2247.7999999998137","49.47","img/314/4.5/1.5/bw/001.png","","","relaxing"
"","","","","","animation","324","1440562","0.0-324.0","1920x1080","","1899.199999999255","91.40","img/314/5.5/2/bw/001.png","","","relaxing"
"","","","","","animation","325","1442451","0.0-325.0","1920x1080","","1887.7999999998137","6.61","img/238/4/0.66667/bw/001.png","","","relaxing"
"","","","","","animation","326","1445520","0.0-326.0","1920x1080","","3067.600000000559","0","img/117/2.5/0.66667/bw/001.png","","","relaxing"
"","","","","","animation","327","1447616","0.0-327.0","1920x1080","","2094.4000000003725","6.61","img/117/4/1/bw/001.png","","","relaxing"
"","","","","","animation","328","1450224","0.0-328.0","1920x1080","","2615.600000000559","36.90","img/117/4.5/1/bw/001.png","","","relaxing"
"","","","","","animation","329","1452307","0.0-329.0","1920x1080","","2082.2999999998137","95","img/238/5.5/0.66667/bw/001.png","","","relaxing"
"","","","","","animation","330","1454153","0.0-330.0","1920x1080","","1843.7000000001863","26.59","img/117/4.5/2/bw/001.png","","","relaxing"
"","","","","","animation","331","1456339","0.0-331.0","1920x1080","","2185.5","1.32","img/314/2.5/2/bw/001.png","","","relaxing"
"","","","","","animation","332","1459153","0.0-332.0","1920x1080","","2812.7000000001863","31.88","img/238/4/2/bw/001.png","","","relaxing"
"","","","","","animation","333","1461091","0.0-333.0","1920x1080","","1936.9000000003725","0","img/238/2.5/0.66667/bw/001.png","","","relaxing"
"","","","","","animation","334","1463636","0.0-334.0","1920x1080","","2543.0999999996275","52.25","img/314/4.5/1/bw/001.png","","","relaxing"
"","","","","","animation","335","1466043","0.0-335.0","1920x1080","","2405.9000000003725","95","img/314/5.5/1/bw/001.png","","","relaxing"
"","","","","","animation","336","1468203","0.0-336.0","1920x1080","","2159.2000000001863","21.43","img/117/3.5/1/bw/001.png","","","relaxing"
"","","","","","animation","337","1470436","0.0-337.0","1920x1080","","2231.9000000003725","32.54","img/117/4/1.5/bw/001.png","","","relaxing"
"","","","","","animation","338","1472716","0.0-338.0","1920x1080","","2278","20.90","img/238/3.5/1.5/bw/001.png","","","relaxing"
"","","","","","animation","339","1475483","0.0-339.0","1920x1080","","2765.7000000001863","0","img/314/2.5/1/bw/001.png","","","relaxing"
"","","","","","animation","340","1477512","0.0-340.0","1920x1080","","2026.8999999994412","4.50","img/117/3.5/0.66667/bw/001.png","","","relaxing"
"","","","","","animation","341","1479253","0.0-341.0","1920x1080","","1739","18.39","img/238/3.5/2/bw/001.png","","","relaxing"
"","","","","","animation","342","1481053","0.0-342.0","1920x1080","","1798.6000000005588","93.39","img/117/5.5/2/bw/001.png","","","relaxing"
"","","","","","animation","343","1482836","0.0-343.0","1920x1080","","1782","20.63","img/314/3.5/0.5/bw/001.png","","","relaxing"
"","","","","","animation","344","1484964","0.0-344.0","1920x1080","","2127.2000000001863","2.25","img/238/2.5/0.5/bw/001.png","","","relaxing"
"","","","","","animation","345","1486853","0.0-345.0","1920x1080","","1887.2999999998137","0","img/238/2.5/2/bw/001.png","","","relaxing"
"","","","","","animation","346","1489443","0.0-346.0","1920x1080","","2588.5999999996275","17.59","img/117/3.5/2/bw/001.png","","","relaxing"
"","","","","","animation","347","1492636","0.0-347.0","1920x1080","","3192.5","0","img/314/2.5/0.5/bw/001.png","","","relaxing"
"","","","","","animation","348","1494852","0.0-348.0","1920x1080","","2214.7000000001863","99","img/117/5.5/0.66667/bw/001.png","","","relaxing"
"","","","","","animation","349","1497319","0.0-349.0","1920x1080","","2465.7000000001863","94.05","img/238/5.5/1.5/bw/001.png","","","relaxing"
"","","","","","animation","350","1500787","0.0-350.0","1920x1080","","3466.300000000745","12.57","img/238/4/0.5/bw/001.png","","","relaxing"
"","","","","","animation","351","1503452","0.0-351.0","1920x1080","","2663.399999999441","95","img/117/5.5/1.5/bw/001.png","","","relaxing"
"","","","","","animation","352","1505153","0.0-352.0","1920x1080","","1699.2999999998137","88.62","img/314/5.5/0.5/bw/001.png","","","relaxing"
"","","","","","animation","353","1507486","0.0-353.0","1920x1080","","2332.2999999998137","19.84","img/314/4/0.66667/bw/001.png","","","relaxing"
"","","","","","animation","354","1510384","0.0-354.0","1920x1080","","2889","21.96","img/238/4.5/0.66667/bw/001.png","","","relaxing"
"","","","","","animation","355","1512888","0.0-355.0","1920x1080","","2502.0999999996275","21.30","img/117/4/0.66667/bw/001.png","","","relaxing"
"","","","","","animation","356","1514484","0.0-356.0","1920x1080","","1594.800000000745","20.63","img/117/4/0.5/bw/001.png","","","relaxing"
"","","","","","animation","357","1516531","0.0-357.0","1920x1080","","2045.800000000745","17.46","img/314/4.5/0.66667/bw/001.png","","","relaxing"
"","","","","","animation","358","1519362","0.0-358.0","1920x1080","","2829.5999999996275","99","img/238/5.5/2/bw/001.png","","","relaxing"
"","","","","","animation","359","1522163","0.0-359.0","1920x1080","","2799.800000000745","47.22","img/238/4.5/1.5/bw/001.png","","","relaxing"
"","","","","","animation","360","1524094","0.0-360.0","1920x1080","","1929.5999999996275","22.35","img/117/3.5/0.5/bw/001.png","","","relaxing"
"","","","","","animation","361","1525895","0.0-361.0","1920x1080","","1800.2000000001863","21.96","img/238/3.5/1/bw/001.png","","","relaxing"
"","","","","","animation","362","1528488","0.0-362.0","1920x1080","","2591","1.59","img/314/2.5/1.5/bw/001.png","","","relaxing"
"","","","","","animation","363","1530789","0.0-363.0","1920x1080","","2299.4000000003725","3.44","img/117/4.5/0.5/bw/001.png","","","relaxing"
"","","","","","animation","364","1532865","0.0-364.0","1920x1080","","2075.2000000001863","94.97","img/117/5.5/0.5/bw/001.png","","","relaxing"
"","","","","","animation","365","1535046","0.0-365.0","1920x1080","","2180","18.92","img/238/3.5/0.5/bw/001.png","","","relaxing"
"","","","","","animation","366","1537762","0.0-366.0","1920x1080","","2707","26.85","img/314/3.5/1/bw/001.png","","","relaxing"
"","","","","","animation","367","1539937","0.0-367.0","1920x1080","","2173.699999999255","30.16","img/314/4/2/bw/001.png","","","relaxing"
"","","","","","animation","368","1542078","0.0-368.0","1920x1080","","2139.7000000001863","0","img/238/2.5/1/bw/001.png","","","relaxing"
"","","","","","animation","369","1545347","0.0-369.0","1920x1080","","3268.2000000001863","99","img/238/5.5/0.5/bw/001.png","","","relaxing"
"","","","","","animation","370","1548227","0.0-370.0","1920x1080","","2878.2999999998137","4.63","img/117/4.5/1.5/bw/001.png","","","relaxing"
"","","","","","animation","371","1550547","0.0-371.0","1920x1080","","2317.600000000559","0","img/117/2.5/2/bw/001.png","","","relaxing"
"","","","","","animation","372","1554927","0.0-372.0","1920x1080","","4378.9000000003725","13.49","img/238/4/1/bw/001.png","","","relaxing"
"","","","","","animation","373","1557194","0.0-373.0","1920x1080","","2264.2000000001863","15.08","img/314/4/1/bw/001.png","","","relaxing"
"","","","","","animation","374","1560595","0.0-374.0","1920x1080","","3399.600000000559","20","img/238/4.5/0.5/bw/001.png","","","relaxing"
"","","","","","animation","375","1563094","0.0-375.0","1920x1080","","2497.5","90.87","img/238/5.5/1/bw/001.png","","","relaxing"
"","","","","","animation","376","1565979","0.0-376.0","1920x1080","","2883.2999999998137","17.33","img/117/3.5/1.5/bw/001.png","","","relaxing"
"","","","","","animation","377","1568188","0.0-377.0","1920x1080","","2207.5","14","img/314/4/1.5/bw/001.png","","","relaxing"
"","","","","","animation","378","1571555","0.0-378.0","1920x1080","","3378.5999999996275","14","img/238/4.5/2/bw/001.png","","","relaxing"
"","","","","","animation","379","1573965","0.0-379.0","1920x1080","","2408.2000000001863","1.19","img/314/3.5/0.66667/bw/001.png","","","relaxing"
"","","","","","animation","380","1576660","0.0-380.0","1920x1080","","2693.600000000559","1.59","img/117/2.5/1.5/bw/001.png","","","relaxing"
"","","","","","animation","381","1579792","0.0-381.0","1920x1080","","3130","0.13","img/117/2.5/0.5/bw/001.png","","","relaxing"
"","","","","","animation","382","1582941","0.0-382.0","1920x1080","","3147.5","50.00","img/117/4/2/bw/001.png","","","relaxing"
"","","","","","animation","383","1585211","0.0-383.0","1920x1080","","2268.2000000001863","0","img/117/2.5/1/bw/001.png","","","relaxing"
"","","","","","animation","384","1587581","0.0-384.0","1920x1080","","2369.300000000745","1","img/238/2.5/1.5/bw/001.png","","","relaxing"
"","","","","","animation","385","1590469","0.0-385.0","1920x1080","","2884.7999999998137","97","img/117/5.5/1/bw/001.png","","","relaxing"
"","","","","","animation","386","1592498","0.0-386.0","1920x1080","","2027.5999999996275","2.78","img/314/2.5/0.66667/bw/001.png","","","relaxing"
"","","","","","animation","387","1595166","0.0-387.0","1920x1080","","2667.0999999996275","41.67","img/117/4.5/0.66667/bw/001.png","","","relaxing"
"","","","","","animation","388","1598598","0.0-388.0","1920x1080","","3430.0999999996275","93.25","img/314/5.5/0.66667/bw/001.png","","","relaxing"
"","","","","","animation","389","1600918","0.0-389.0","1920x1080","","2318.600000000559","91.14","img/314/5.5/1.5/bw/001.png","","","relaxing"
"","","","","","html-button-response","390","1631131","0.0-390.0","1920x1080","","30199.5","","<strong>Study Debriefing</strong><br><p class=""debrief""><strong>Background:</strong> The patterns you rated are called <em>fractals</em>. The term fractal describes a class of irregular curves or shapes for which any suitably chosen part is similar in shape to a given larger or smaller part when magnified or reduced to the same size. Fractal properties are found throughout the natural and manmade world. The series of animations you saw today displayed animated fractal patterns of a varying complexity.</p><p class=""debrief""><strong>Purpose of this study:</strong> We hope to better understand how the perception of static fractals differs from the perception of animated fractals, and how the speed of the animated patterns influences people&apos;s perception of them. Fractals allow us to study the perception of aesthetic properties (e.g. the perceived level of beauty in an image) without using recognizable content, which makes them an excellent tool for studying abstract aesthetic judgement.</p><p class=""debrief""><strong>Your part:</strong> Your participation has helped us to further understand how humans perceive these patterns across different levels of speed and complexity. This research with allow us to better understand how the visual system and brain process our ever-changing visual environments.<p class=""debrief""><strong>Feedback and Further information:</strong> If you have additional questions about this study, please feel free to ask the researcher, Nathan Gonzales-Hess at nhess @ uoregon.edu. If you have any questions concerning your rights as a research participant, please contact Research Compliance Services, 5237 University of Oregon, Eugene, OR 97403, 541-346-2510, or email researchCompliance @ uoregon.edu. You can also email the Human Subjects Coordinator for psychology and linguistics research at hscoord @ uoregon.edu. ","0","",""
"","","","","","html-button-response","391","1633511","0.0-391.0","1920x1080","","2376.800000000745","","Thank you for participating in this study. <br>Please click below to finish the experiment and submit your responses.<br><br>","0","",""
"true","","","","","fullscreen","392","1634534","0.0-392.0","1920x1080","10:26 19/10/2022","","","","","",""
