"success","timeout","failed_images","failed_audio","failed_video","trial_type","trial_index","time_elapsed","internal_node_id","resolution","timeStamp","rt","response","stimulus","button_pressed","value","descriptor"
"true","false","[]","[]","[]","preload","0","21061","0.0-0.0","1920x1080","","","","","","",""
"true","false","[]","[]","[]","preload","1","42405","0.0-1.0","1920x1080","","","","","","",""
"true","false","[]","[]","[]","preload","2","64016","0.0-2.0","1920x1080","","","","","","",""
"true","","","","","fullscreen","3","68528","0.0-3.0","1920x1080","11:51 18/10/2022","","","","","",""
"","","","","","survey-html-form","4","75174","0.0-4.0","1920x1080","","6643.1999999999825","{""age"":""18"",""gender"":""female""}","","","",""
"","","","","","html-button-response","5","124006","0.0-5.0","1920x1080","","48830.80000000002","","<div class=""complex"">You are going to see a series of animations.<br><br></div><div class=""complex"">Move the slider to indicate how <strong style=""text-transform:capitalize"">COMPLEX</strong> you find each animation.<br><br></div><div class=""complex"">0 = Least Complex<br></div><div class=""complex"">1 = Most Complex<br><br></div><div class=""complex"">Remember to use the <strong><em>entire range</em></strong> of the slider to make your ratings.<br></div><div class=""complex"">Please <strong><em>take your time</em></strong> and carefully consider each rating you make.<br><br></div><div class=""complex"">The study has five sections and will take about 45 minutes to complete.<br><br></div>","0","",""
"","","","","","call-function","6","124007","0.0-6.0","1920x1080","","","","","","",""
"","","","","","animation","7","139878","0.0-7.0","1920x1080","","15868.5","49.60","img/238/2.5/1/bw/001.png","","","complex"
"","","","","","animation","8","154302","0.0-8.0","1920x1080","","14422.700000000012","15","img/238/5.5/0.66667/bw/001.png","","","complex"
"","","","","","animation","9","162150","0.0-9.0","1920x1080","","7847.099999999977","25.13","img/314/4/1/bw/001.png","","","complex"
"","","","","","animation","10","169093","0.0-10.0","1920x1080","","6942.799999999988","64.55","img/314/2.5/0.5/bw/001.png","","","complex"
"","","","","","animation","11","172317","0.0-11.0","1920x1080","","3223","24.60","img/117/4.5/1.5/bw/001.png","","","complex"
"","","","","","animation","12","179422","0.0-12.0","1920x1080","","7103.900000000023","30.42","img/314/3.5/2/bw/001.png","","","complex"
"","","","","","animation","13","186829","0.0-13.0","1920x1080","","7406.5","45.24","img/238/2.5/2/bw/001.png","","","complex"
"","","","","","animation","14","192477","0.0-14.0","1920x1080","","5646.600000000035","35.32","img/314/4.5/0.66667/bw/001.png","","","complex"
"","","","","","animation","15","199413","0.0-15.0","1920x1080","","6935.700000000012","5.82","img/238/5.5/0.5/bw/001.png","","","complex"
"","","","","","animation","16","204045","0.0-16.0","1920x1080","","4631","9.66","img/314/5.5/0.5/bw/001.png","","","complex"
"","","","","","animation","17","208845","0.0-17.0","1920x1080","","4799.199999999953","39.68","img/238/3.5/2/bw/001.png","","","complex"
"","","","","","animation","18","213181","0.0-18.0","1920x1080","","4335.400000000023","50.00","img/314/3.5/0.66667/bw/001.png","","","complex"
"","","","","","animation","19","221645","0.0-19.0","1920x1080","","8462.899999999965","59.52","img/117/2.5/2/bw/001.png","","","complex"
"","","","","","animation","20","225557","0.0-20.0","1920x1080","","3910.9000000000233","40","img/314/4.5/1.5/bw/001.png","","","complex"
"","","","","","animation","21","230085","0.0-21.0","1920x1080","","4527.700000000012","64.95","img/238/3.5/0.5/bw/001.png","","","complex"
"","","","","","animation","22","234305","0.0-22.0","1920x1080","","4231.300000000047","64.68","img/314/4/0.66667/bw/001.png","","","complex"
"","","","","","animation","23","246097","0.0-23.0","1920x1080","","11790.5","0","img/238/5.5/2/bw/001.png","","","complex"
"","","","","","animation","24","250089","0.0-24.0","1920x1080","","3991.2999999999884","52.91","img/238/4/0.66667/bw/001.png","","","complex"
"","","","","","animation","25","255233","0.0-25.0","1920x1080","","5143.099999999977","4.50","img/117/5.5/1.5/bw/001.png","","","complex"
"","","","","","animation","26","259193","0.0-26.0","1920x1080","","3959","47.35","img/117/3.5/1.5/bw/001.png","","","complex"
"","","","","","animation","27","262073","0.0-27.0","1920x1080","","2879.7000000000116","53.84","img/314/4/0.5/bw/001.png","","","complex"
"","","","","","animation","28","264377","0.0-28.0","1920x1080","","2302.7999999999884","54.50","img/117/4.5/0.5/bw/001.png","","","complex"
"","","","","","animation","29","267121","0.0-29.0","1920x1080","","2743.9000000000233","57","img/238/3.5/1/bw/001.png","","","complex"
"","","","","","animation","30","271537","0.0-30.0","1920x1080","","4415.200000000012","9.79","img/314/5.5/1/bw/001.png","","","complex"
"","","","","","animation","31","278345","0.0-31.0","1920x1080","","6806.800000000047","36.38","img/117/4.5/0.66667/bw/001.png","","","complex"
"","","","","","animation","32","283969","0.0-32.0","1920x1080","","5623.5","76.19","img/238/2.5/1.5/bw/001.png","","","complex"
"","","","","","animation","33","287233","0.0-33.0","1920x1080","","3262.9000000000233","4.63","img/238/5.5/1/bw/001.png","","","complex"
"","","","","","animation","34","291689","0.0-34.0","1920x1080","","4455.400000000023","86.90","img/314/2.5/0.66667/bw/001.png","","","complex"
"","","","","","animation","35","295204","0.0-35.0","1920x1080","","3536","86.51","img/117/2.5/0.5/bw/001.png","","","complex"
"","","","","","animation","36","299547","0.0-36.0","1920x1080","","4342.400000000023","12.30","img/117/5.5/0.5/bw/001.png","","","complex"
"","","","","","animation","37","302891","0.0-37.0","1920x1080","","3343","15.34","img/314/5.5/1.5/bw/001.png","","","complex"
"","","","","","animation","38","306411","0.0-38.0","1920x1080","","3519.0999999999767","49.74","img/117/3.5/2/bw/001.png","","","complex"
"","","","","","animation","39","308747","0.0-39.0","1920x1080","","2335.4000000000233","40.08","img/314/4.5/2/bw/001.png","","","complex"
"","","","","","animation","40","314299","0.0-40.0","1920x1080","","5551.199999999953","48.41","img/238/4/0.5/bw/001.png","","","complex"
"","","","","","animation","41","317021","0.0-41.0","1920x1080","","2720.2000000000116","45.77","img/117/4.5/1/bw/001.png","","","complex"
"","","","","","animation","42","319507","0.0-42.0","1920x1080","","2485.2000000000116","38.36","img/117/5.5/2/bw/001.png","","","complex"
"","","","","","animation","43","322170","0.0-43.0","1920x1080","","2662.9000000000233","58.20","img/314/3.5/1.5/bw/001.png","","","complex"
"","","","","","animation","44","324986","0.0-44.0","1920x1080","","2815.5","63.76","img/117/3.5/1/bw/001.png","","","complex"
"","","","","","animation","45","329794","0.0-45.0","1920x1080","","4807.299999999988","53.84","img/238/4/1.5/bw/001.png","","","complex"
"","","","","","animation","46","332403","0.0-46.0","1920x1080","","2608.4000000000233","81.61","img/314/2.5/1/bw/001.png","","","complex"
"","","","","","animation","47","337954","0.0-47.0","1920x1080","","5550.200000000012","6.35","img/238/5.5/1.5/bw/001.png","","","complex"
"","","","","","animation","48","341834","0.0-48.0","1920x1080","","3878.9000000000233","32.14","img/238/4.5/2/bw/001.png","","","complex"
"","","","","","animation","49","345394","0.0-49.0","1920x1080","","3559.100000000035","26.32","img/238/4.5/0.66667/bw/001.png","","","complex"
"","","","","","animation","50","348931","0.0-50.0","1920x1080","","3535.9000000000233","26.85","img/117/4.5/2/bw/001.png","","","complex"
"","","","","","animation","51","351522","0.0-51.0","1920x1080","","2590.4000000000233","35.32","img/238/4/2/bw/001.png","","","complex"
"","","","","","animation","52","353513","0.0-52.0","1920x1080","","2015.899999999965","28.84","img/117/5.5/0.66667/bw/001.png","","","complex"
"","","","","","animation","53","355896","0.0-53.0","1920x1080","","2382.5999999999767","20.37","img/314/5.5/0.66667/bw/001.png","","","complex"
"","","","","","animation","54","358472","0.0-54.0","1920x1080","","2575.5","72.62","img/117/3.5/0.5/bw/001.png","","","complex"
"","","","","","animation","55","360640","0.0-55.0","1920x1080","","2167","76.59","img/117/4/1.5/bw/001.png","","","complex"
"","","","","","animation","56","362320","0.0-56.0","1920x1080","","1679.1999999999534","76.72","img/314/4.5/1/bw/001.png","","","complex"
"","","","","","animation","57","364504","0.0-57.0","1920x1080","","2183","85.32","img/314/2.5/2/bw/001.png","","","complex"
"","","","","","animation","58","367579","0.0-58.0","1920x1080","","3073.29999999993","1.98","img/314/5.5/2/bw/001.png","","","complex"
"","","","","","animation","59","369784","0.0-59.0","1920x1080","","2204.5","30.82","img/314/4/2/bw/001.png","","","complex"
"","","","","","animation","60","371928","0.0-60.0","1920x1080","","2142.79999999993","15.08","img/117/5.5/1/bw/001.png","","","complex"
"","","","","","animation","61","373761","0.0-61.0","1920x1080","","1832.6999999999534","81.48","img/314/2.5/1.5/bw/001.png","","","complex"
"","","","","","animation","62","377000","0.0-62.0","1920x1080","","3237.4000000000233","37.83","img/238/4/1/bw/001.png","","","complex"
"","","","","","animation","63","380168","0.0-63.0","1920x1080","","3166.8000000000466","48.41","img/238/4.5/0.5/bw/001.png","","","complex"
"","","","","","animation","64","383713","0.0-64.0","1920x1080","","3544","88.10","img/238/2.5/0.66667/bw/001.png","","","complex"
"","","","","","animation","65","385872","0.0-65.0","1920x1080","","2158.5999999999767","92.06","img/117/2.5/0.66667/bw/001.png","","","complex"
"","","","","","animation","66","389472","0.0-66.0","1920x1080","","3599","61.90","img/314/3.5/1/bw/001.png","","","complex"
"","","","","","animation","67","391720","0.0-67.0","1920x1080","","2246.70000000007","15.48","img/238/4.5/1.5/bw/001.png","","","complex"
"","","","","","animation","68","393864","0.0-68.0","1920x1080","","2142.5999999999767","19.05","img/238/4.5/1/bw/001.png","","","complex"
"","","","","","animation","69","396056","0.0-69.0","1920x1080","","2191.4000000000233","59.92","img/238/3.5/0.66667/bw/001.png","","","complex"
"","","","","","animation","70","398584","0.0-70.0","1920x1080","","2527","42.72","img/117/4/2/bw/001.png","","","complex"
"","","","","","animation","71","400952","0.0-71.0","1920x1080","","2367.0999999999767","48.68","img/117/4/0.66667/bw/001.png","","","complex"
"","","","","","animation","72","403795","0.0-72.0","1920x1080","","2841.9000000000233","40.48","img/238/3.5/1.5/bw/001.png","","","complex"
"","","","","","animation","73","406379","0.0-73.0","1920x1080","","2582.6999999999534","68.65","img/117/4/0.5/bw/001.png","","","complex"
"","","","","","animation","74","408472","0.0-74.0","1920x1080","","2092.8000000000466","67.46","img/117/4/1/bw/001.png","","","complex"
"","","","","","animation","75","411995","0.0-75.0","1920x1080","","3521.899999999907","50.66","img/314/4.5/0.5/bw/001.png","","","complex"
"","","","","","animation","76","415559","0.0-76.0","1920x1080","","3587.6999999999534","52.25","img/314/4/1.5/bw/001.png","","","complex"
"","","","","","animation","77","418144","0.0-77.0","1920x1080","","2583.29999999993","82.67","img/238/2.5/0.5/bw/001.png","","","complex"
"","","","","","animation","78","420880","0.0-78.0","1920x1080","","2735.1999999999534","86.51","img/314/3.5/0.5/bw/001.png","","","complex"
"","","","","","animation","79","423354","0.0-79.0","1920x1080","","2473.70000000007","97","img/117/2.5/1/bw/001.png","","","complex"
"","","","","","animation","80","425264","0.0-80.0","1920x1080","","1908.5","85.71","img/117/3.5/0.66667/bw/001.png","","","complex"
"","","","","","animation","81","427607","0.0-81.0","1920x1080","","2340.0999999999767","94.18","img/117/2.5/1.5/bw/001.png","","","complex"
"","","","","","html-button-response","82","450770","0.0-82.0","1920x1080","","23161.600000000093","","<div class=""intro"">You are about to view a new series of animations.<br><br></div><div class=""intro"">You will evaluate them based on a different descriptor.<br><br></div><div class=""intro"">Move the slider to indicate how <strong style=""text-transform:capitalize"">NATURAL</strong> you find each animation.<br><br></div><div class=""intro"">0 = Least Natural<br></div><div class=""intro"">1 = Most Natural<br><br></div><div class=""intro"">Remember to use the <strong><em>entire range</em></strong> of the slider to make your ratings.<br></div><div class=""intro"">Please <strong><em>take your time</em></strong> and carefully consider each rating you make.<br><br></div>","0","",""
"","","","","","call-function","83","450772","0.0-83.0","1920x1080","","","","","","",""
"","","","","","animation","84","458359","0.0-84.0","1920x1080","","7586.900000000023","5.82","img/117/3.5/1/bw/001.png","","","natural"
"","","","","","animation","85","464687","0.0-85.0","1920x1080","","6326.100000000093","22.75","img/238/4.5/0.5/bw/001.png","","","natural"
"","","","","","animation","86","470416","0.0-86.0","1920x1080","","5726.5","3.57","img/238/2.5/1/bw/001.png","","","natural"
"","","","","","animation","87","475623","0.0-87.0","1920x1080","","5230.699999999953","16.27","img/117/4.5/0.66667/bw/001.png","","","natural"
"","","","","","animation","88","481896","0.0-88.0","1920x1080","","6272","97","img/238/5.5/2/bw/001.png","","","natural"
"","","","","","animation","89","484503","0.0-89.0","1920x1080","","2605.5999999999767","1.72","img/314/2.5/1/bw/001.png","","","natural"
"","","","","","animation","90","488463","0.0-90.0","1920x1080","","3959.4000000000233","36.11","img/314/4/1.5/bw/001.png","","","natural"
"","","","","","animation","91","490895","0.0-91.0","1920x1080","","2430.9000000000233","2.51","img/238/2.5/0.66667/bw/001.png","","","natural"
"","","","","","animation","92","493167","0.0-92.0","1920x1080","","2270.6999999999534","19.71","img/117/4/0.66667/bw/001.png","","","natural"
"","","","","","animation","93","497791","0.0-93.0","1920x1080","","4623","67.20","img/314/5.5/0.5/bw/001.png","","","natural"
"","","","","","animation","94","500351","0.0-94.0","1920x1080","","2558.79999999993","9.26","img/238/3.5/0.66667/bw/001.png","","","natural"
"","","","","","animation","95","502439","0.0-95.0","1920x1080","","2087.1999999999534","19.71","img/117/4/1.5/bw/001.png","","","natural"
"","","","","","animation","96","505191","0.0-96.0","1920x1080","","2750.8000000000466","18.92","img/117/4.5/1/bw/001.png","","","natural"
"","","","","","animation","97","508607","0.0-97.0","1920x1080","","3415","87.96","img/314/5.5/1/bw/001.png","","","natural"
"","","","","","animation","98","511779","0.0-98.0","1920x1080","","3171.0999999999767","25.26","img/314/4/0.5/bw/001.png","","","natural"
"","","","","","animation","99","514511","0.0-99.0","1920x1080","","2731.4000000000233","96","img/238/5.5/1.5/bw/001.png","","","natural"
"","","","","","animation","100","518039","0.0-100.0","1920x1080","","3526.5","51.19","img/314/4.5/1.5/bw/001.png","","","natural"
"","","","","","animation","101","521151","0.0-101.0","1920x1080","","3111","4.23","img/117/2.5/1/bw/001.png","","","natural"
"","","","","","animation","102","523391","0.0-102.0","1920x1080","","2238.9000000000233","20.63","img/314/4.5/0.66667/bw/001.png","","","natural"
"","","","","","animation","103","525783","0.0-103.0","1920x1080","","2391","13.49","img/238/4/1/bw/001.png","","","natural"
"","","","","","animation","104","529313","0.0-104.0","1920x1080","","3529","3.57","img/238/2.5/0.5/bw/001.png","","","natural"
"","","","","","animation","105","531561","0.0-105.0","1920x1080","","2247.4000000000233","17.20","img/314/3.5/1.5/bw/001.png","","","natural"
"","","","","","animation","106","537536","0.0-106.0","1920x1080","","5988.5","97","img/314/5.5/2/bw/001.png","","","natural"
"","","","","","animation","107","541130","0.0-107.0","1920x1080","","3592.9000000000233","100","img/238/5.5/1/bw/001.png","","","natural"
"","","","","","animation","108","543583","0.0-108.0","1920x1080","","2453","21.56","img/314/4/1/bw/001.png","","","natural"
"","","","","","animation","109","547081","0.0-109.0","1920x1080","","3496.6999999999534","90.48","img/117/5.5/1.5/bw/001.png","","","natural"
"","","","","","animation","110","550731","0.0-110.0","1920x1080","","3648.600000000093","96","img/117/5.5/2/bw/001.png","","","natural"
"","","","","","animation","111","553647","0.0-111.0","1920x1080","","2915","15.21","img/117/4.5/1.5/bw/001.png","","","natural"
"","","","","","animation","112","556296","0.0-112.0","1920x1080","","2648.1999999999534","26.06","img/117/4.5/0.5/bw/001.png","","","natural"
"","","","","","animation","113","559832","0.0-113.0","1920x1080","","3534.5999999999767","13.23","img/117/4/1/bw/001.png","","","natural"
"","","","","","animation","114","562283","0.0-114.0","1920x1080","","2449.8000000000466","20.77","img/117/4/2/bw/001.png","","","natural"
"","","","","","animation","115","565504","0.0-115.0","1920x1080","","3218.8000000000466","70.63","img/238/4.5/1.5/bw/001.png","","","natural"
"","","","","","animation","116","567808","0.0-116.0","1920x1080","","2303.20000000007","34.79","img/314/4.5/1/bw/001.png","","","natural"
"","","","","","animation","117","570688","0.0-117.0","1920x1080","","2878.8000000000466","2.65","img/238/2.5/2/bw/001.png","","","natural"
"","","","","","animation","118","573131","0.0-118.0","1920x1080","","2442.3000000000466","66.53","img/314/4.5/2/bw/001.png","","","natural"
"","","","","","animation","119","575208","0.0-119.0","1920x1080","","2075.5","5.56","img/117/3.5/0.5/bw/001.png","","","natural"
"","","","","","animation","120","578647","0.0-120.0","1920x1080","","3438.4000000000233","52.25","img/314/5.5/0.66667/bw/001.png","","","natural"
"","","","","","animation","121","581529","0.0-121.0","1920x1080","","2881.399999999907","50.40","img/238/4/1.5/bw/001.png","","","natural"
"","","","","","animation","122","608393","0.0-122.0","1920x1080","","26861.099999999977","58.33","img/238/4/2/bw/001.png","","","natural"
"","","","","","animation","123","611737","0.0-123.0","1920x1080","","3342.5999999999767","8.73","img/314/3.5/0.5/bw/001.png","","","natural"
"","","","","","animation","124","614585","0.0-124.0","1920x1080","","2846.600000000093","21.43","img/117/3.5/2/bw/001.png","","","natural"
"","","","","","animation","125","623842","0.0-125.0","1920x1080","","9255.5","45.11","img/238/4.5/0.66667/bw/001.png","","","natural"
"","","","","","animation","126","626810","0.0-126.0","1920x1080","","2967","36.24","img/238/4/0.66667/bw/001.png","","","natural"
"","","","","","animation","127","629449","0.0-127.0","1920x1080","","2638","2.78","img/117/2.5/2/bw/001.png","","","natural"
"","","","","","animation","128","631522","0.0-128.0","1920x1080","","2071.5","1.32","img/117/2.5/1.5/bw/001.png","","","natural"
"","","","","","animation","129","634449","0.0-129.0","1920x1080","","2926.1999999999534","4.63","img/314/3.5/0.66667/bw/001.png","","","natural"
"","","","","","animation","130","636994","0.0-130.0","1920x1080","","2543.70000000007","77.91","img/238/4.5/2/bw/001.png","","","natural"
"","","","","","animation","131","639649","0.0-131.0","1920x1080","","2654.29999999993","0.13","img/117/2.5/0.5/bw/001.png","","","natural"
"","","","","","animation","132","642322","0.0-132.0","1920x1080","","2671.4000000000233","0","img/314/2.5/1.5/bw/001.png","","","natural"
"","","","","","animation","133","644794","0.0-133.0","1920x1080","","2471.1999999999534","12.83","img/314/3.5/1/bw/001.png","","","natural"
"","","","","","animation","134","647770","0.0-134.0","1920x1080","","2974.9000000000233","25.79","img/314/4/2/bw/001.png","","","natural"
"","","","","","animation","135","651586","0.0-135.0","1920x1080","","3815.0999999999767","87.70","img/117/5.5/1/bw/001.png","","","natural"
"","","","","","animation","136","654273","0.0-136.0","1920x1080","","2687.0999999999767","42","img/314/4/0.66667/bw/001.png","","","natural"
"","","","","","animation","137","656981","0.0-137.0","1920x1080","","2707.70000000007","33.73","img/238/3.5/2/bw/001.png","","","natural"
"","","","","","animation","138","659073","0.0-138.0","1920x1080","","2090.0999999999767","25.40","img/238/3.5/1.5/bw/001.png","","","natural"
"","","","","","animation","139","663314","0.0-139.0","1920x1080","","4240.199999999953","0.00","img/117/2.5/0.66667/bw/001.png","","","natural"
"","","","","","animation","140","665250","0.0-140.0","1920x1080","","1934.5999999999767","7.14","img/117/3.5/1.5/bw/001.png","","","natural"
"","","","","","animation","141","667825","0.0-141.0","1920x1080","","2573.79999999993","15","img/314/3.5/2/bw/001.png","","","natural"
"","","","","","animation","142","671232","0.0-142.0","1920x1080","","3406.5999999999767","0","img/238/2.5/1.5/bw/001.png","","","natural"
"","","","","","animation","143","674200","0.0-143.0","1920x1080","","2966.9000000000233","69.44","img/238/4.5/1/bw/001.png","","","natural"
"","","","","","animation","144","676432","0.0-144.0","1920x1080","","2230.6999999999534","82.14","img/117/5.5/0.66667/bw/001.png","","","natural"
"","","","","","animation","145","678748","0.0-145.0","1920x1080","","2315.4000000000233","30.95","img/238/3.5/0.5/bw/001.png","","","natural"
"","","","","","animation","146","681764","0.0-146.0","1920x1080","","3014.6999999999534","73.68","img/117/5.5/0.5/bw/001.png","","","natural"
"","","","","","animation","147","685549","0.0-147.0","1920x1080","","3783.6999999999534","50.40","img/117/4.5/2/bw/001.png","","","natural"
"","","","","","animation","148","689521","0.0-148.0","1920x1080","","3970.9000000000233","100","img/238/5.5/0.66667/bw/001.png","","","natural"
"","","","","","animation","149","692872","0.0-149.0","1920x1080","","3350.6999999999534","100","img/238/5.5/0.5/bw/001.png","","","natural"
"","","","","","animation","150","699857","0.0-150.0","1920x1080","","6982.699999999953","98","img/314/5.5/1.5/bw/001.png","","","natural"
"","","","","","animation","151","704552","0.0-151.0","1920x1080","","4694.79999999993","32.54","img/117/4/0.5/bw/001.png","","","natural"
"","","","","","animation","152","706181","0.0-152.0","1920x1080","","1627.1999999999534","35.05","img/238/4/0.5/bw/001.png","","","natural"
"","","","","","animation","153","708288","0.0-153.0","1920x1080","","2107.0999999999767","31.22","img/314/4.5/0.5/bw/001.png","","","natural"
"","","","","","animation","154","711714","0.0-154.0","1920x1080","","3424.4000000000233","2.38","img/314/2.5/0.5/bw/001.png","","","natural"
"","","","","","animation","155","714751","0.0-155.0","1920x1080","","3037.8000000000466","12.70","img/117/3.5/0.66667/bw/001.png","","","natural"
"","","","","","animation","156","717135","0.0-156.0","1920x1080","","2382.9000000000233","7.14","img/314/2.5/2/bw/001.png","","","natural"
"","","","","","animation","157","720007","0.0-157.0","1920x1080","","2871.1999999999534","1.32","img/314/2.5/0.66667/bw/001.png","","","natural"
"","","","","","animation","158","722712","0.0-158.0","1920x1080","","2704.4000000000233","24.21","img/238/3.5/1/bw/001.png","","","natural"
"","","","","","html-button-response","159","741383","0.0-159.0","1920x1080","","18669.5","","<div class=""intro"">You are about to view a new series of animations.<br><br></div><div class=""intro"">You will evaluate them based on a different descriptor.<br><br></div><div class=""intro"">Move the slider to indicate how <strong style=""text-transform:capitalize"">INTERESTING</strong> you find each animation.<br><br></div><div class=""intro"">0 = Least Interesting<br></div><div class=""intro"">1 = Most Interesting<br><br></div><div class=""intro"">Remember to use the <strong><em>entire range</em></strong> of the slider to make your ratings.<br></div><div class=""intro"">Please <strong><em>take your time</em></strong> and carefully consider each rating you make.<br><br></div>","0","",""
"","","","","","call-function","160","741383","0.0-160.0","1920x1080","","","","","","",""
"","","","","","animation","161","745046","0.0-161.0","1920x1080","","3662","87.83","img/238/2.5/1.5/bw/001.png","","","interesting"
"","","","","","animation","162","749646","0.0-162.0","1920x1080","","4599","87.70","img/314/2.5/0.66667/bw/001.png","","","interesting"
"","","","","","animation","163","752166","0.0-163.0","1920x1080","","2519.4000000000233","94","img/117/2.5/0.66667/bw/001.png","","","interesting"
"","","","","","animation","164","755430","0.0-164.0","1920x1080","","3262.5999999999767","53.97","img/117/4.5/2/bw/001.png","","","interesting"
"","","","","","animation","165","757382","0.0-165.0","1920x1080","","1951.1999999999534","46.56","img/238/4/1.5/bw/001.png","","","interesting"
"","","","","","animation","166","760918","0.0-166.0","1920x1080","","3535.100000000093","64.29","img/117/5.5/0.66667/bw/001.png","","","interesting"
"","","","","","animation","167","764913","0.0-167.0","1920x1080","","3994.100000000093","32.67","img/314/4/0.5/bw/001.png","","","interesting"
"","","","","","animation","168","768762","0.0-168.0","1920x1080","","3847.5","8.33","img/238/5.5/1.5/bw/001.png","","","interesting"
"","","","","","animation","169","773438","0.0-169.0","1920x1080","","4675.5","17.72","img/314/4.5/1.5/bw/001.png","","","interesting"
"","","","","","animation","170","777629","0.0-170.0","1920x1080","","4190.5","22.09","img/314/5.5/0.5/bw/001.png","","","interesting"
"","","","","","animation","171","799111","0.0-171.0","1920x1080","","21480.20000000007","50.66","img/238/4.5/0.5/bw/001.png","","","interesting"
"","","","","","animation","172","801798","0.0-172.0","1920x1080","","2686.20000000007","59.39","img/238/4/0.5/bw/001.png","","","interesting"
"","","","","","animation","173","803794","0.0-173.0","1920x1080","","1995.8000000000466","30.16","img/314/4/0.66667/bw/001.png","","","interesting"
"","","","","","animation","174","807829","0.0-174.0","1920x1080","","4033.70000000007","41","img/117/5.5/0.5/bw/001.png","","","interesting"
"","","","","","animation","175","809494","0.0-175.0","1920x1080","","1663.4000000000233","49.34","img/238/4/2/bw/001.png","","","interesting"
"","","","","","animation","176","812761","0.0-176.0","1920x1080","","3266.5999999999767","88.89","img/238/2.5/1/bw/001.png","","","interesting"
"","","","","","animation","177","815222","0.0-177.0","1920x1080","","2459.3000000000466","43.65","img/238/5.5/0.66667/bw/001.png","","","interesting"
"","","","","","animation","178","816944","0.0-178.0","1920x1080","","1721.7000000000698","74.47","img/238/3.5/0.66667/bw/001.png","","","interesting"
"","","","","","animation","179","819198","0.0-179.0","1920x1080","","2252.399999999907","65.08","img/238/4.5/2/bw/001.png","","","interesting"
"","","","","","animation","180","822254","0.0-180.0","1920x1080","","3054.5999999999767","73.02","img/238/5.5/0.5/bw/001.png","","","interesting"
"","","","","","animation","181","826701","0.0-181.0","1920x1080","","4446.600000000093","6.08","img/238/5.5/2/bw/001.png","","","interesting"
"","","","","","animation","182","828645","0.0-182.0","1920x1080","","1942.6999999999534","42.33","img/314/4/2/bw/001.png","","","interesting"
"","","","","","animation","183","831349","0.0-183.0","1920x1080","","2703.5999999999767","58.47","img/238/3.5/0.5/bw/001.png","","","interesting"
"","","","","","animation","184","835255","0.0-184.0","1920x1080","","3902.70000000007","50.13","img/314/4/1.5/bw/001.png","","","interesting"
"","","","","","animation","185","838447","0.0-185.0","1920x1080","","3190.5","21.56","img/117/5.5/1/bw/001.png","","","interesting"
"","","","","","animation","186","841631","0.0-186.0","1920x1080","","3182.5999999999767","84.52","img/314/5.5/1.5/bw/001.png","","","interesting"
"","","","","","animation","187","845963","0.0-187.0","1920x1080","","4330.5","79.89","img/238/4.5/1/bw/001.png","","","interesting"
"","","","","","animation","188","848352","0.0-188.0","1920x1080","","2387.5999999999767","45.77","img/314/3.5/1.5/bw/001.png","","","interesting"
"","","","","","animation","189","851456","0.0-189.0","1920x1080","","3103.0999999999767","70.37","img/238/2.5/2/bw/001.png","","","interesting"
"","","","","","animation","190","853279","0.0-190.0","1920x1080","","1822.6000000000931","43.65","img/238/4/1/bw/001.png","","","interesting"
"","","","","","animation","191","856831","0.0-191.0","1920x1080","","3551.0999999999767","18.39","img/117/5.5/2/bw/001.png","","","interesting"
"","","","","","animation","192","863380","0.0-192.0","1920x1080","","6547.5","80.29","img/314/4/1/bw/001.png","","","interesting"
"","","","","","animation","193","866996","0.0-193.0","1920x1080","","3615.4000000000233","86.51","img/314/2.5/1/bw/001.png","","","interesting"
"","","","","","animation","194","869597","0.0-194.0","1920x1080","","2599.5","12.43","img/314/5.5/0.66667/bw/001.png","","","interesting"
"","","","","","animation","195","871779","0.0-195.0","1920x1080","","2181.8000000000466","94.58","img/238/2.5/0.5/bw/001.png","","","interesting"
"","","","","","animation","196","873856","0.0-196.0","1920x1080","","2075","58.47","img/238/3.5/1/bw/001.png","","","interesting"
"","","","","","animation","197","877152","0.0-197.0","1920x1080","","3294.9000000000233","100","img/314/2.5/0.5/bw/001.png","","","interesting"
"","","","","","animation","198","879352","0.0-198.0","1920x1080","","2198.79999999993","54.10","img/117/4.5/0.66667/bw/001.png","","","interesting"
"","","","","","animation","199","881914","0.0-199.0","1920x1080","","2561.4000000000233","27.78","img/314/4.5/2/bw/001.png","","","interesting"
"","","","","","animation","200","883696","0.0-200.0","1920x1080","","1780.5","44.84","img/117/3.5/2/bw/001.png","","","interesting"
"","","","","","animation","201","886647","0.0-201.0","1920x1080","","2949.9000000001397","50.93","img/117/4.5/0.5/bw/001.png","","","interesting"
"","","","","","animation","202","889147","0.0-202.0","1920x1080","","2498.2000000001863","55.29","img/117/4/1/bw/001.png","","","interesting"
"","","","","","animation","203","891531","0.0-203.0","1920x1080","","2383.1999999999534","57.01","img/117/5.5/1.5/bw/001.png","","","interesting"
"","","","","","animation","204","893837","0.0-204.0","1920x1080","","2307.9000000001397","63.89","img/238/4/0.66667/bw/001.png","","","interesting"
"","","","","","animation","205","896527","0.0-205.0","1920x1080","","2688.899999999907","50.53","img/238/3.5/2/bw/001.png","","","interesting"
"","","","","","animation","206","898213","0.0-206.0","1920x1080","","1684.8000000000466","40.48","img/314/3.5/1/bw/001.png","","","interesting"
"","","","","","animation","207","899717","0.0-207.0","1920x1080","","1503.6000000000931","71.03","img/314/3.5/0.66667/bw/001.png","","","interesting"
"","","","","","animation","208","901901","0.0-208.0","1920x1080","","2183.100000000093","99","img/117/2.5/1/bw/001.png","","","interesting"
"","","","","","animation","209","904797","0.0-209.0","1920x1080","","2894.3000000000466","44.58","img/314/5.5/2/bw/001.png","","","interesting"
"","","","","","animation","210","907685","0.0-210.0","1920x1080","","2887.100000000093","99","img/238/2.5/0.66667/bw/001.png","","","interesting"
"","","","","","animation","211","909896","0.0-211.0","1920x1080","","2209.4000000001397","99","img/117/2.5/0.5/bw/001.png","","","interesting"
"","","","","","animation","212","912149","0.0-212.0","1920x1080","","2251.2999999998137","51.72","img/117/4.5/1.5/bw/001.png","","","interesting"
"","","","","","animation","213","914144","0.0-213.0","1920x1080","","1993.6999999999534","82.14","img/117/3.5/0.5/bw/001.png","","","interesting"
"","","","","","animation","214","915878","0.0-214.0","1920x1080","","1733.1000000000931","67.59","img/117/4/1.5/bw/001.png","","","interesting"
"","","","","","animation","215","919211","0.0-215.0","1920x1080","","3332.5","86.51","img/314/4.5/0.66667/bw/001.png","","","interesting"
"","","","","","animation","216","921661","0.0-216.0","1920x1080","","2448.399999999907","58.73","img/117/3.5/1.5/bw/001.png","","","interesting"
"","","","","","animation","217","924445","0.0-217.0","1920x1080","","2783.100000000093","59.52","img/117/4/2/bw/001.png","","","interesting"
"","","","","","animation","218","927453","0.0-218.0","1920x1080","","3007.1999999999534","65","img/117/4.5/1/bw/001.png","","","interesting"
"","","","","","animation","219","930501","0.0-219.0","1920x1080","","3046.399999999907","4.10","img/238/5.5/1/bw/001.png","","","interesting"
"","","","","","animation","220","933565","0.0-220.0","1920x1080","","3063","91.93","img/314/2.5/1.5/bw/001.png","","","interesting"
"","","","","","animation","221","936777","0.0-221.0","1920x1080","","3211","36.11","img/314/4.5/0.5/bw/001.png","","","interesting"
"","","","","","animation","222","941933","0.0-222.0","1920x1080","","5152.100000000093","91","img/314/5.5/1/bw/001.png","","","interesting"
"","","","","","animation","223","946694","0.0-223.0","1920x1080","","4759.199999999953","24.74","img/314/3.5/2/bw/001.png","","","interesting"
"","","","","","animation","224","949427","0.0-224.0","1920x1080","","2732.399999999907","73.15","img/117/2.5/2/bw/001.png","","","interesting"
"","","","","","animation","225","952127","0.0-225.0","1920x1080","","2698.6999999999534","66.01","img/314/3.5/0.5/bw/001.png","","","interesting"
"","","","","","animation","226","954533","0.0-226.0","1920x1080","","2404.6999999999534","36.90","img/238/4.5/1.5/bw/001.png","","","interesting"
"","","","","","animation","227","959577","0.0-227.0","1920x1080","","5043.09999999986","55.69","img/238/3.5/1.5/bw/001.png","","","interesting"
"","","","","","animation","228","962244","0.0-228.0","1920x1080","","2665.5","71.43","img/238/4.5/0.66667/bw/001.png","","","interesting"
"","","","","","animation","229","964527","0.0-229.0","1920x1080","","2282.100000000093","74.74","img/314/2.5/2/bw/001.png","","","interesting"
"","","","","","animation","230","966910","0.0-230.0","1920x1080","","2382.399999999907","66.14","img/117/4/0.5/bw/001.png","","","interesting"
"","","","","","animation","231","969453","0.0-231.0","1920x1080","","2541.5999999998603","42.33","img/314/4.5/1/bw/001.png","","","interesting"
"","","","","","animation","232","972733","0.0-232.0","1920x1080","","3278.600000000093","90.21","img/117/2.5/1.5/bw/001.png","","","interesting"
"","","","","","animation","233","975828","0.0-233.0","1920x1080","","3093.8000000000466","69.44","img/117/3.5/1/bw/001.png","","","interesting"
"","","","","","animation","234","979911","0.0-234.0","1920x1080","","4080.8000000000466","83.73","img/117/4/0.66667/bw/001.png","","","interesting"
"","","","","","animation","235","984444","0.0-235.0","1920x1080","","4532.399999999907","25.40","img/117/3.5/0.66667/bw/001.png","","","interesting"
"","","","","","html-button-response","236","1006645","0.0-236.0","1920x1080","","22198.699999999953","","<div class=""intro"">You are about to view a new series of animations.<br><br></div><div class=""intro"">You will evaluate them based on a different descriptor.<br><br></div><div class=""intro"">Move the slider to indicate how <strong style=""text-transform:capitalize"">APPEALING</strong> you find each animation.<br><br></div><div class=""intro"">0 = Least Appealing<br></div><div class=""intro"">1 = Most Appealing<br><br></div><div class=""intro"">Remember to use the <strong><em>entire range</em></strong> of the slider to make your ratings.<br></div><div class=""intro"">Please <strong><em>take your time</em></strong> and carefully consider each rating you make.<br><br></div>","0","",""
"","","","","","call-function","237","1006647","0.0-237.0","1920x1080","","","","","","",""
"","","","","","animation","238","1040669","0.0-238.0","1920x1080","","34011.5","7.14","img/238/4.5/1/bw/001.png","","","appealing"
"","","","","","animation","239","1045558","0.0-239.0","1920x1080","","4887.5","79.63","img/238/5.5/0.5/bw/001.png","","","appealing"
"","","","","","animation","240","1051551","0.0-240.0","1920x1080","","5991.899999999907","7.28","img/314/2.5/2/bw/001.png","","","appealing"
"","","","","","animation","241","1054968","0.0-241.0","1920x1080","","3415.600000000093","32.54","img/117/5.5/0.5/bw/001.png","","","appealing"
"","","","","","animation","242","1057418","0.0-242.0","1920x1080","","2449","18","img/117/4/1.5/bw/001.png","","","appealing"
"","","","","","animation","243","1059789","0.0-243.0","1920x1080","","2370.3000000000466","19.58","img/314/4.5/0.5/bw/001.png","","","appealing"
"","","","","","animation","244","1061951","0.0-244.0","1920x1080","","2160.5","16.53","img/314/3.5/2/bw/001.png","","","appealing"
"","","","","","animation","245","1063773","0.0-245.0","1920x1080","","1821.3000000000466","12.96","img/238/3.5/1.5/bw/001.png","","","appealing"
"","","","","","animation","246","1067173","0.0-246.0","1920x1080","","3398.9000000001397","3.70","img/117/2.5/0.5/bw/001.png","","","appealing"
"","","","","","animation","247","1072525","0.0-247.0","1920x1080","","5350.90000000014","15.48","img/238/4/1.5/bw/001.png","","","appealing"
"","","","","","animation","248","1076774","0.0-248.0","1920x1080","","4241.40000000014","71.16","img/314/5.5/0.5/bw/001.png","","","appealing"
"","","","","","animation","249","1079099","0.0-249.0","1920x1080","","2324.2000000001863","20.37","img/117/4.5/1/bw/001.png","","","appealing"
"","","","","","animation","250","1083699","0.0-250.0","1920x1080","","4598.90000000014","88.62","img/238/5.5/0.66667/bw/001.png","","","appealing"
"","","","","","animation","251","1086299","0.0-251.0","1920x1080","","2597","26.06","img/117/4.5/1.5/bw/001.png","","","appealing"
"","","","","","animation","252","1090358","0.0-252.0","1920x1080","","4057.6999999999534","84","img/117/5.5/1/bw/001.png","","","appealing"
"","","","","","animation","253","1093174","0.0-253.0","1920x1080","","2815","48.81","img/314/4.5/2/bw/001.png","","","appealing"
"","","","","","animation","254","1095841","0.0-254.0","1920x1080","","2666","51.32","img/238/4.5/0.66667/bw/001.png","","","appealing"
"","","","","","animation","255","1099575","0.0-255.0","1920x1080","","3732.2000000001863","2","img/238/2.5/0.66667/bw/001.png","","","appealing"
"","","","","","animation","256","1102258","0.0-256.0","1920x1080","","2682.5","5.95","img/238/4/0.5/bw/001.png","","","appealing"
"","","","","","animation","257","1104841","0.0-257.0","1920x1080","","2581.899999999907","8.73","img/238/3.5/0.5/bw/001.png","","","appealing"
"","","","","","animation","258","1107195","0.0-258.0","1920x1080","","2352.9000000001397","0.00","img/314/2.5/0.5/bw/001.png","","","appealing"
"","","","","","animation","259","1111395","0.0-259.0","1920x1080","","4198.899999999907","2","img/238/2.5/1/bw/001.png","","","appealing"
"","","","","","animation","260","1117475","0.0-260.0","1920x1080","","6078","1","img/314/2.5/0.66667/bw/001.png","","","appealing"
"","","","","","animation","261","1120443","0.0-261.0","1920x1080","","2967.1999999999534","18.39","img/117/4/0.66667/bw/001.png","","","appealing"
"","","","","","animation","262","1122458","0.0-262.0","1920x1080","","2013.4000000001397","34.66","img/314/4/0.66667/bw/001.png","","","appealing"
"","","","","","animation","263","1125275","0.0-263.0","1920x1080","","2815.8000000000466","51.59","img/117/3.5/0.66667/bw/001.png","","","appealing"
"","","","","","animation","264","1128141","0.0-264.0","1920x1080","","2865.3000000000466","59.13","img/314/4.5/0.66667/bw/001.png","","","appealing"
"","","","","","animation","265","1130524","0.0-265.0","1920x1080","","2382.2000000001863","48.02","img/314/4/0.5/bw/001.png","","","appealing"
"","","","","","animation","266","1133897","0.0-266.0","1920x1080","","3365.4000000001397","53.17","img/314/4/1.5/bw/001.png","","","appealing"
"","","","","","animation","267","1138547","0.0-267.0","1920x1080","","4648.800000000047","98","img/314/5.5/2/bw/001.png","","","appealing"
"","","","","","animation","268","1141913","0.0-268.0","1920x1080","","3364.9000000001397","33.20","img/314/3.5/1/bw/001.png","","","appealing"
"","","","","","animation","269","1144030","0.0-269.0","1920x1080","","2115.399999999907","42.72","img/314/3.5/1.5/bw/001.png","","","appealing"
"","","","","","animation","270","1145981","0.0-270.0","1920x1080","","1949.5","43.78","img/314/3.5/0.66667/bw/001.png","","","appealing"
"","","","","","animation","271","1148997","0.0-271.0","1920x1080","","3014","75.40","img/314/5.5/1/bw/001.png","","","appealing"
"","","","","","animation","272","1151337","0.0-272.0","1920x1080","","2339","4.10","img/314/2.5/1.5/bw/001.png","","","appealing"
"","","","","","animation","273","1154248","0.0-273.0","1920x1080","","2910.1999999999534","3.31","img/117/2.5/2/bw/001.png","","","appealing"
"","","","","","animation","274","1164369","0.0-274.0","1920x1080","","10119.100000000093","74","img/238/4.5/1.5/bw/001.png","","","appealing"
"","","","","","animation","275","1167630","0.0-275.0","1920x1080","","3259.3000000000466","2.51","img/117/2.5/1.5/bw/001.png","","","appealing"
"","","","","","animation","276","1181713","0.0-276.0","1920x1080","","14082","18.39","img/117/4.5/0.5/bw/001.png","","","appealing"
"","","","","","animation","277","1185463","0.0-277.0","1920x1080","","3748.8000000000466","76.46","img/314/5.5/0.66667/bw/001.png","","","appealing"
"","","","","","animation","278","1189397","0.0-278.0","1920x1080","","3932.8000000000466","10.85","img/117/3.5/2/bw/001.png","","","appealing"
"","","","","","animation","279","1191816","0.0-279.0","1920x1080","","2417.600000000093","19.31","img/238/3.5/0.66667/bw/001.png","","","appealing"
"","","","","","animation","280","1194786","0.0-280.0","1920x1080","","2962.0999999998603","9.13","img/314/3.5/0.5/bw/001.png","","","appealing"
"","","","","","animation","281","1198239","0.0-281.0","1920x1080","","3451.4000000001397","17.86","img/314/4.5/1/bw/001.png","","","appealing"
"","","","","","animation","282","1202686","0.0-282.0","1920x1080","","4445.699999999953","48.94","img/314/4/2/bw/001.png","","","appealing"
"","","","","","animation","283","1204969","0.0-283.0","1920x1080","","2282.1999999999534","43.52","img/117/4/1/bw/001.png","","","appealing"
"","","","","","animation","284","1207552","0.0-284.0","1920x1080","","2581.7000000001863","32.80","img/117/3.5/1/bw/001.png","","","appealing"
"","","","","","animation","285","1209969","0.0-285.0","1920x1080","","2415.6999999999534","67.20","img/117/5.5/0.66667/bw/001.png","","","appealing"
"","","","","","animation","286","1215159","0.0-286.0","1920x1080","","5188.59999999986","0.93","img/117/2.5/1/bw/001.png","","","appealing"
"","","","","","animation","287","1219369","0.0-287.0","1920x1080","","4209","74","img/117/4.5/0.66667/bw/001.png","","","appealing"
"","","","","","animation","288","1252639","0.0-288.0","1920x1080","","33268.700000000186","88.10","img/117/5.5/1.5/bw/001.png","","","appealing"
"","","","","","animation","289","1258652","0.0-289.0","1920x1080","","5991.09999999986","44.58","img/117/4/0.5/bw/001.png","","","appealing"
"","","","","","animation","290","1261175","0.0-290.0","1920x1080","","2521.899999999907","63.62","img/117/4.5/2/bw/001.png","","","appealing"
"","","","","","animation","291","1264352","0.0-291.0","1920x1080","","3175.600000000093","92.59","img/238/5.5/1.5/bw/001.png","","","appealing"
"","","","","","animation","292","1267919","0.0-292.0","1920x1080","","3564.2999999998137","32.67","img/238/3.5/1/bw/001.png","","","appealing"
"","","","","","animation","293","1273335","0.0-293.0","1920x1080","","5415.40000000014","2.25","img/117/2.5/0.66667/bw/001.png","","","appealing"
"","","","","","animation","294","1278352","0.0-294.0","1920x1080","","5014.40000000014","23.41","img/314/4.5/1.5/bw/001.png","","","appealing"
"","","","","","animation","295","1282391","0.0-295.0","1920x1080","","4038.399999999907","17.86","img/314/4/1/bw/001.png","","","appealing"
"","","","","","animation","296","1285623","0.0-296.0","1920x1080","","3230.399999999907","89.81","img/238/5.5/1/bw/001.png","","","appealing"
"","","","","","animation","297","1288019","0.0-297.0","1920x1080","","2394.399999999907","10.19","img/117/3.5/0.5/bw/001.png","","","appealing"
"","","","","","animation","298","1292735","0.0-298.0","1920x1080","","4715.100000000093","95","img/238/5.5/2/bw/001.png","","","appealing"
"","","","","","animation","299","1295685","0.0-299.0","1920x1080","","2948.600000000093","99","img/314/5.5/1.5/bw/001.png","","","appealing"
"","","","","","animation","300","1299487","0.0-300.0","1920x1080","","3800","54.89","img/117/4/2/bw/001.png","","","appealing"
"","","","","","animation","301","1302418","0.0-301.0","1920x1080","","2929.8000000000466","69.18","img/238/4.5/2/bw/001.png","","","appealing"
"","","","","","animation","302","1304871","0.0-302.0","1920x1080","","2451.1999999999534","42.59","img/238/3.5/2/bw/001.png","","","appealing"
"","","","","","animation","303","1307255","0.0-303.0","1920x1080","","2382.8000000000466","81.75","img/117/5.5/2/bw/001.png","","","appealing"
"","","","","","animation","304","1309635","0.0-304.0","1920x1080","","2379","2.25","img/238/2.5/2/bw/001.png","","","appealing"
"","","","","","animation","305","1313711","0.0-305.0","1920x1080","","4082.3000000000466","0.93","img/314/2.5/1/bw/001.png","","","appealing"
"","","","","","animation","306","1358783","0.0-306.0","1920x1080","","45069.19999999995","20.90","img/238/4.5/0.5/bw/001.png","","","appealing"
"","","","","","animation","307","1362527","0.0-307.0","1920x1080","","3742.1999999999534","0","img/238/2.5/0.5/bw/001.png","","","appealing"
"","","","","","animation","308","1365167","0.0-308.0","1920x1080","","2638.3000000000466","19.44","img/238/4/0.66667/bw/001.png","","","appealing"
"","","","","","animation","309","1367610","0.0-309.0","1920x1080","","2441.3000000000466","39.15","img/238/4/2/bw/001.png","","","appealing"
"","","","","","animation","310","1370279","0.0-310.0","1920x1080","","2667.100000000093","4.89","img/238/2.5/1.5/bw/001.png","","","appealing"
"","","","","","animation","311","1422975","0.0-311.0","1920x1080","","52696.5","41.93","img/238/4/1/bw/001.png","","","appealing"
"","","","","","animation","312","1435710","0.0-312.0","1920x1080","","12731.399999999907","41.67","img/117/3.5/1.5/bw/001.png","","","appealing"
"","","","","","html-button-response","313","1455632","0.0-313.0","1920x1080","","19920.100000000093","","<div class=""intro"">You are about to view a new series of animations.<br><br></div><div class=""intro"">You will evaluate them based on a different descriptor.<br><br></div><div class=""intro"">Move the slider to indicate how <strong style=""text-transform:capitalize"">RELAXING</strong> you find each animation.<br><br></div><div class=""intro"">0 = Least Relaxing<br></div><div class=""intro"">1 = Most Relaxing<br><br></div><div class=""intro"">Remember to use the <strong><em>entire range</em></strong> of the slider to make your ratings.<br></div><div class=""intro"">Please <strong><em>take your time</em></strong> and carefully consider each rating you make.<br><br></div>","0","",""
"","","","","","call-function","314","1455633","0.0-314.0","1920x1080","","","","","","",""
"","","","","","animation","315","1464583","0.0-315.0","1920x1080","","8949.100000000093","50.00","img/238/4.5/0.5/bw/001.png","","","relaxing"
"","","","","","animation","316","1467632","0.0-316.0","1920x1080","","3047.2999999998137","66.01","img/238/5.5/0.66667/bw/001.png","","","relaxing"
"","","","","","animation","317","1471376","0.0-317.0","1920x1080","","3742.3000000000466","33.99","img/314/4.5/0.5/bw/001.png","","","relaxing"
"","","","","","animation","318","1475293","0.0-318.0","1920x1080","","3915.6999999999534","10.05","img/117/2.5/1.5/bw/001.png","","","relaxing"
"","","","","","animation","319","1478663","0.0-319.0","1920x1080","","3368.5","20.50","img/117/3.5/1/bw/001.png","","","relaxing"
"","","","","","animation","320","1483693","0.0-320.0","1920x1080","","5028.600000000093","88.76","img/117/5.5/1.5/bw/001.png","","","relaxing"
"","","","","","animation","321","1487243","0.0-321.0","1920x1080","","3546.8000000000466","31.22","img/314/4/0.66667/bw/001.png","","","relaxing"
"","","","","","animation","322","1490631","0.0-322.0","1920x1080","","3386.899999999907","28.97","img/117/4/1/bw/001.png","","","relaxing"
"","","","","","animation","323","1492973","0.0-323.0","1920x1080","","2341.100000000093","30.03","img/314/4.5/1/bw/001.png","","","relaxing"
"","","","","","animation","324","1495054","0.0-324.0","1920x1080","","2071.899999999907","29.89","img/238/4/1/bw/001.png","","","relaxing"
"","","","","","animation","325","1498190","0.0-325.0","1920x1080","","3134.7999999998137","50.93","img/314/5.5/0.5/bw/001.png","","","relaxing"
"","","","","","animation","326","1501017","0.0-326.0","1920x1080","","2825.3000000000466","0.40","img/238/2.5/0.66667/bw/001.png","","","relaxing"
"","","","","","animation","327","1504638","0.0-327.0","1920x1080","","3620.1999999999534","25.79","img/238/4.5/0.66667/bw/001.png","","","relaxing"
"","","","","","animation","328","1508933","0.0-328.0","1920x1080","","4293.59999999986","33.07","img/238/4/2/bw/001.png","","","relaxing"
"","","","","","animation","329","1511751","0.0-329.0","1920x1080","","2815.7999999998137","29.37","img/314/4/1.5/bw/001.png","","","relaxing"
"","","","","","animation","330","1514700","0.0-330.0","1920x1080","","2948","35.19","img/238/4.5/1.5/bw/001.png","","","relaxing"
"","","","","","animation","331","1518167","0.0-331.0","1920x1080","","3465.6999999999534","64.95","img/117/5.5/0.5/bw/001.png","","","relaxing"
"","","","","","animation","332","1523254","0.0-332.0","1920x1080","","5085.399999999907","81","img/314/5.5/0.66667/bw/001.png","","","relaxing"
"","","","","","animation","333","1544068","0.0-333.0","1920x1080","","20812.199999999953","51.06","img/314/4.5/1.5/bw/001.png","","","relaxing"
"","","","","","animation","334","1547073","0.0-334.0","1920x1080","","3003.399999999907","77.25","img/117/5.5/1/bw/001.png","","","relaxing"
"","","","","","animation","335","1549822","0.0-335.0","1920x1080","","2747.8000000000466","83.33","img/314/5.5/2/bw/001.png","","","relaxing"
"","","","","","animation","336","1553230","0.0-336.0","1920x1080","","3414.5","24.60","img/314/3.5/1.5/bw/001.png","","","relaxing"
"","","","","","animation","337","1556431","0.0-337.0","1920x1080","","3200.399999999907","25.26","img/117/4.5/0.5/bw/001.png","","","relaxing"
"","","","","","animation","338","1559480","0.0-338.0","1920x1080","","3046.3000000000466","84.13","img/314/5.5/1/bw/001.png","","","relaxing"
"","","","","","animation","339","1565525","0.0-339.0","1920x1080","","6044.100000000093","61","img/238/4.5/2/bw/001.png","","","relaxing"
"","","","","","animation","340","1570462","0.0-340.0","1920x1080","","4935","40.08","img/117/4/1.5/bw/001.png","","","relaxing"
"","","","","","animation","341","1577424","0.0-341.0","1920x1080","","6960.800000000047","26.19","img/117/3.5/1.5/bw/001.png","","","relaxing"
"","","","","","animation","342","1579814","0.0-342.0","1920x1080","","2388.8000000000466","39.42","img/117/4.5/1/bw/001.png","","","relaxing"
"","","","","","animation","343","1582175","0.0-343.0","1920x1080","","2359.5","21.69","img/314/3.5/2/bw/001.png","","","relaxing"
"","","","","","animation","344","1586785","0.0-344.0","1920x1080","","4608.09999999986","0","img/314/2.5/1/bw/001.png","","","relaxing"
"","","","","","animation","345","1589358","0.0-345.0","1920x1080","","2571.399999999907","80.95","img/117/5.5/0.66667/bw/001.png","","","relaxing"
"","","","","","animation","346","1592813","0.0-346.0","1920x1080","","3453.8000000000466","3.17","img/314/2.5/1.5/bw/001.png","","","relaxing"
"","","","","","animation","347","1597601","0.0-347.0","1920x1080","","4785.600000000093","21.56","img/314/4/1/bw/001.png","","","relaxing"
"","","","","","animation","348","1601335","0.0-348.0","1920x1080","","3732.5","52.12","img/314/4.5/2/bw/001.png","","","relaxing"
"","","","","","animation","349","1605991","0.0-349.0","1920x1080","","4654.40000000014","0","img/314/2.5/0.66667/bw/001.png","","","relaxing"
"","","","","","animation","350","1609592","0.0-350.0","1920x1080","","3598.899999999907","21.30","img/314/4/0.5/bw/001.png","","","relaxing"
"","","","","","animation","351","1612634","0.0-351.0","1920x1080","","3040.5","25.13","img/314/4.5/0.66667/bw/001.png","","","relaxing"
"","","","","","animation","352","1616256","0.0-352.0","1920x1080","","3611.3000000000466","4.89","img/117/2.5/2/bw/001.png","","","relaxing"
"","","","","","animation","353","1620168","0.0-353.0","1920x1080","","3910.600000000093","9.39","img/314/3.5/1/bw/001.png","","","relaxing"
"","","","","","animation","354","1623816","0.0-354.0","1920x1080","","3646.6999999999534","1.59","img/117/2.5/1/bw/001.png","","","relaxing"
"","","","","","animation","355","1627176","0.0-355.0","1920x1080","","3358.399999999907","18.78","img/117/4.5/0.66667/bw/001.png","","","relaxing"
"","","","","","animation","356","1630466","0.0-356.0","1920x1080","","3288","11.38","img/314/4/2/bw/001.png","","","relaxing"
"","","","","","animation","357","1633333","0.0-357.0","1920x1080","","2865.899999999907","12.30","img/238/3.5/1/bw/001.png","","","relaxing"
"","","","","","animation","358","1636718","0.0-358.0","1920x1080","","3382.8000000000466","72.35","img/117/4.5/2/bw/001.png","","","relaxing"
"","","","","","animation","359","1639920","0.0-359.0","1920x1080","","3201.5","0","img/314/2.5/0.5/bw/001.png","","","relaxing"
"","","","","","animation","360","1643149","0.0-360.0","1920x1080","","3227.2999999998137","97","img/238/5.5/0.5/bw/001.png","","","relaxing"
"","","","","","animation","361","1646872","0.0-361.0","1920x1080","","3720.7999999998137","17.72","img/238/4/0.5/bw/001.png","","","relaxing"
"","","","","","animation","362","1649550","0.0-362.0","1920x1080","","2676.100000000093","26.98","img/117/3.5/2/bw/001.png","","","relaxing"
"","","","","","animation","363","1652286","0.0-363.0","1920x1080","","2734.8000000000466","12.96","img/117/3.5/0.5/bw/001.png","","","relaxing"
"","","","","","animation","364","1656243","0.0-364.0","1920x1080","","3956.1999999999534","99","img/238/5.5/1.5/bw/001.png","","","relaxing"
"","","","","","animation","365","1658882","0.0-365.0","1920x1080","","2636.8000000000466","55.42","img/238/4/0.66667/bw/001.png","","","relaxing"
"","","","","","animation","366","1661917","0.0-366.0","1920x1080","","3033.100000000093","22.62","img/314/3.5/0.5/bw/001.png","","","relaxing"
"","","","","","animation","367","1669206","0.0-367.0","1920x1080","","7287.300000000047","100","img/238/5.5/1/bw/001.png","","","relaxing"
"","","","","","animation","368","1673984","0.0-368.0","1920x1080","","4775.800000000047","36.11","img/117/4/0.5/bw/001.png","","","relaxing"
"","","","","","animation","369","1677484","0.0-369.0","1920x1080","","3498.399999999907","100","img/238/5.5/2/bw/001.png","","","relaxing"
"","","","","","animation","370","1679466","0.0-370.0","1920x1080","","1980.4000000001397","42.72","img/238/3.5/0.66667/bw/001.png","","","relaxing"
"","","","","","animation","371","1682633","0.0-371.0","1920x1080","","3166","66.93","img/117/5.5/2/bw/001.png","","","relaxing"
"","","","","","animation","372","1686817","0.0-372.0","1920x1080","","4181.600000000093","0.93","img/117/2.5/0.5/bw/001.png","","","relaxing"
"","","","","","animation","373","1689934","0.0-373.0","1920x1080","","3115.899999999907","5.29","img/238/2.5/2/bw/001.png","","","relaxing"
"","","","","","animation","374","1693677","0.0-374.0","1920x1080","","3740.5999999998603","40.74","img/117/4/0.66667/bw/001.png","","","relaxing"
"","","","","","animation","375","1697000","0.0-375.0","1920x1080","","3321.899999999907","0","img/117/2.5/0.66667/bw/001.png","","","relaxing"
"","","","","","animation","376","1700519","0.0-376.0","1920x1080","","3517.1999999999534","14.02","img/117/3.5/0.66667/bw/001.png","","","relaxing"
"","","","","","animation","377","1702718","0.0-377.0","1920x1080","","2198.5","26.72","img/238/3.5/1.5/bw/001.png","","","relaxing"
"","","","","","animation","378","1704966","0.0-378.0","1920x1080","","2246.8000000000466","1.32","img/238/2.5/1/bw/001.png","","","relaxing"
"","","","","","animation","379","1708383","0.0-379.0","1920x1080","","3415.0999999998603","64.15","img/238/4.5/1/bw/001.png","","","relaxing"
"","","","","","animation","380","1710600","0.0-380.0","1920x1080","","2215.5","57.01","img/238/3.5/2/bw/001.png","","","relaxing"
"","","","","","animation","381","1713067","0.0-381.0","1920x1080","","2465.6999999999534","43.12","img/314/3.5/0.66667/bw/001.png","","","relaxing"
"","","","","","animation","382","1715154","0.0-382.0","1920x1080","","2086.3000000000466","46.43","img/238/3.5/0.5/bw/001.png","","","relaxing"
"","","","","","animation","383","1717889","0.0-383.0","1920x1080","","2733.899999999907","0","img/238/2.5/0.5/bw/001.png","","","relaxing"
"","","","","","animation","384","1724070","0.0-384.0","1920x1080","","6179.199999999953","1.59","img/238/2.5/1.5/bw/001.png","","","relaxing"
"","","","","","animation","385","1727451","0.0-385.0","1920x1080","","3377","1.19","img/314/2.5/2/bw/001.png","","","relaxing"
"","","","","","animation","386","1750887","0.0-386.0","1920x1080","","23434.5","72.09","img/238/4/1.5/bw/001.png","","","relaxing"
"","","","","","animation","387","1752855","0.0-387.0","1920x1080","","1965.1000000000931","63.62","img/117/4/2/bw/001.png","","","relaxing"
"","","","","","animation","388","1755667","0.0-388.0","1920x1080","","2811.3000000000466","98","img/314/5.5/1.5/bw/001.png","","","relaxing"
"","","","","","animation","389","1760434","0.0-389.0","1920x1080","","4764.5","66.67","img/117/4.5/1.5/bw/001.png","","","relaxing"
"","","","","","html-button-response","390","1829750","0.0-390.0","1920x1080","","69315.6000000001","","<strong>Study Debriefing</strong><br><p class=""debrief""><strong>Background:</strong> The patterns you rated are called <em>fractals</em>. The term fractal describes a class of irregular curves or shapes for which any suitably chosen part is similar in shape to a given larger or smaller part when magnified or reduced to the same size. Fractal properties are found throughout the natural and manmade world. The series of animations you saw today displayed animated fractal patterns of a varying complexity.</p><p class=""debrief""><strong>Purpose of this study:</strong> We hope to better understand how the perception of static fractals differs from the perception of animated fractals, and how the speed of the animated patterns influences people&apos;s perception of them. Fractals allow us to study the perception of aesthetic properties (e.g. the perceived level of beauty in an image) without using recognizable content, which makes them an excellent tool for studying abstract aesthetic judgement.</p><p class=""debrief""><strong>Your part:</strong> Your participation has helped us to further understand how humans perceive these patterns across different levels of speed and complexity. This research with allow us to better understand how the visual system and brain process our ever-changing visual environments.<p class=""debrief""><strong>Feedback and Further information:</strong> If you have additional questions about this study, please feel free to ask the researcher, Nathan Gonzales-Hess at nhess @ uoregon.edu. If you have any questions concerning your rights as a research participant, please contact Research Compliance Services, 5237 University of Oregon, Eugene, OR 97403, 541-346-2510, or email researchCompliance @ uoregon.edu. You can also email the Human Subjects Coordinator for psychology and linguistics research at hscoord @ uoregon.edu. ","0","",""
"","","","","","html-button-response","391","1833833","0.0-391.0","1920x1080","","4078.899999999907","","Thank you for participating in this study. <br>Please click below to finish the experiment and submit your responses.<br><br>","0","",""
"true","","","","","fullscreen","392","1834837","0.0-392.0","1920x1080","12:21 18/10/2022","","","","","",""
