"success","timeout","failed_images","failed_audio","failed_video","trial_type","trial_index","time_elapsed","internal_node_id","resolution","timeStamp","rt","response","stimulus","button_pressed","value","descriptor"
"true","false","[]","[]","[]","preload","0","48795","0.0-0.0","1920x1080","","","","","","",""
"true","false","[]","[]","[]","preload","1","95033","0.0-1.0","1920x1080","","","","","","",""
"true","false","[]","[]","[]","preload","2","143929","0.0-2.0","1920x1080","","","","","","",""
"true","","","","","fullscreen","3","1142378","0.0-3.0","1920x1080","12:44 26/5/2022","","","","","",""
"","","","","","survey-html-form","4","1151551","0.0-4.0","1920x1080","","9170.699999988079","{""age"":""24"",""gender"":""male""}","","","",""
"","","","","","html-button-response","5","1178263","0.0-5.0","1920x1080","","26710.600000023842","","<div class=""complex"">You are going to see a series of animations.<br><br></div><div class=""complex"">Move the slider to indicate how <strong style=""text-transform:capitalize"">COMPLEX</strong> you find each animation.<br><br></div><div class=""complex"">0 = Least Complex<br></div><div class=""complex"">1 = Most Complex<br><br></div><div class=""complex"">Remember to use the <strong><em>entire range</em></strong> of the slider to make your ratings.<br></div><div class=""complex"">Please <strong><em>take your time</em></strong> and carefully consider each rating you make.<br><br></div><div class=""complex"">The study has five sections and will take about 45 minutes to complete.<br><br></div>","0","",""
"","","","","","call-function","6","1178264","0.0-6.0","1920x1080","","","","","","",""
"","","","","","animation","7","1197063","0.0-7.0","1920x1080","","18796.600000023842","86.64","img/314/4.5/0.5/bw/001.png","","","complex"
"","","","","","animation","8","1201367","0.0-8.0","1920x1080","","4302.800000011921","4.89","img/238/5.5/1.5/bw/001.png","","","complex"
"","","","","","animation","9","1204919","0.0-9.0","1920x1080","","3551.199999988079","75.66","img/117/4.5/0.5/bw/001.png","","","complex"
"","","","","","animation","10","1210519","0.0-10.0","1920x1080","","5598.5","55.16","img/238/4.5/1.5/bw/001.png","","","complex"
"","","","","","animation","11","1215007","0.0-11.0","1920x1080","","4485.899999976158","100","img/117/2.5/2/bw/001.png","","","complex"
"","","","","","animation","12","1221111","0.0-12.0","1920x1080","","6103.199999988079","0.13","img/314/5.5/2/bw/001.png","","","complex"
"","","","","","animation","13","1225567","0.0-13.0","1920x1080","","4455.100000023842","100","img/314/4/0.5/bw/001.png","","","complex"
"","","","","","animation","14","1232703","0.0-14.0","1920x1080","","7135.199999988079","66.14","img/238/4/0.66667/bw/001.png","","","complex"
"","","","","","animation","15","1239207","0.0-15.0","1920x1080","","6501.799999952316","62.70","img/238/3.5/2/bw/001.png","","","complex"
"","","","","","animation","16","1244487","0.0-16.0","1920x1080","","5279.600000023842","0","img/238/5.5/0.66667/bw/001.png","","","complex"
"","","","","","animation","17","1252127","0.0-17.0","1920x1080","","7638.600000023842","97","img/238/3.5/1.5/bw/001.png","","","complex"
"","","","","","animation","18","1257727","0.0-18.0","1920x1080","","5599.100000023842","9","img/117/5.5/1/bw/001.png","","","complex"
"","","","","","animation","19","1262423","0.0-19.0","1920x1080","","4694.899999976158","100","img/117/2.5/1/bw/001.png","","","complex"
"","","","","","animation","20","1266791","0.0-20.0","1920x1080","","4367.300000011921","25.13","img/117/5.5/0.5/bw/001.png","","","complex"
"","","","","","animation","21","1272032","0.0-21.0","1920x1080","","5239.200000047684","29.89","img/238/4.5/2/bw/001.png","","","complex"
"","","","","","animation","22","1277648","0.0-22.0","1920x1080","","5615.5","56","img/117/4.5/1/bw/001.png","","","complex"
"","","","","","animation","23","1283160","0.0-23.0","1920x1080","","5510","100","img/238/2.5/2/bw/001.png","","","complex"
"","","","","","animation","24","1288608","0.0-24.0","1920x1080","","5447.100000023842","92.59","img/314/3.5/1.5/bw/001.png","","","complex"
"","","","","","animation","25","1295263","0.0-25.0","1920x1080","","6655.099999964237","99","img/238/3.5/1/bw/001.png","","","complex"
"","","","","","animation","26","1302816","0.0-26.0","1920x1080","","7551.599999964237","101.72","img/117/2.5/1.5/bw/001.png","","","complex"
"","","","","","animation","27","1311023","0.0-27.0","1920x1080","","8207.100000023842","27","img/314/4.5/2/bw/001.png","","","complex"
"","","","","","animation","28","1315336","0.0-28.0","1920x1080","","4311.600000023842","0.13","img/238/5.5/2/bw/001.png","","","complex"
"","","","","","animation","29","1322112","0.0-29.0","1920x1080","","6774.800000011921","87.70","img/117/4/0.66667/bw/001.png","","","complex"
"","","","","","animation","30","1325576","0.0-30.0","1920x1080","","3463","0","img/314/5.5/0.66667/bw/001.png","","","complex"
"","","","","","animation","31","1332824","0.0-31.0","1920x1080","","7247.199999988079","21.30","img/238/4.5/1/bw/001.png","","","complex"
"","","","","","animation","32","1335344","0.0-32.0","1920x1080","","2519.100000023842","80.03","img/117/3.5/2/bw/001.png","","","complex"
"","","","","","animation","33","1340200","0.0-33.0","1920x1080","","4855.399999976158","90.21","img/314/4/0.66667/bw/001.png","","","complex"
"","","","","","animation","34","1344880","0.0-34.0","1920x1080","","4676.5","73.54","img/238/4/2/bw/001.png","","","complex"
"","","","","","animation","35","1352473","0.0-35.0","1920x1080","","7592.5","54","img/314/4.5/0.66667/bw/001.png","","","complex"
"","","","","","animation","36","1356696","0.0-36.0","1920x1080","","4222","81.75","img/314/4/1/bw/001.png","","","complex"
"","","","","","animation","37","1360105","0.0-37.0","1920x1080","","3408.7999999523163","98","img/314/3.5/2/bw/001.png","","","complex"
"","","","","","animation","38","1366208","0.0-38.0","1920x1080","","6101.600000023842","100","img/117/4/1/bw/001.png","","","complex"
"","","","","","animation","39","1372616","0.0-39.0","1920x1080","","6406.399999976158","72.75","img/314/4/2/bw/001.png","","","complex"
"","","","","","animation","40","1377248","0.0-40.0","1920x1080","","4631.299999952316","100","img/117/3.5/1/bw/001.png","","","complex"
"","","","","","animation","41","1384040","0.0-41.0","1920x1080","","6791.699999988079","100","img/314/2.5/1.5/bw/001.png","","","complex"
"","","","","","animation","42","1386816","0.0-42.0","1920x1080","","2774.400000035763","100","img/117/3.5/0.5/bw/001.png","","","complex"
"","","","","","animation","43","1395289","0.0-43.0","1920x1080","","8473.100000023842","22","img/238/4.5/0.66667/bw/001.png","","","complex"
"","","","","","animation","44","1398096","0.0-44.0","1920x1080","","2805.800000011921","100","img/238/2.5/0.5/bw/001.png","","","complex"
"","","","","","animation","45","1403512","0.0-45.0","1920x1080","","5415","65.34","img/117/4/2/bw/001.png","","","complex"
"","","","","","animation","46","1409106","0.0-46.0","1920x1080","","5593","100","img/238/2.5/1.5/bw/001.png","","","complex"
"","","","","","animation","47","1418248","0.0-47.0","1920x1080","","9141.599999964237","62","img/238/4/1.5/bw/001.png","","","complex"
"","","","","","animation","48","1423808","0.0-48.0","1920x1080","","5558.899999976158","100","img/314/2.5/0.5/bw/001.png","","","complex"
"","","","","","animation","49","1429690","0.0-49.0","1920x1080","","5881.199999988079","100","img/238/2.5/0.66667/bw/001.png","","","complex"
"","","","","","animation","50","1436752","0.0-50.0","1920x1080","","7061.199999988079","64.68","img/238/4.5/0.5/bw/001.png","","","complex"
"","","","","","animation","51","1442849","0.0-51.0","1920x1080","","6095.400000035763","86.90","img/117/3.5/1.5/bw/001.png","","","complex"
"","","","","","animation","52","1448529","0.0-52.0","1920x1080","","5679","98","img/314/3.5/0.5/bw/001.png","","","complex"
"","","","","","animation","53","1453907","0.0-53.0","1920x1080","","5377.5","5","img/238/5.5/0.5/bw/001.png","","","complex"
"","","","","","animation","54","1458008","0.0-54.0","1920x1080","","4100.300000011921","2.25","img/117/5.5/0.66667/bw/001.png","","","complex"
"","","","","","animation","55","1460817","0.0-55.0","1920x1080","","2807.5","22.88","img/117/4.5/2/bw/001.png","","","complex"
"","","","","","animation","56","1465265","0.0-56.0","1920x1080","","4447.100000023842","100","img/238/2.5/1/bw/001.png","","","complex"
"","","","","","animation","57","1469976","0.0-57.0","1920x1080","","4710.5","9","img/117/5.5/1.5/bw/001.png","","","complex"
"","","","","","animation","58","1473074","0.0-58.0","1920x1080","","3096.5","3.57","img/117/5.5/2/bw/001.png","","","complex"
"","","","","","animation","59","1476640","0.0-59.0","1920x1080","","3565.300000011921","36.38","img/314/4.5/1.5/bw/001.png","","","complex"
"","","","","","animation","60","1480153","0.0-60.0","1920x1080","","3511.5","74.87","img/314/3.5/0.66667/bw/001.png","","","complex"
"","","","","","animation","61","1483528","0.0-61.0","1920x1080","","3374.600000023842","100","img/117/2.5/0.66667/bw/001.png","","","complex"
"","","","","","animation","62","1487953","0.0-62.0","1920x1080","","4424.099999964237","100","img/117/2.5/0.5/bw/001.png","","","complex"
"","","","","","animation","63","1493337","0.0-63.0","1920x1080","","5381.700000047684","0","img/314/5.5/1.5/bw/001.png","","","complex"
"","","","","","animation","64","1503529","0.0-64.0","1920x1080","","10190.600000023842","95","img/238/3.5/0.66667/bw/001.png","","","complex"
"","","","","","animation","65","1507465","0.0-65.0","1920x1080","","3935.2000000476837","98","img/314/2.5/2/bw/001.png","","","complex"
"","","","","","animation","66","1510745","0.0-66.0","1920x1080","","3279.400000035763","82.80","img/238/4/1/bw/001.png","","","complex"
"","","","","","animation","67","1514937","0.0-67.0","1920x1080","","4191.100000023842","72","img/117/4.5/0.66667/bw/001.png","","","complex"
"","","","","","animation","68","1518713","0.0-68.0","1920x1080","","3775","100","img/314/2.5/1/bw/001.png","","","complex"
"","","","","","animation","69","1523377","0.0-69.0","1920x1080","","4663","93","img/117/3.5/0.66667/bw/001.png","","","complex"
"","","","","","animation","70","1528850","0.0-70.0","1920x1080","","5471.399999976158","57.41","img/117/4.5/1.5/bw/001.png","","","complex"
"","","","","","animation","71","1534345","0.0-71.0","1920x1080","","5494.5","100","img/238/3.5/0.5/bw/001.png","","","complex"
"","","","","","animation","72","1537193","0.0-72.0","1920x1080","","2846.699999988079","99","img/117/4/0.5/bw/001.png","","","complex"
"","","","","","animation","73","1542241","0.0-73.0","1920x1080","","5047.300000011921","99","img/238/4/0.5/bw/001.png","","","complex"
"","","","","","animation","74","1547049","0.0-74.0","1920x1080","","4807.200000047684","40.08","img/314/5.5/0.5/bw/001.png","","","complex"
"","","","","","animation","75","1552050","0.0-75.0","1920x1080","","4998.900000035763","90.87","img/314/3.5/1/bw/001.png","","","complex"
"","","","","","animation","76","1555475","0.0-76.0","1920x1080","","3424.400000035763","80.16","img/314/4/1.5/bw/001.png","","","complex"
"","","","","","animation","77","1558954","0.0-77.0","1920x1080","","3477.699999988079","100","img/314/2.5/0.66667/bw/001.png","","","complex"
"","","","","","animation","78","1568177","0.0-78.0","1920x1080","","9222.5","58.60","img/314/4.5/1/bw/001.png","","","complex"
"","","","","","animation","79","1572713","0.0-79.0","1920x1080","","4535.300000011921","30.03","img/314/5.5/1/bw/001.png","","","complex"
"","","","","","animation","80","1576297","0.0-80.0","1920x1080","","3583","0.13","img/238/5.5/1/bw/001.png","","","complex"
"","","","","","animation","81","1580081","0.0-81.0","1920x1080","","3782.900000035763","72.88","img/117/4/1.5/bw/001.png","","","complex"
"","","","","","html-button-response","82","1600618","0.0-82.0","1920x1080","","20535.30000001192","","<div class=""intro"">You are about to view a new series of animations.<br><br></div><div class=""intro"">You will evaluate them based on a different descriptor.<br><br></div><div class=""intro"">Move the slider to indicate how <strong style=""text-transform:capitalize"">RELAXING</strong> you find each animation.<br><br></div><div class=""intro"">0 = Least Relaxing<br></div><div class=""intro"">1 = Most Relaxing<br><br></div><div class=""intro"">Remember to use the <strong><em>entire range</em></strong> of the slider to make your ratings.<br></div><div class=""intro"">Please <strong><em>take your time</em></strong> and carefully consider each rating you make.<br><br></div>","0","",""
"","","","","","call-function","83","1600619","0.0-83.0","1920x1080","","","","","","",""
"","","","","","animation","84","1606145","0.0-84.0","1920x1080","","5525.5","0.00","img/238/2.5/0.5/bw/001.png","","","relaxing"
"","","","","","animation","85","1612507","0.0-85.0","1920x1080","","6360.800000011921","7.54","img/314/3.5/1.5/bw/001.png","","","relaxing"
"","","","","","animation","86","1616257","0.0-86.0","1920x1080","","3749","3","img/314/3.5/1/bw/001.png","","","relaxing"
"","","","","","animation","87","1619881","0.0-87.0","1920x1080","","3623.699999988079","0.00","img/314/3.5/0.5/bw/001.png","","","relaxing"
"","","","","","animation","88","1626610","0.0-88.0","1920x1080","","6726.5","76.46","img/314/4.5/2/bw/001.png","","","relaxing"
"","","","","","animation","89","1629866","0.0-89.0","1920x1080","","3255.600000023842","3","img/117/3.5/1/bw/001.png","","","relaxing"
"","","","","","animation","90","1637434","0.0-90.0","1920x1080","","7566.800000011921","31.61","img/314/5.5/0.5/bw/001.png","","","relaxing"
"","","","","","animation","91","1640170","0.0-91.0","1920x1080","","2733.899999976158","16.67","img/314/4.5/0.5/bw/001.png","","","relaxing"
"","","","","","animation","92","1643342","0.0-92.0","1920x1080","","3170.699999988079","0","img/238/2.5/2/bw/001.png","","","relaxing"
"","","","","","animation","93","1646124","0.0-93.0","1920x1080","","2781.300000011921","0.00","img/117/3.5/0.66667/bw/001.png","","","relaxing"
"","","","","","animation","94","1653498","0.0-94.0","1920x1080","","7373.300000011921","50","img/117/4.5/2/bw/001.png","","","relaxing"
"","","","","","animation","95","1659524","0.0-95.0","1920x1080","","6025.5","33","img/117/4.5/1/bw/001.png","","","relaxing"
"","","","","","animation","96","1663010","0.0-96.0","1920x1080","","3484.2999999523163","2.78","img/314/3.5/0.66667/bw/001.png","","","relaxing"
"","","","","","animation","97","1666342","0.0-97.0","1920x1080","","3330.900000035763","0","img/117/4/0.5/bw/001.png","","","relaxing"
"","","","","","animation","98","1674786","0.0-98.0","1920x1080","","8443.5","27.51","img/238/3.5/2/bw/001.png","","","relaxing"
"","","","","","animation","99","1681171","0.0-99.0","1920x1080","","6382","59.66","img/117/5.5/0.66667/bw/001.png","","","relaxing"
"","","","","","animation","100","1685443","0.0-100.0","1920x1080","","4270.599999964237","100","img/238/5.5/1.5/bw/001.png","","","relaxing"
"","","","","","animation","101","1697963","0.0-101.0","1920x1080","","12518.800000011921","43","img/117/4/1.5/bw/001.png","","","relaxing"
"","","","","","animation","102","1701227","0.0-102.0","1920x1080","","3262.899999976158","0","img/238/2.5/1/bw/001.png","","","relaxing"
"","","","","","animation","103","1705331","0.0-103.0","1920x1080","","4103.399999976158","98","img/314/5.5/1/bw/001.png","","","relaxing"
"","","","","","animation","104","1709363","0.0-104.0","1920x1080","","4031","0.00","img/117/2.5/0.5/bw/001.png","","","relaxing"
"","","","","","animation","105","1713267","0.0-105.0","1920x1080","","3902.899999976158","12.57","img/238/4/1.5/bw/001.png","","","relaxing"
"","","","","","animation","106","1716526","0.0-106.0","1920x1080","","3257.600000023842","0","img/314/4/0.66667/bw/001.png","","","relaxing"
"","","","","","animation","107","1725299","0.0-107.0","1920x1080","","8772.199999988079","47.22","img/238/5.5/0.66667/bw/001.png","","","relaxing"
"","","","","","animation","108","1732611","0.0-108.0","1920x1080","","7310.699999988079","6","img/314/3.5/2/bw/001.png","","","relaxing"
"","","","","","animation","109","1738795","0.0-109.0","1920x1080","","6183.100000023842","18.92","img/117/4/2/bw/001.png","","","relaxing"
"","","","","","animation","110","1741979","0.0-110.0","1920x1080","","3183","0.13","img/238/4/0.5/bw/001.png","","","relaxing"
"","","","","","animation","111","1748915","0.0-111.0","1920x1080","","6935.199999988079","100","img/117/5.5/2/bw/001.png","","","relaxing"
"","","","","","animation","112","1755451","0.0-112.0","1920x1080","","6535.199999988079","0","img/117/3.5/1.5/bw/001.png","","","relaxing"
"","","","","","animation","113","1758651","0.0-113.0","1920x1080","","3198.899999976158","0.13","img/238/2.5/0.66667/bw/001.png","","","relaxing"
"","","","","","animation","114","1762547","0.0-114.0","1920x1080","","3894.900000035763","2.38","img/238/3.5/1.5/bw/001.png","","","relaxing"
"","","","","","animation","115","1768811","0.0-115.0","1920x1080","","6262.800000011921","64","img/117/5.5/1/bw/001.png","","","relaxing"
"","","","","","animation","116","1772131","0.0-116.0","1920x1080","","3319","0","img/117/2.5/1.5/bw/001.png","","","relaxing"
"","","","","","animation","117","1777043","0.0-117.0","1920x1080","","4910.600000023842","10.19","img/314/4/1.5/bw/001.png","","","relaxing"
"","","","","","animation","118","1782331","0.0-118.0","1920x1080","","5287.399999976158","4.10","img/314/4.5/0.66667/bw/001.png","","","relaxing"
"","","","","","animation","119","1788492","0.0-119.0","1920x1080","","6159.5","0","img/314/2.5/1.5/bw/001.png","","","relaxing"
"","","","","","animation","120","1794731","0.0-120.0","1920x1080","","6238.699999988079","100","img/314/5.5/1.5/bw/001.png","","","relaxing"
"","","","","","animation","121","1798683","0.0-121.0","1920x1080","","3951.099999964237","0","img/238/4/0.66667/bw/001.png","","","relaxing"
"","","","","","animation","122","1802131","0.0-122.0","1920x1080","","3446","3.97","img/117/3.5/2/bw/001.png","","","relaxing"
"","","","","","animation","123","1809547","0.0-123.0","1920x1080","","7415.299999952316","0.40","img/117/4.5/0.66667/bw/001.png","","","relaxing"
"","","","","","animation","124","1814403","0.0-124.0","1920x1080","","4855.100000023842","0.00","img/238/3.5/1/bw/001.png","","","relaxing"
"","","","","","animation","125","1820819","0.0-125.0","1920x1080","","6414.599999964237","51","img/314/4.5/1.5/bw/001.png","","","relaxing"
"","","","","","animation","126","1827925","0.0-126.0","1920x1080","","7104","32.54","img/314/4/2/bw/001.png","","","relaxing"
"","","","","","animation","127","1831979","0.0-127.0","1920x1080","","4053.399999976158","0.00","img/117/2.5/2/bw/001.png","","","relaxing"
"","","","","","animation","128","1839051","0.0-128.0","1920x1080","","7071","30.42","img/238/4/2/bw/001.png","","","relaxing"
"","","","","","animation","129","1845435","0.0-129.0","1920x1080","","6383.300000011921","7.94","img/238/4.5/0.66667/bw/001.png","","","relaxing"
"","","","","","animation","130","1850515","0.0-130.0","1920x1080","","5078.699999988079","2.65","img/238/4.5/0.5/bw/001.png","","","relaxing"
"","","","","","animation","131","1853375","0.0-131.0","1920x1080","","2858.5","0.00","img/314/2.5/2/bw/001.png","","","relaxing"
"","","","","","animation","132","1860211","0.0-132.0","1920x1080","","6835","100","img/238/5.5/2/bw/001.png","","","relaxing"
"","","","","","animation","133","1864596","0.0-133.0","1920x1080","","4382.899999976158","0","img/117/4/0.66667/bw/001.png","","","relaxing"
"","","","","","animation","134","1867725","0.0-134.0","1920x1080","","3128.399999976158","0.40","img/117/2.5/0.66667/bw/001.png","","","relaxing"
"","","","","","animation","135","1877404","0.0-135.0","1920x1080","","9677.700000047684","35.19","img/238/5.5/0.5/bw/001.png","","","relaxing"
"","","","","","animation","136","1885125","0.0-136.0","1920x1080","","7720.399999976158","80.56","img/238/4.5/2/bw/001.png","","","relaxing"
"","","","","","animation","137","1896611","0.0-137.0","1920x1080","","11484.699999988079","87","img/238/4.5/1.5/bw/001.png","","","relaxing"
"","","","","","animation","138","1903725","0.0-138.0","1920x1080","","7112.600000023842","97","img/314/5.5/0.66667/bw/001.png","","","relaxing"
"","","","","","animation","139","1907900","0.0-139.0","1920x1080","","4173.5","0.00","img/238/3.5/0.5/bw/001.png","","","relaxing"
"","","","","","animation","140","1911411","0.0-140.0","1920x1080","","3510.100000023842","0.40","img/314/2.5/0.66667/bw/001.png","","","relaxing"
"","","","","","animation","141","1914742","0.0-141.0","1920x1080","","3329.899999976158","0.00","img/314/2.5/0.5/bw/001.png","","","relaxing"
"","","","","","animation","142","1919011","0.0-142.0","1920x1080","","4268.300000011921","0.93","img/238/2.5/1.5/bw/001.png","","","relaxing"
"","","","","","animation","143","1923669","0.0-143.0","1920x1080","","4654.900000035763","0","img/117/4/1/bw/001.png","","","relaxing"
"","","","","","animation","144","1926437","0.0-144.0","1920x1080","","2766.7000000476837","0.53","img/238/3.5/0.66667/bw/001.png","","","relaxing"
"","","","","","animation","145","1929998","0.0-145.0","1920x1080","","3559.900000035763","0","img/314/4/1/bw/001.png","","","relaxing"
"","","","","","animation","146","1935885","0.0-146.0","1920x1080","","5885.800000011921","2.51","img/314/4.5/1/bw/001.png","","","relaxing"
"","","","","","animation","147","1943653","0.0-147.0","1920x1080","","7767.099999964237","100","img/314/5.5/2/bw/001.png","","","relaxing"
"","","","","","animation","148","1950733","0.0-148.0","1920x1080","","7078.899999976158","40.34","img/117/4.5/1.5/bw/001.png","","","relaxing"
"","","","","","animation","149","1959453","0.0-149.0","1920x1080","","8718.5","56","img/238/4.5/1/bw/001.png","","","relaxing"
"","","","","","animation","150","1963628","0.0-150.0","1920x1080","","4174.300000011921","7.01","img/314/4/0.5/bw/001.png","","","relaxing"
"","","","","","animation","151","1971277","0.0-151.0","1920x1080","","7647.699999988079","14.68","img/238/4/1/bw/001.png","","","relaxing"
"","","","","","animation","152","1978794","0.0-152.0","1920x1080","","7515.5","34.26","img/117/5.5/0.5/bw/001.png","","","relaxing"
"","","","","","animation","153","1981253","0.0-153.0","1920x1080","","2457.900000035763","0","img/117/3.5/0.5/bw/001.png","","","relaxing"
"","","","","","animation","154","1987177","0.0-154.0","1920x1080","","5922.800000011921","71.83","img/117/5.5/1.5/bw/001.png","","","relaxing"
"","","","","","animation","155","1989365","0.0-155.0","1920x1080","","2186.800000011921","0.13","img/314/2.5/1/bw/001.png","","","relaxing"
"","","","","","animation","156","1992429","0.0-156.0","1920x1080","","3063","0","img/117/2.5/1/bw/001.png","","","relaxing"
"","","","","","animation","157","1999194","0.0-157.0","1920x1080","","6763.900000035763","3","img/117/4.5/0.5/bw/001.png","","","relaxing"
"","","","","","animation","158","2002963","0.0-158.0","1920x1080","","3768.399999976158","100","img/238/5.5/1/bw/001.png","","","relaxing"
"","","","","","html-button-response","159","2024534","0.0-159.0","1920x1080","","21569.30000001192","","<div class=""intro"">You are about to view a new series of animations.<br><br></div><div class=""intro"">You will evaluate them based on a different descriptor.<br><br></div><div class=""intro"">Move the slider to indicate how <strong style=""text-transform:capitalize"">NATURAL</strong> you find each animation.<br><br></div><div class=""intro"">0 = Least Natural<br></div><div class=""intro"">1 = Most Natural<br><br></div><div class=""intro"">Remember to use the <strong><em>entire range</em></strong> of the slider to make your ratings.<br></div><div class=""intro"">Please <strong><em>take your time</em></strong> and carefully consider each rating you make.<br><br></div>","0","",""
"","","","","","call-function","160","2024535","0.0-160.0","1920x1080","","","","","","",""
"","","","","","animation","161","2029077","0.0-161.0","1920x1080","","4540.5","4.50","img/238/4.5/0.5/bw/001.png","","","natural"
"","","","","","animation","162","2033576","0.0-162.0","1920x1080","","4497.5","21","img/238/3.5/2/bw/001.png","","","natural"
"","","","","","animation","163","2035977","0.0-163.0","1920x1080","","2399.400000035763","0","img/238/4/0.5/bw/001.png","","","natural"
"","","","","","animation","164","2039211","0.0-164.0","1920x1080","","3233.699999988079","0","img/238/3.5/1.5/bw/001.png","","","natural"
"","","","","","animation","165","2044176","0.0-165.0","1920x1080","","4964.099999964237","100","img/117/5.5/2/bw/001.png","","","natural"
"","","","","","animation","166","2047885","0.0-166.0","1920x1080","","3707.5","73.02","img/314/5.5/0.5/bw/001.png","","","natural"
"","","","","","animation","167","2052196","0.0-167.0","1920x1080","","4310.299999952316","84","img/117/5.5/1/bw/001.png","","","natural"
"","","","","","animation","168","2057532","0.0-168.0","1920x1080","","5334.899999976158","49.74","img/314/4.5/2/bw/001.png","","","natural"
"","","","","","animation","169","2060781","0.0-169.0","1920x1080","","3247.400000035763","0.53","img/238/3.5/0.66667/bw/001.png","","","natural"
"","","","","","animation","170","2063860","0.0-170.0","1920x1080","","3078.399999976158","0.13","img/117/2.5/1.5/bw/001.png","","","natural"
"","","","","","animation","171","2069743","0.0-171.0","1920x1080","","5882","64.95","img/238/5.5/0.5/bw/001.png","","","natural"
"","","","","","animation","172","2072685","0.0-172.0","1920x1080","","2940","0.40","img/314/2.5/1/bw/001.png","","","natural"
"","","","","","animation","173","2079409","0.0-173.0","1920x1080","","6723.700000047684","40","img/117/4.5/1.5/bw/001.png","","","natural"
"","","","","","animation","174","2084644","0.0-174.0","1920x1080","","5233.899999976158","11","img/314/3.5/1/bw/001.png","","","natural"
"","","","","","animation","175","2088732","0.0-175.0","1920x1080","","4086.800000011921","100","img/238/5.5/2/bw/001.png","","","natural"
"","","","","","animation","176","2097597","0.0-176.0","1920x1080","","8863.100000023842","40.61","img/117/4.5/2/bw/001.png","","","natural"
"","","","","","animation","177","2100244","0.0-177.0","1920x1080","","2646.699999988079","0","img/314/2.5/0.66667/bw/001.png","","","natural"
"","","","","","animation","178","2102798","0.0-178.0","1920x1080","","2551.2000000476837","5.16","img/117/3.5/1.5/bw/001.png","","","natural"
"","","","","","animation","179","2109994","0.0-179.0","1920x1080","","7195.199999988079","43.78","img/117/5.5/0.66667/bw/001.png","","","natural"
"","","","","","animation","180","2116998","0.0-180.0","1920x1080","","7002.5","30.82","img/117/4/1.5/bw/001.png","","","natural"
"","","","","","animation","181","2119894","0.0-181.0","1920x1080","","2895","8.60","img/314/4/0.5/bw/001.png","","","natural"
"","","","","","animation","182","2122827","0.0-182.0","1920x1080","","2932.5","0.13","img/238/2.5/0.5/bw/001.png","","","natural"
"","","","","","animation","183","2129366","0.0-183.0","1920x1080","","6537.5","14.55","img/314/3.5/1.5/bw/001.png","","","natural"
"","","","","","animation","184","2132398","0.0-184.0","1920x1080","","3030.100000023842","0.40","img/238/3.5/0.5/bw/001.png","","","natural"
"","","","","","animation","185","2139794","0.0-185.0","1920x1080","","7394.899999976158","31","img/314/3.5/2/bw/001.png","","","natural"
"","","","","","animation","186","2145977","0.0-186.0","1920x1080","","6182.100000023842","94","img/314/5.5/1.5/bw/001.png","","","natural"
"","","","","","animation","187","2153427","0.0-187.0","1920x1080","","7449.300000011921","30.03","img/238/4/1.5/bw/001.png","","","natural"
"","","","","","animation","188","2156214","0.0-188.0","1920x1080","","2785.2000000476837","18.25","img/117/4.5/0.66667/bw/001.png","","","natural"
"","","","","","animation","189","2159902","0.0-189.0","1920x1080","","3687.5","4.63","img/117/4/0.66667/bw/001.png","","","natural"
"","","","","","animation","190","2168294","0.0-190.0","1920x1080","","8391","58","img/314/4.5/1/bw/001.png","","","natural"
"","","","","","animation","191","2172646","0.0-191.0","1920x1080","","4350.199999988079","4.37","img/238/3.5/1/bw/001.png","","","natural"
"","","","","","animation","192","2176044","0.0-192.0","1920x1080","","3396.800000011921","58.86","img/238/4.5/2/bw/001.png","","","natural"
"","","","","","animation","193","2180230","0.0-193.0","1920x1080","","4184.899999976158","0","img/314/3.5/0.66667/bw/001.png","","","natural"
"","","","","","animation","194","2184166","0.0-194.0","1920x1080","","3935.399999976158","0.40","img/314/3.5/0.5/bw/001.png","","","natural"
"","","","","","animation","195","2193686","0.0-195.0","1920x1080","","9518.699999988079","34","img/314/4/1.5/bw/001.png","","","natural"
"","","","","","animation","196","2196377","0.0-196.0","1920x1080","","2690","0","img/117/3.5/0.5/bw/001.png","","","natural"
"","","","","","animation","197","2200982","0.0-197.0","1920x1080","","4603.399999976158","31.35","img/314/4/2/bw/001.png","","","natural"
"","","","","","animation","198","2203461","0.0-198.0","1920x1080","","2477.100000023842","0.93","img/314/2.5/2/bw/001.png","","","natural"
"","","","","","animation","199","2208561","0.0-199.0","1920x1080","","5099.300000011921","24.87","img/238/4/2/bw/001.png","","","natural"
"","","","","","animation","200","2215366","0.0-200.0","1920x1080","","6804.399999976158","98","img/238/5.5/1.5/bw/001.png","","","natural"
"","","","","","animation","201","2222278","0.0-201.0","1920x1080","","6910.300000011921","64.29","img/314/4.5/1.5/bw/001.png","","","natural"
"","","","","","animation","202","2226378","0.0-202.0","1920x1080","","4098.699999988079","0.79","img/117/2.5/2/bw/001.png","","","natural"
"","","","","","animation","203","2229929","0.0-203.0","1920x1080","","3548.099999964237","0.13","img/117/2.5/0.5/bw/001.png","","","natural"
"","","","","","animation","204","2235428","0.0-204.0","1920x1080","","5498.199999988079","4.50","img/117/4/1/bw/001.png","","","natural"
"","","","","","animation","205","2240194","0.0-205.0","1920x1080","","4765.199999988079","97","img/238/5.5/0.66667/bw/001.png","","","natural"
"","","","","","animation","206","2246798","0.0-206.0","1920x1080","","6602.399999976158","100","img/238/5.5/1/bw/001.png","","","natural"
"","","","","","animation","207","2251228","0.0-207.0","1920x1080","","4427.699999988079","70.63","img/117/5.5/0.5/bw/001.png","","","natural"
"","","","","","animation","208","2256445","0.0-208.0","1920x1080","","5215.399999976158","33.73","img/117/4.5/1/bw/001.png","","","natural"
"","","","","","animation","209","2260728","0.0-209.0","1920x1080","","4282.100000023842","95","img/314/5.5/0.66667/bw/001.png","","","natural"
"","","","","","animation","210","2265095","0.0-210.0","1920x1080","","4365.5","0.53","img/117/2.5/1/bw/001.png","","","natural"
"","","","","","animation","211","2271583","0.0-211.0","1920x1080","","6486.699999988079","21.30","img/314/4.5/0.5/bw/001.png","","","natural"
"","","","","","animation","212","2276261","0.0-212.0","1920x1080","","4677.699999988079","49.34","img/238/4.5/1.5/bw/001.png","","","natural"
"","","","","","animation","213","2279535","0.0-213.0","1920x1080","","3272.300000011921","0.40","img/314/2.5/0.5/bw/001.png","","","natural"
"","","","","","animation","214","2284934","0.0-214.0","1920x1080","","5398.599999964237","83.47","img/314/5.5/1/bw/001.png","","","natural"
"","","","","","animation","215","2293183","0.0-215.0","1920x1080","","8247","7.01","img/238/4.5/0.66667/bw/001.png","","","natural"
"","","","","","animation","216","2305961","0.0-216.0","1920x1080","","12777.199999988079","10.05","img/314/4.5/0.66667/bw/001.png","","","natural"
"","","","","","animation","217","2309044","0.0-217.0","1920x1080","","3082.199999988079","0.53","img/117/3.5/0.66667/bw/001.png","","","natural"
"","","","","","animation","218","2315361","0.0-218.0","1920x1080","","6314.699999988079","0.53","img/238/2.5/0.66667/bw/001.png","","","natural"
"","","","","","animation","219","2320846","0.0-219.0","1920x1080","","5484.199999988079","100","img/314/5.5/2/bw/001.png","","","natural"
"","","","","","animation","220","2324946","0.0-220.0","1920x1080","","4098.5","0.40","img/117/2.5/0.66667/bw/001.png","","","natural"
"","","","","","animation","221","2328094","0.0-221.0","1920x1080","","3146.800000011921","3","img/238/4/0.66667/bw/001.png","","","natural"
"","","","","","animation","222","2331278","0.0-222.0","1920x1080","","3182.099999964237","89","img/117/5.5/1.5/bw/001.png","","","natural"
"","","","","","animation","223","2335797","0.0-223.0","1920x1080","","4518.5","19.44","img/238/4/1/bw/001.png","","","natural"
"","","","","","animation","224","2340415","0.0-224.0","1920x1080","","4615.5","1.19","img/238/2.5/2/bw/001.png","","","natural"
"","","","","","animation","225","2345815","0.0-225.0","1920x1080","","5398.5","16.53","img/314/4/1/bw/001.png","","","natural"
"","","","","","animation","226","2348578","0.0-226.0","1920x1080","","2761.399999976158","0.53","img/238/2.5/1.5/bw/001.png","","","natural"
"","","","","","animation","227","2354503","0.0-227.0","1920x1080","","5924.199999988079","0.00","img/117/3.5/1/bw/001.png","","","natural"
"","","","","","animation","228","2358847","0.0-228.0","1920x1080","","4341.600000023842","3.84","img/314/4/0.66667/bw/001.png","","","natural"
"","","","","","animation","229","2363877","0.0-229.0","1920x1080","","5029.199999988079","2.65","img/117/4.5/0.5/bw/001.png","","","natural"
"","","","","","animation","230","2371362","0.0-230.0","1920x1080","","7483.199999988079","38","img/117/3.5/2/bw/001.png","","","natural"
"","","","","","animation","231","2373766","0.0-231.0","1920x1080","","2403.100000023842","0","img/238/2.5/1/bw/001.png","","","natural"
"","","","","","animation","232","2379015","0.0-232.0","1920x1080","","5247.200000047684","17.46","img/238/4.5/1/bw/001.png","","","natural"
"","","","","","animation","233","2385393","0.0-233.0","1920x1080","","6376.899999976158","32.54","img/117/4/2/bw/001.png","","","natural"
"","","","","","animation","234","2389615","0.0-234.0","1920x1080","","4220.199999988079","2.25","img/314/2.5/1.5/bw/001.png","","","natural"
"","","","","","animation","235","2393869","0.0-235.0","1920x1080","","4251.800000011921","0.53","img/117/4/0.5/bw/001.png","","","natural"
"","","","","","html-button-response","236","2412616","0.0-236.0","1920x1080","","18744.900000035763","","<div class=""intro"">You are about to view a new series of animations.<br><br></div><div class=""intro"">You will evaluate them based on a different descriptor.<br><br></div><div class=""intro"">Move the slider to indicate how <strong style=""text-transform:capitalize"">APPEALING</strong> you find each animation.<br><br></div><div class=""intro"">0 = Least Appealing<br></div><div class=""intro"">1 = Most Appealing<br><br></div><div class=""intro"">Remember to use the <strong><em>entire range</em></strong> of the slider to make your ratings.<br></div><div class=""intro"">Please <strong><em>take your time</em></strong> and carefully consider each rating you make.<br><br></div>","0","",""
"","","","","","call-function","237","2412616","0.0-237.0","1920x1080","","","","","","",""
"","","","","","animation","238","2418745","0.0-238.0","1920x1080","","6128.5","20.77","img/238/3.5/0.5/bw/001.png","","","appealing"
"","","","","","animation","239","2422920","0.0-239.0","1920x1080","","4173.199999988079","39.95","img/238/4/1.5/bw/001.png","","","appealing"
"","","","","","animation","240","2426895","0.0-240.0","1920x1080","","3973.900000035763","74.34","img/238/5.5/0.5/bw/001.png","","","appealing"
"","","","","","animation","241","2432012","0.0-241.0","1920x1080","","5115.5","28","img/238/3.5/2/bw/001.png","","","appealing"
"","","","","","animation","242","2437961","0.0-242.0","1920x1080","","5948.199999988079","6.75","img/238/2.5/1.5/bw/001.png","","","appealing"
"","","","","","animation","243","2440662","0.0-243.0","1920x1080","","2698","0","img/314/2.5/0.66667/bw/001.png","","","appealing"
"","","","","","animation","244","2444812","0.0-244.0","1920x1080","","4148.899999976158","7.80","img/238/4/0.66667/bw/001.png","","","appealing"
"","","","","","animation","245","2448253","0.0-245.0","1920x1080","","3439.199999988079","25.00","img/314/3.5/2/bw/001.png","","","appealing"
"","","","","","animation","246","2451768","0.0-246.0","1920x1080","","3513.600000023842","6.08","img/238/4/0.5/bw/001.png","","","appealing"
"","","","","","animation","247","2455462","0.0-247.0","1920x1080","","3692.300000011921","3.31","img/314/3.5/0.66667/bw/001.png","","","appealing"
"","","","","","animation","248","2460045","0.0-248.0","1920x1080","","4582.199999988079","62.30","img/314/5.5/0.66667/bw/001.png","","","appealing"
"","","","","","animation","249","2466768","0.0-249.0","1920x1080","","6720.699999988079","56.75","img/314/4.5/1/bw/001.png","","","appealing"
"","","","","","animation","250","2471429","0.0-250.0","1920x1080","","4659.800000011921","100","img/238/5.5/1/bw/001.png","","","appealing"
"","","","","","animation","251","2474780","0.0-251.0","1920x1080","","3348.400000035763","99","img/314/5.5/1.5/bw/001.png","","","appealing"
"","","","","","animation","252","2478417","0.0-252.0","1920x1080","","3635.600000023842","100","img/314/5.5/2/bw/001.png","","","appealing"
"","","","","","animation","253","2482870","0.0-253.0","1920x1080","","4452.399999976158","9.79","img/117/4.5/0.5/bw/001.png","","","appealing"
"","","","","","animation","254","2490120","0.0-254.0","1920x1080","","7248.400000035763","33.33","img/314/4/1.5/bw/001.png","","","appealing"
"","","","","","animation","255","2496264","0.0-255.0","1920x1080","","6141.899999976158","5.95","img/117/4/1/bw/001.png","","","appealing"
"","","","","","animation","256","2499746","0.0-256.0","1920x1080","","3480.5","0.40","img/117/3.5/0.5/bw/001.png","","","appealing"
"","","","","","animation","257","2506449","0.0-257.0","1920x1080","","6702","0","img/117/2.5/0.5/bw/001.png","","","appealing"
"","","","","","animation","258","2514379","0.0-258.0","1920x1080","","7928","42","img/314/5.5/0.5/bw/001.png","","","appealing"
"","","","","","animation","259","2524143","0.0-259.0","1920x1080","","9762.399999976158","60.58","img/117/3.5/2/bw/001.png","","","appealing"
"","","","","","animation","260","2530184","0.0-260.0","1920x1080","","6039.399999976158","11","img/117/3.5/1/bw/001.png","","","appealing"
"","","","","","animation","261","2533585","0.0-261.0","1920x1080","","3398.699999988079","0.00","img/238/2.5/0.5/bw/001.png","","","appealing"
"","","","","","animation","262","2542352","0.0-262.0","1920x1080","","8765.800000011921","39","img/238/4.5/1/bw/001.png","","","appealing"
"","","","","","animation","263","2546984","0.0-263.0","1920x1080","","4630.199999988079","96","img/238/5.5/1.5/bw/001.png","","","appealing"
"","","","","","animation","264","2555872","0.0-264.0","1920x1080","","8885.300000011921","32.28","img/238/4.5/0.66667/bw/001.png","","","appealing"
"","","","","","animation","265","2561000","0.0-265.0","1920x1080","","5125.400000035763","62.70","img/117/4.5/2/bw/001.png","","","appealing"
"","","","","","animation","266","2563595","0.0-266.0","1920x1080","","2591.800000011921","4.10","img/117/4/0.5/bw/001.png","","","appealing"
"","","","","","animation","267","2569912","0.0-267.0","1920x1080","","6316.299999952316","9.79","img/238/4/2/bw/001.png","","","appealing"
"","","","","","animation","268","2574152","0.0-268.0","1920x1080","","4238.600000023842","21.83","img/117/4.5/1.5/bw/001.png","","","appealing"
"","","","","","animation","269","2577280","0.0-269.0","1920x1080","","3126.100000023842","0","img/117/2.5/1/bw/001.png","","","appealing"
"","","","","","animation","270","2581512","0.0-270.0","1920x1080","","4230.5","0.79","img/314/4/0.5/bw/001.png","","","appealing"
"","","","","","animation","271","2586529","0.0-271.0","1920x1080","","5015.5","48.54","img/117/5.5/0.66667/bw/001.png","","","appealing"
"","","","","","animation","272","2603246","0.0-272.0","1920x1080","","16715.299999952316","19","img/314/4/1/bw/001.png","","","appealing"
"","","","","","animation","273","2607569","0.0-273.0","1920x1080","","4320.899999976158","0","img/314/2.5/0.5/bw/001.png","","","appealing"
"","","","","","animation","274","2613250","0.0-274.0","1920x1080","","5679.800000011921","5","img/238/4/1/bw/001.png","","","appealing"
"","","","","","animation","275","2618449","0.0-275.0","1920x1080","","5197.699999988079","0","img/238/2.5/2/bw/001.png","","","appealing"
"","","","","","animation","276","2638821","0.0-276.0","1920x1080","","20370.100000023842","55.69","img/238/4.5/1.5/bw/001.png","","","appealing"
"","","","","","animation","277","2642202","0.0-277.0","1920x1080","","3378.899999976158","2.51","img/238/3.5/0.66667/bw/001.png","","","appealing"
"","","","","","animation","278","2645050","0.0-278.0","1920x1080","","2846.400000035763","0.40","img/314/2.5/1.5/bw/001.png","","","appealing"
"","","","","","animation","279","2649087","0.0-279.0","1920x1080","","4034.899999976158","9.39","img/117/4.5/1/bw/001.png","","","appealing"
"","","","","","animation","280","2657897","0.0-280.0","1920x1080","","8807.300000011921","47.88","img/314/4.5/2/bw/001.png","","","appealing"
"","","","","","animation","281","2662107","0.0-281.0","1920x1080","","4207.699999988079","0","img/117/2.5/2/bw/001.png","","","appealing"
"","","","","","animation","282","2671153","0.0-282.0","1920x1080","","9044","3.04","img/238/3.5/1.5/bw/001.png","","","appealing"
"","","","","","animation","283","2674153","0.0-283.0","1920x1080","","2998.2999999523163","0.53","img/314/2.5/2/bw/001.png","","","appealing"
"","","","","","animation","284","2683467","0.0-284.0","1920x1080","","9312.800000011921","0.53","img/238/3.5/1/bw/001.png","","","appealing"
"","","","","","animation","285","2687300","0.0-285.0","1920x1080","","3830.7000000476837","71.03","img/117/5.5/0.5/bw/001.png","","","appealing"
"","","","","","animation","286","2691137","0.0-286.0","1920x1080","","3835.699999988079","4.76","img/314/3.5/1/bw/001.png","","","appealing"
"","","","","","animation","287","2695217","0.0-287.0","1920x1080","","4078.599999964237","0.40","img/314/4.5/0.5/bw/001.png","","","appealing"
"","","","","","animation","288","2700497","0.0-288.0","1920x1080","","5278.300000011921","94","img/314/5.5/1/bw/001.png","","","appealing"
"","","","","","animation","289","2716338","0.0-289.0","1920x1080","","15838.600000023842","41","img/314/4/2/bw/001.png","","","appealing"
"","","","","","animation","290","2721803","0.0-290.0","1920x1080","","5463","15.74","img/314/4/0.66667/bw/001.png","","","appealing"
"","","","","","animation","291","2725154","0.0-291.0","1920x1080","","3349","0.79","img/117/3.5/0.66667/bw/001.png","","","appealing"
"","","","","","animation","292","2731420","0.0-292.0","1920x1080","","6263.800000011921","82","img/238/5.5/0.66667/bw/001.png","","","appealing"
"","","","","","animation","293","2736901","0.0-293.0","1920x1080","","5479.299999952316","78.84","img/314/4.5/1.5/bw/001.png","","","appealing"
"","","","","","animation","294","2741136","0.0-294.0","1920x1080","","4234","63","img/314/4.5/0.66667/bw/001.png","","","appealing"
"","","","","","animation","295","2745915","0.0-295.0","1920x1080","","4775.800000011921","21","img/314/3.5/1.5/bw/001.png","","","appealing"
"","","","","","animation","296","2751174","0.0-296.0","1920x1080","","5257","100","img/117/5.5/2/bw/001.png","","","appealing"
"","","","","","animation","297","2758470","0.0-297.0","1920x1080","","7293.900000035763","59.26","img/238/4.5/2/bw/001.png","","","appealing"
"","","","","","animation","298","2762338","0.0-298.0","1920x1080","","3866.400000035763","28.70","img/117/4.5/0.66667/bw/001.png","","","appealing"
"","","","","","animation","299","2766963","0.0-299.0","1920x1080","","4623.800000011921","90.74","img/117/5.5/1/bw/001.png","","","appealing"
"","","","","","animation","300","2779019","0.0-300.0","1920x1080","","12054.699999988079","12.04","img/117/4/2/bw/001.png","","","appealing"
"","","","","","animation","301","2782949","0.0-301.0","1920x1080","","3928.7000000476837","0.79","img/238/4.5/0.5/bw/001.png","","","appealing"
"","","","","","animation","302","2797650","0.0-302.0","1920x1080","","14699.199999988079","0","img/238/2.5/0.66667/bw/001.png","","","appealing"
"","","","","","animation","303","2801757","0.0-303.0","1920x1080","","4105.5","2.51","img/117/4/0.66667/bw/001.png","","","appealing"
"","","","","","animation","304","2805413","0.0-304.0","1920x1080","","3653.5","6","img/117/3.5/1.5/bw/001.png","","","appealing"
"","","","","","animation","305","2809218","0.0-305.0","1920x1080","","3803.899999976158","0.00","img/117/2.5/1.5/bw/001.png","","","appealing"
"","","","","","animation","306","2813924","0.0-306.0","1920x1080","","4704.300000011921","0.13","img/314/3.5/0.5/bw/001.png","","","appealing"
"","","","","","animation","307","2820530","0.0-307.0","1920x1080","","6603.700000047684","100","img/238/5.5/2/bw/001.png","","","appealing"
"","","","","","animation","308","2826847","0.0-308.0","1920x1080","","6315","95","img/117/5.5/1.5/bw/001.png","","","appealing"
"","","","","","animation","309","2834102","0.0-309.0","1920x1080","","7252.899999976158","16","img/117/4/1.5/bw/001.png","","","appealing"
"","","","","","animation","310","2837604","0.0-310.0","1920x1080","","3498.5","0","img/117/2.5/0.66667/bw/001.png","","","appealing"
"","","","","","animation","311","2841489","0.0-311.0","1920x1080","","3883.2999999523163","0","img/238/2.5/1/bw/001.png","","","appealing"
"","","","","","animation","312","2848669","0.0-312.0","1920x1080","","7177.699999988079","0","img/314/2.5/1/bw/001.png","","","appealing"
"","","","","","html-button-response","313","2876554","0.0-313.0","1920x1080","","27881.899999976158","","<div class=""intro"">You are about to view a new series of animations.<br><br></div><div class=""intro"">You will evaluate them based on a different descriptor.<br><br></div><div class=""intro"">Move the slider to indicate how <strong style=""text-transform:capitalize"">INTERESTING</strong> you find each animation.<br><br></div><div class=""intro"">0 = Least Interesting<br></div><div class=""intro"">1 = Most Interesting<br><br></div><div class=""intro"">Remember to use the <strong><em>entire range</em></strong> of the slider to make your ratings.<br></div><div class=""intro"">Please <strong><em>take your time</em></strong> and carefully consider each rating you make.<br><br></div>","0","",""
"","","","","","call-function","314","2876558","0.0-314.0","1920x1080","","","","","","",""
"","","","","","animation","315","2883983","0.0-315.0","1920x1080","","7423.300000011921","25.00","img/238/4.5/1/bw/001.png","","","interesting"
"","","","","","animation","316","2890292","0.0-316.0","1920x1080","","6307.600000023842","36.24","img/117/3.5/1.5/bw/001.png","","","interesting"
"","","","","","animation","317","2893423","0.0-317.0","1920x1080","","3128.099999964237","0.93","img/238/3.5/0.5/bw/001.png","","","interesting"
"","","","","","animation","318","2896675","0.0-318.0","1920x1080","","3249.900000035763","0.40","img/314/2.5/0.66667/bw/001.png","","","interesting"
"","","","","","animation","319","2899037","0.0-319.0","1920x1080","","2360.100000023842","8.99","img/314/4.5/0.66667/bw/001.png","","","interesting"
"","","","","","animation","320","2902972","0.0-320.0","1920x1080","","3933.199999988079","0.40","img/238/2.5/0.5/bw/001.png","","","interesting"
"","","","","","animation","321","2906480","0.0-321.0","1920x1080","","3506.400000035763","0.00","img/117/4/0.5/bw/001.png","","","interesting"
"","","","","","animation","322","2913665","0.0-322.0","1920x1080","","7183.399999976158","12","img/117/2.5/2/bw/001.png","","","interesting"
"","","","","","animation","323","2917653","0.0-323.0","1920x1080","","3985.899999976158","80.03","img/314/5.5/2/bw/001.png","","","interesting"
"","","","","","animation","324","2924308","0.0-324.0","1920x1080","","6652.800000011921","14.81","img/314/2.5/1.5/bw/001.png","","","interesting"
"","","","","","animation","325","2931525","0.0-325.0","1920x1080","","7215.300000011921","92.20","img/314/5.5/0.66667/bw/001.png","","","interesting"
"","","","","","animation","326","2939582","0.0-326.0","1920x1080","","8055.5","57.80","img/238/4/1/bw/001.png","","","interesting"
"","","","","","animation","327","2945054","0.0-327.0","1920x1080","","5470.299999952316","71.83","img/238/4.5/1.5/bw/001.png","","","interesting"
"","","","","","animation","328","2950836","0.0-328.0","1920x1080","","5779.800000011921","12.17","img/314/4/0.66667/bw/001.png","","","interesting"
"","","","","","animation","329","2953823","0.0-329.0","1920x1080","","2985.5","2.38","img/314/4/0.5/bw/001.png","","","interesting"
"","","","","","animation","330","2962064","0.0-330.0","1920x1080","","8239.5","79.50","img/238/4.5/2/bw/001.png","","","interesting"
"","","","","","animation","331","2967976","0.0-331.0","1920x1080","","5910.199999988079","27.91","img/117/4/1/bw/001.png","","","interesting"
"","","","","","animation","332","2972905","0.0-332.0","1920x1080","","4927.699999988079","56","img/238/4/1.5/bw/001.png","","","interesting"
"","","","","","animation","333","2982299","0.0-333.0","1920x1080","","9392.099999964237","39.55","img/238/3.5/1.5/bw/001.png","","","interesting"
"","","","","","animation","334","2989124","0.0-334.0","1920x1080","","6821.800000011921","100","img/238/5.5/2/bw/001.png","","","interesting"
"","","","","","animation","335","2993165","0.0-335.0","1920x1080","","4039.5","0","img/117/2.5/0.5/bw/001.png","","","interesting"
"","","","","","animation","336","2998833","0.0-336.0","1920x1080","","5666","0","img/314/4.5/0.5/bw/001.png","","","interesting"
"","","","","","animation","337","3003255","0.0-337.0","1920x1080","","4420","10.19","img/314/4.5/1/bw/001.png","","","interesting"
"","","","","","animation","338","3010498","0.0-338.0","1920x1080","","7241.700000047684","19.05","img/117/4.5/1.5/bw/001.png","","","interesting"
"","","","","","animation","339","3014634","0.0-339.0","1920x1080","","4134.600000023842","0.93","img/314/3.5/0.66667/bw/001.png","","","interesting"
"","","","","","animation","340","3020274","0.0-340.0","1920x1080","","5638.899999976158","9","img/314/4/1.5/bw/001.png","","","interesting"
"","","","","","animation","341","3024743","0.0-341.0","1920x1080","","4466.800000011921","0.13","img/314/2.5/0.5/bw/001.png","","","interesting"
"","","","","","animation","342","3034024","0.0-342.0","1920x1080","","9278.200000047684","20.24","img/117/4.5/1/bw/001.png","","","interesting"
"","","","","","animation","343","3037503","0.0-343.0","1920x1080","","3478","6.61","img/117/4.5/0.5/bw/001.png","","","interesting"
"","","","","","animation","344","3042732","0.0-344.0","1920x1080","","5226.700000047684","1","img/238/2.5/1/bw/001.png","","","interesting"
"","","","","","animation","345","3045950","0.0-345.0","1920x1080","","3216.399999976158","67.86","img/314/5.5/1/bw/001.png","","","interesting"
"","","","","","animation","346","3051574","0.0-346.0","1920x1080","","5622.600000023842","11.64","img/238/4/0.5/bw/001.png","","","interesting"
"","","","","","animation","347","3056022","0.0-347.0","1920x1080","","4446","100","img/117/5.5/1.5/bw/001.png","","","interesting"
"","","","","","animation","348","3063440","0.0-348.0","1920x1080","","7415.600000023842","14.29","img/314/3.5/1/bw/001.png","","","interesting"
"","","","","","animation","349","3067116","0.0-349.0","1920x1080","","3674.399999976158","52.25","img/314/4.5/2/bw/001.png","","","interesting"
"","","","","","animation","350","3072081","0.0-350.0","1920x1080","","4963","75.00","img/117/5.5/1/bw/001.png","","","interesting"
"","","","","","animation","351","3087622","0.0-351.0","1920x1080","","15538.800000011921","14.15","img/238/3.5/2/bw/001.png","","","interesting"
"","","","","","animation","352","3095022","0.0-352.0","1920x1080","","7398.400000035763","31.75","img/314/4.5/1.5/bw/001.png","","","interesting"
"","","","","","animation","353","3098220","0.0-353.0","1920x1080","","3196.199999988079","52.65","img/117/4/2/bw/001.png","","","interesting"
"","","","","","animation","354","3103601","0.0-354.0","1920x1080","","5376.600000023842","57.28","img/117/5.5/0.5/bw/001.png","","","interesting"
"","","","","","animation","355","3107806","0.0-355.0","1920x1080","","4204","1.72","img/238/3.5/0.66667/bw/001.png","","","interesting"
"","","","","","animation","356","3115048","0.0-356.0","1920x1080","","7240.100000023842","0","img/314/3.5/0.5/bw/001.png","","","interesting"
"","","","","","animation","357","3125116","0.0-357.0","1920x1080","","10061.899999976158","2.51","img/117/4/0.66667/bw/001.png","","","interesting"
"","","","","","animation","358","3144437","0.0-358.0","1920x1080","","19318.69999998808","0.40","img/117/4.5/0.66667/bw/001.png","","","interesting"
"","","","","","animation","359","3147565","0.0-359.0","1920x1080","","3126.399999976158","1.32","img/314/2.5/1/bw/001.png","","","interesting"
"","","","","","animation","360","3152798","0.0-360.0","1920x1080","","5230.299999952316","17.86","img/238/4/2/bw/001.png","","","interesting"
"","","","","","animation","361","3156565","0.0-361.0","1920x1080","","3766.199999988079","27.38","img/238/4.5/0.66667/bw/001.png","","","interesting"
"","","","","","animation","362","3162381","0.0-362.0","1920x1080","","5814.5","50","img/117/3.5/2/bw/001.png","","","interesting"
"","","","","","animation","363","3168958","0.0-363.0","1920x1080","","6575.799999952316","29.89","img/314/2.5/2/bw/001.png","","","interesting"
"","","","","","animation","364","3172471","0.0-364.0","1920x1080","","3511.400000035763","2.38","img/238/2.5/0.66667/bw/001.png","","","interesting"
"","","","","","animation","365","3178036","0.0-365.0","1920x1080","","5563.300000011921","13.23","img/238/2.5/1.5/bw/001.png","","","interesting"
"","","","","","animation","366","3184071","0.0-366.0","1920x1080","","6031.100000023842","100","img/238/5.5/1.5/bw/001.png","","","interesting"
"","","","","","animation","367","3189435","0.0-367.0","1920x1080","","5362.800000011921","0.40","img/117/2.5/0.66667/bw/001.png","","","interesting"
"","","","","","animation","368","3195940","0.0-368.0","1920x1080","","6502.800000011921","100.53","img/314/5.5/1.5/bw/001.png","","","interesting"
"","","","","","animation","369","3205218","0.0-369.0","1920x1080","","9275.299999952316","36.77","img/314/4/1/bw/001.png","","","interesting"
"","","","","","animation","370","3209418","0.0-370.0","1920x1080","","4198.100000023842","64","img/117/4.5/2/bw/001.png","","","interesting"
"","","","","","animation","371","3212886","0.0-371.0","1920x1080","","3463.800000011921","0","img/117/2.5/1/bw/001.png","","","interesting"
"","","","","","animation","372","3216302","0.0-372.0","1920x1080","","3413.399999976158","0.53","img/117/3.5/0.5/bw/001.png","","","interesting"
"","","","","","animation","373","3222575","0.0-373.0","1920x1080","","6271.5","9.13","img/314/3.5/1.5/bw/001.png","","","interesting"
"","","","","","animation","374","3229398","0.0-374.0","1920x1080","","6821.300000011921","100","img/117/5.5/2/bw/001.png","","","interesting"
"","","","","","animation","375","3240308","0.0-375.0","1920x1080","","10907.100000023842","4","img/238/4.5/0.5/bw/001.png","","","interesting"
"","","","","","animation","376","3243832","0.0-376.0","1920x1080","","3521.7000000476837","54.89","img/314/5.5/0.5/bw/001.png","","","interesting"
"","","","","","animation","377","3247453","0.0-377.0","1920x1080","","3619.899999976158","78.44","img/238/5.5/1/bw/001.png","","","interesting"
"","","","","","animation","378","3252815","0.0-378.0","1920x1080","","5359.900000035763","0.53","img/117/2.5/1.5/bw/001.png","","","interesting"
"","","","","","animation","379","3258250","0.0-379.0","1920x1080","","5433.099999964237","95","img/238/5.5/0.66667/bw/001.png","","","interesting"
"","","","","","animation","380","3270886","0.0-380.0","1920x1080","","12634","4.23","img/117/4/1.5/bw/001.png","","","interesting"
"","","","","","animation","381","3277766","0.0-381.0","1920x1080","","6878","0","img/238/3.5/1/bw/001.png","","","interesting"
"","","","","","animation","382","3281682","0.0-382.0","1920x1080","","3914.199999988079","0.13","img/117/3.5/0.66667/bw/001.png","","","interesting"
"","","","","","animation","383","3288942","0.0-383.0","1920x1080","","7258.199999988079","8.07","img/314/4/2/bw/001.png","","","interesting"
"","","","","","animation","384","3298592","0.0-384.0","1920x1080","","9648.600000023842","76.85","img/238/5.5/0.5/bw/001.png","","","interesting"
"","","","","","animation","385","3303975","0.0-385.0","1920x1080","","5381.599999964237","65.74","img/117/5.5/0.66667/bw/001.png","","","interesting"
"","","","","","animation","386","3308888","0.0-386.0","1920x1080","","4911.399999976158","13.23","img/238/4/0.66667/bw/001.png","","","interesting"
"","","","","","animation","387","3314879","0.0-387.0","1920x1080","","5972.899999976158","28.70","img/314/3.5/2/bw/001.png","","","interesting"
"","","","","","animation","388","3318522","0.0-388.0","1920x1080","","3641.2999999523163","0.00","img/238/2.5/2/bw/001.png","","","interesting"
"","","","","","animation","389","3322425","0.0-389.0","1920x1080","","3900.199999988079","1.19","img/117/3.5/1/bw/001.png","","","interesting"
"","","","","","html-button-response","390","3346651","0.0-390.0","1920x1080","","24224.30000001192","","<strong>Study Debriefing</strong><br><p class=""debrief""><strong>Background:</strong> The patterns you rated are called <em>fractals</em>. The term fractal describes a class of irregular curves or shapes for which any suitably chosen part is similar in shape to a given larger or smaller part when magnified or reduced to the same size. Fractal properties are found throughout the natural and manmade world. The series of animations you saw today displayed animated fractal patterns of a varying complexity.</p><p class=""debrief""><strong>Purpose of this study:</strong> We hope to better understand how the perception of static fractals differs from the perception of animated fractals, and how the speed of the animated patterns influences people&apos;s perception of them. Fractals allow us to study the perception of aesthetic properties (e.g. the perceived level of beauty in an image) without using recognizable content, which makes them an excellent tool for studying abstract aesthetic judgement.</p><p class=""debrief""><strong>Your part:</strong> Your participation has helped us to further understand how humans perceive these patterns across different levels of speed and complexity. This research with allow us to better understand how the visual system and brain process our ever-changing visual environments.<p class=""debrief""><strong>Feedback and Further information:</strong> If you have additional questions about this study, please feel free to ask the researcher, Nathan Gonzales-Hess at nhess @ uoregon.edu. If you have any questions concerning your rights as a research participant, please contact Research Compliance Services, 5237 University of Oregon, Eugene, OR 97403, 541-346-2510, or email researchCompliance @ uoregon.edu. You can also email the Human Subjects Coordinator for psychology and linguistics research at hscoord @ uoregon.edu. ","0","",""
"","","","","","html-button-response","391","3349970","0.0-391.0","1920x1080","","3314.199999988079","","Thank you for participating in this study. <br>Please click below to finish the experiment and submit your responses.<br><br>","0","",""
"true","","","","","fullscreen","392","3350981","0.0-392.0","1920x1080","13:37 26/5/2022","","","","","",""
