"success","timeout","failed_images","failed_audio","failed_video","trial_type","trial_index","time_elapsed","internal_node_id","resolution","timeStamp","rt","response","stimulus","button_pressed","value","descriptor"
"true","false","[]","[]","[]","preload","0","5941","0.0-0.0","1920x1080","","","","","","",""
"true","false","[]","[]","[]","preload","1","12063","0.0-1.0","1920x1080","","","","","","",""
"true","false","[]","[]","[]","preload","2","18308","0.0-2.0","1920x1080","","","","","","",""
"true","","","","","fullscreen","3","24233","0.0-3.0","1920x1080","11:56 14/10/2022","","","","","",""
"","","","","","survey-html-form","4","36503","0.0-4.0","1920x1080","","12267.5","{""age"":""19"",""gender"":""female""}","","","",""
"","","","","","html-button-response","5","110502","0.0-5.0","1920x1080","","73998.90000000596","","<div class=""complex"">You are going to see a series of animations.<br><br></div><div class=""complex"">Move the slider to indicate how <strong style=""text-transform:capitalize"">COMPLEX</strong> you find each animation.<br><br></div><div class=""complex"">0 = Least Complex<br></div><div class=""complex"">1 = Most Complex<br><br></div><div class=""complex"">Remember to use the <strong><em>entire range</em></strong> of the slider to make your ratings.<br></div><div class=""complex"">Please <strong><em>take your time</em></strong> and carefully consider each rating you make.<br><br></div><div class=""complex"">The study has five sections and will take about 45 minutes to complete.<br><br></div>","0","",""
"","","","","","call-function","6","110502","0.0-6.0","1920x1080","","","","","","",""
"","","","","","animation","7","128037","0.0-7.0","1920x1080","","17533.10000000894","10.98","img/314/4/0.66667/bw/001.png","","","complex"
"","","","","","animation","8","158701","0.0-8.0","1920x1080","","30663","7.41","img/117/5.5/0.5/bw/001.png","","","complex"
"","","","","","animation","9","172668","0.0-9.0","1920x1080","","13967","15.21","img/238/4.5/1/bw/001.png","","","complex"
"","","","","","animation","10","181452","0.0-10.0","1920x1080","","8783.20000000298","27.91","img/314/4/1/bw/001.png","","","complex"
"","","","","","animation","11","187093","0.0-11.0","1920x1080","","5639.4000000059605","34.79","img/238/3.5/2/bw/001.png","","","complex"
"","","","","","animation","12","193077","0.0-12.0","1920x1080","","5983.300000011921","2.78","img/238/5.5/2/bw/001.png","","","complex"
"","","","","","animation","13","197509","0.0-13.0","1920x1080","","4431.4000000059605","77.38","img/314/2.5/1/bw/001.png","","","complex"
"","","","","","animation","14","206093","0.0-14.0","1920x1080","","8583.29999999702","50.66","img/314/4.5/1/bw/001.png","","","complex"
"","","","","","animation","15","212036","0.0-15.0","1920x1080","","5942.79999999702","82.67","img/314/2.5/0.5/bw/001.png","","","complex"
"","","","","","animation","16","223413","0.0-16.0","1920x1080","","11375.89999999106","38.89","img/238/4.5/0.66667/bw/001.png","","","complex"
"","","","","","animation","17","229570","0.0-17.0","1920x1080","","6158.399999991059","59.52","img/314/4.5/0.5/bw/001.png","","","complex"
"","","","","","animation","18","238610","0.0-18.0","1920x1080","","9040.10000000894","83.60","img/314/2.5/0.66667/bw/001.png","","","complex"
"","","","","","animation","19","243697","0.0-19.0","1920x1080","","5085.899999991059","44.18","img/117/4.5/2/bw/001.png","","","complex"
"","","","","","animation","20","247113","0.0-20.0","1920x1080","","3415.4000000059605","62.96","img/238/4/1/bw/001.png","","","complex"
"","","","","","animation","21","262761","0.0-21.0","1920x1080","","15646.90000000596","22","img/238/4.5/2/bw/001.png","","","complex"
"","","","","","animation","22","271106","0.0-22.0","1920x1080","","8344","3.31","img/314/5.5/1.5/bw/001.png","","","complex"
"","","","","","animation","23","279737","0.0-23.0","1920x1080","","8631","46.43","img/238/4/1.5/bw/001.png","","","complex"
"","","","","","animation","24","288449","0.0-24.0","1920x1080","","8711.10000000894","11.77","img/117/5.5/0.66667/bw/001.png","","","complex"
"","","","","","animation","25","296435","0.0-25.0","1920x1080","","7983.100000008941","52.12","img/117/4/2/bw/001.png","","","complex"
"","","","","","animation","26","305123","0.0-26.0","1920x1080","","8687.40000000596","6.48","img/238/5.5/0.5/bw/001.png","","","complex"
"","","","","","animation","27","314347","0.0-27.0","1920x1080","","9222.70000000298","2.78","img/117/5.5/1.5/bw/001.png","","","complex"
"","","","","","animation","28","318099","0.0-28.0","1920x1080","","3750.8999999910593","89.42","img/117/2.5/0.66667/bw/001.png","","","complex"
"","","","","","animation","29","323851","0.0-29.0","1920x1080","","5751.29999999702","69.31","img/238/3.5/1/bw/001.png","","","complex"
"","","","","","animation","30","329835","0.0-30.0","1920x1080","","5983.4000000059605","68.78","img/117/4/0.5/bw/001.png","","","complex"
"","","","","","animation","31","334739","0.0-31.0","1920x1080","","4903.300000011921","93.78","img/238/2.5/1/bw/001.png","","","complex"
"","","","","","animation","32","342499","0.0-32.0","1920x1080","","7759.20000000298","69.44","img/238/4/0.5/bw/001.png","","","complex"
"","","","","","animation","33","346283","0.0-33.0","1920x1080","","3783","97","img/117/2.5/2/bw/001.png","","","complex"
"","","","","","animation","34","356754","0.0-34.0","1920x1080","","10471.39999999106","8.73","img/314/5.5/1/bw/001.png","","","complex"
"","","","","","animation","35","363698","0.0-35.0","1920x1080","","6943.0999999940395","46.16","img/117/4/1/bw/001.png","","","complex"
"","","","","","animation","36","370674","0.0-36.0","1920x1080","","6975.5999999940395","53.84","img/314/4/1.5/bw/001.png","","","complex"
"","","","","","animation","37","379179","0.0-37.0","1920x1080","","8503.70000000298","73","img/117/2.5/0.5/bw/001.png","","","complex"
"","","","","","animation","38","391379","0.0-38.0","1920x1080","","12199.29999999702","67.06","img/314/3.5/2/bw/001.png","","","complex"
"","","","","","animation","39","395346","0.0-39.0","1920x1080","","3965.7999999970198","85.85","img/314/2.5/1.5/bw/001.png","","","complex"
"","","","","","animation","40","404802","0.0-40.0","1920x1080","","9455.29999999702","35.58","img/314/4.5/0.66667/bw/001.png","","","complex"
"","","","","","animation","41","411257","0.0-41.0","1920x1080","","6455.399999991059","27","img/238/4.5/1.5/bw/001.png","","","complex"
"","","","","","animation","42","419441","0.0-42.0","1920x1080","","8183","1.72","img/314/5.5/2/bw/001.png","","","complex"
"","","","","","animation","43","430033","0.0-43.0","1920x1080","","10590.59999999404","6.22","img/238/5.5/1/bw/001.png","","","complex"
"","","","","","animation","44","440993","0.0-44.0","1920x1080","","10958.5","53.97","img/117/4/0.66667/bw/001.png","","","complex"
"","","","","","animation","45","447361","0.0-45.0","1920x1080","","6367.600000008941","58.33","img/314/3.5/1/bw/001.png","","","complex"
"","","","","","animation","46","456312","0.0-46.0","1920x1080","","8949.79999999702","41.53","img/314/4.5/1.5/bw/001.png","","","complex"
"","","","","","animation","47","460409","0.0-47.0","1920x1080","","4096.20000000298","88.36","img/238/2.5/2/bw/001.png","","","complex"
"","","","","","animation","48","463410","0.0-48.0","1920x1080","","2999.800000011921","96","img/117/2.5/1/bw/001.png","","","complex"
"","","","","","animation","49","468194","0.0-49.0","1920x1080","","4783.100000008941","67.06","img/238/4/0.66667/bw/001.png","","","complex"
"","","","","","animation","50","471992","0.0-50.0","1920x1080","","3798.5","78.17","img/117/2.5/1.5/bw/001.png","","","complex"
"","","","","","animation","51","481744","0.0-51.0","1920x1080","","9750.40000000596","13.36","img/314/5.5/0.5/bw/001.png","","","complex"
"","","","","","animation","52","488543","0.0-52.0","1920x1080","","6798.29999999702","68.12","img/238/3.5/0.5/bw/001.png","","","complex"
"","","","","","animation","53","495183","0.0-53.0","1920x1080","","6638.29999999702","64.02","img/314/4/0.5/bw/001.png","","","complex"
"","","","","","animation","54","502303","0.0-54.0","1920x1080","","7119.20000000298","56.35","img/117/4.5/1/bw/001.png","","","complex"
"","","","","","animation","55","509127","0.0-55.0","1920x1080","","6822.0999999940395","67.59","img/238/3.5/0.66667/bw/001.png","","","complex"
"","","","","","animation","56","515655","0.0-56.0","1920x1080","","6526.79999999702","61.64","img/314/4/2/bw/001.png","","","complex"
"","","","","","animation","57","523959","0.0-57.0","1920x1080","","8302.40000000596","76.59","img/238/2.5/0.5/bw/001.png","","","complex"
"","","","","","animation","58","529667","0.0-58.0","1920x1080","","5711.5999999940395","62.43","img/117/4/1.5/bw/001.png","","","complex"
"","","","","","animation","59","537851","0.0-59.0","1920x1080","","8182.899999991059","65.74","img/117/4.5/0.66667/bw/001.png","","","complex"
"","","","","","animation","60","543189","0.0-60.0","1920x1080","","5336.20000000298","75.40","img/117/3.5/1.5/bw/001.png","","","complex"
"","","","","","animation","61","551739","0.0-61.0","1920x1080","","8548.800000011921","57","img/117/4.5/1.5/bw/001.png","","","complex"
"","","","","","animation","62","557067","0.0-62.0","1920x1080","","5327.899999991059","68.78","img/314/3.5/1.5/bw/001.png","","","complex"
"","","","","","animation","63","562515","0.0-63.0","1920x1080","","5447.0999999940395","73.28","img/314/3.5/0.66667/bw/001.png","","","complex"
"","","","","","animation","64","574356","0.0-64.0","1920x1080","","11839.70000000298","16.40","img/238/5.5/0.66667/bw/001.png","","","complex"
"","","","","","animation","65","578707","0.0-65.0","1920x1080","","4349.899999991059","87.17","img/238/2.5/0.66667/bw/001.png","","","complex"
"","","","","","animation","66","586531","0.0-66.0","1920x1080","","7820.9000000059605","12.17","img/117/5.5/2/bw/001.png","","","complex"
"","","","","","animation","67","592727","0.0-67.0","1920x1080","","6190","6.22","img/314/5.5/0.66667/bw/001.png","","","complex"
"","","","","","animation","68","607520","0.0-68.0","1920x1080","","14791.20000000298","52","img/117/3.5/0.5/bw/001.png","","","complex"
"","","","","","animation","69","614231","0.0-69.0","1920x1080","","6710.70000000298","44","img/238/4/2/bw/001.png","","","complex"
"","","","","","animation","70","622583","0.0-70.0","1920x1080","","8350.90000000596","19.97","img/117/5.5/1/bw/001.png","","","complex"
"","","","","","animation","71","631463","0.0-71.0","1920x1080","","8879","40.34","img/238/4.5/0.5/bw/001.png","","","complex"
"","","","","","animation","72","636751","0.0-72.0","1920x1080","","5287.300000011921","46.30","img/117/4.5/0.5/bw/001.png","","","complex"
"","","","","","animation","73","640895","0.0-73.0","1920x1080","","4142.79999999702","87.96","img/238/2.5/1.5/bw/001.png","","","complex"
"","","","","","animation","74","645935","0.0-74.0","1920x1080","","5039.20000000298","95","img/314/2.5/2/bw/001.png","","","complex"
"","","","","","animation","75","652390","0.0-75.0","1920x1080","","6456.5999999940395","73.02","img/117/3.5/1/bw/001.png","","","complex"
"","","","","","animation","76","655733","0.0-76.0","1920x1080","","3341.7999999970198","78.04","img/117/3.5/0.66667/bw/001.png","","","complex"
"","","","","","animation","77","671813","0.0-77.0","1920x1080","","16078.79999999702","13","img/238/5.5/1.5/bw/001.png","","","complex"
"","","","","","animation","78","679456","0.0-78.0","1920x1080","","7642.20000000298","15.08","img/314/4.5/2/bw/001.png","","","complex"
"","","","","","animation","79","686525","0.0-79.0","1920x1080","","7067.5","55.29","img/314/3.5/0.5/bw/001.png","","","complex"
"","","","","","animation","80","691390","0.0-80.0","1920x1080","","4863.5999999940395","60.05","img/117/3.5/2/bw/001.png","","","complex"
"","","","","","animation","81","696117","0.0-81.0","1920x1080","","4725.800000011921","64.95","img/238/3.5/1.5/bw/001.png","","","complex"
"","","","","","html-button-response","82","748556","0.0-82.0","1920x1080","","52430.70000000298","","<div class=""intro"">You are about to view a new series of animations.<br><br></div><div class=""intro"">You will evaluate them based on a different descriptor.<br><br></div><div class=""intro"">Move the slider to indicate how <strong style=""text-transform:capitalize"">RELAXING</strong> you find each animation.<br><br></div><div class=""intro"">0 = Least Relaxing<br></div><div class=""intro"">1 = Most Relaxing<br><br></div><div class=""intro"">Remember to use the <strong><em>entire range</em></strong> of the slider to make your ratings.<br></div><div class=""intro"">Please <strong><em>take your time</em></strong> and carefully consider each rating you make.<br><br></div>","0","",""
"","","","","","call-function","83","748562","0.0-83.0","1920x1080","","","","","","",""
"","","","","","animation","84","755596","0.0-84.0","1920x1080","","7033.29999999702","4.10","img/314/2.5/0.5/bw/001.png","","","relaxing"
"","","","","","animation","85","763430","0.0-85.0","1920x1080","","7833.0999999940395","17.86","img/117/4.5/0.5/bw/001.png","","","relaxing"
"","","","","","animation","86","772844","0.0-86.0","1920x1080","","9415.29999999702","44.84","img/314/3.5/1.5/bw/001.png","","","relaxing"
"","","","","","animation","87","779921","0.0-87.0","1920x1080","","7074.5999999940395","46.30","img/117/5.5/0.5/bw/001.png","","","relaxing"
"","","","","","animation","88","784227","0.0-88.0","1920x1080","","4305.20000000298","39.42","img/238/4/2/bw/001.png","","","relaxing"
"","","","","","animation","89","788712","0.0-89.0","1920x1080","","4484","29.10","img/314/4.5/0.66667/bw/001.png","","","relaxing"
"","","","","","animation","90","799345","0.0-90.0","1920x1080","","10631.79999999702","35","img/238/4.5/1/bw/001.png","","","relaxing"
"","","","","","animation","91","808601","0.0-91.0","1920x1080","","9253.90000000596","48.28","img/314/4.5/1/bw/001.png","","","relaxing"
"","","","","","animation","92","819410","0.0-92.0","1920x1080","","10808.79999999702","67.46","img/238/5.5/0.5/bw/001.png","","","relaxing"
"","","","","","animation","93","827544","0.0-93.0","1920x1080","","8132.399999991059","72.22","img/314/4.5/2/bw/001.png","","","relaxing"
"","","","","","animation","94","838062","0.0-94.0","1920x1080","","10518.70000000298","65.21","img/117/5.5/1/bw/001.png","","","relaxing"
"","","","","","animation","95","847409","0.0-95.0","1920x1080","","9346","48.28","img/238/4/1.5/bw/001.png","","","relaxing"
"","","","","","animation","96","859062","0.0-96.0","1920x1080","","11651.39999999106","92","img/238/5.5/1.5/bw/001.png","","","relaxing"
"","","","","","animation","97","862726","0.0-97.0","1920x1080","","3662.3999999910593","21.43","img/314/4/0.66667/bw/001.png","","","relaxing"
"","","","","","animation","98","867094","0.0-98.0","1920x1080","","4366.899999991059","10.98","img/238/3.5/1/bw/001.png","","","relaxing"
"","","","","","animation","99","870726","0.0-99.0","1920x1080","","3631.0999999940395","2.12","img/117/3.5/0.66667/bw/001.png","","","relaxing"
"","","","","","animation","100","874735","0.0-100.0","1920x1080","","4006.800000011921","20.63","img/117/4.5/0.66667/bw/001.png","","","relaxing"
"","","","","","animation","101","886903","0.0-101.0","1920x1080","","12167","58","img/238/5.5/0.66667/bw/001.png","","","relaxing"
"","","","","","animation","102","893971","0.0-102.0","1920x1080","","7062.5999999940395","46.30","img/117/4.5/1/bw/001.png","","","relaxing"
"","","","","","animation","103","897219","0.0-103.0","1920x1080","","3246.6000000089407","24.87","img/117/3.5/1.5/bw/001.png","","","relaxing"
"","","","","","animation","104","906107","0.0-104.0","1920x1080","","8886.5","40.74","img/238/4.5/2/bw/001.png","","","relaxing"
"","","","","","animation","105","913164","0.0-105.0","1920x1080","","7054.79999999702","91.53","img/314/5.5/1.5/bw/001.png","","","relaxing"
"","","","","","animation","106","929587","0.0-106.0","1920x1080","","16422.10000000894","66.27","img/117/5.5/0.66667/bw/001.png","","","relaxing"
"","","","","","animation","107","935063","0.0-107.0","1920x1080","","5474.5","14.15","img/314/3.5/1/bw/001.png","","","relaxing"
"","","","","","animation","108","940347","0.0-108.0","1920x1080","","5282.600000008941","0.40","img/314/2.5/1.5/bw/001.png","","","relaxing"
"","","","","","animation","109","950078","0.0-109.0","1920x1080","","9731.20000000298","18","img/117/3.5/2/bw/001.png","","","relaxing"
"","","","","","animation","110","956234","0.0-110.0","1920x1080","","6154.800000011921","28.84","img/238/4.5/1.5/bw/001.png","","","relaxing"
"","","","","","animation","111","960370","0.0-111.0","1920x1080","","4134.9000000059605","15.74","img/238/4/0.66667/bw/001.png","","","relaxing"
"","","","","","animation","112","966065","0.0-112.0","1920x1080","","5694.5999999940395","1.32","img/117/2.5/1.5/bw/001.png","","","relaxing"
"","","","","","animation","113","971785","0.0-113.0","1920x1080","","5718.399999991059","2.91","img/314/3.5/0.66667/bw/001.png","","","relaxing"
"","","","","","animation","114","976418","0.0-114.0","1920x1080","","4630.9000000059605","8.99","img/314/4.5/0.5/bw/001.png","","","relaxing"
"","","","","","animation","115","982434","0.0-115.0","1920x1080","","6014","11.38","img/117/4/2/bw/001.png","","","relaxing"
"","","","","","animation","116","986478","0.0-116.0","1920x1080","","4042.800000011921","0.53","img/314/2.5/1/bw/001.png","","","relaxing"
"","","","","","animation","117","994506","0.0-117.0","1920x1080","","8027.29999999702","28.97","img/314/4/1.5/bw/001.png","","","relaxing"
"","","","","","animation","118","999259","0.0-118.0","1920x1080","","4752.399999991059","17.99","img/117/4/0.5/bw/001.png","","","relaxing"
"","","","","","animation","119","1008449","0.0-119.0","1920x1080","","9188.5","13.62","img/238/4.5/0.5/bw/001.png","","","relaxing"
"","","","","","animation","120","1017068","0.0-120.0","1920x1080","","8615.20000000298","84","img/314/5.5/2/bw/001.png","","","relaxing"
"","","","","","animation","121","1023197","0.0-121.0","1920x1080","","6127.5999999940395","44.84","img/117/4/1.5/bw/001.png","","","relaxing"
"","","","","","animation","122","1036124","0.0-122.0","1920x1080","","12925.40000000596","79.63","img/238/5.5/1/bw/001.png","","","relaxing"
"","","","","","animation","123","1040308","0.0-123.0","1920x1080","","4181.20000000298","2.91","img/117/2.5/0.66667/bw/001.png","","","relaxing"
"","","","","","animation","124","1047508","0.0-124.0","1920x1080","","7198.5","18.65","img/314/3.5/2/bw/001.png","","","relaxing"
"","","","","","animation","125","1063497","0.0-125.0","1920x1080","","15988.20000000298","34.26","img/314/4.5/1.5/bw/001.png","","","relaxing"
"","","","","","animation","126","1067051","0.0-126.0","1920x1080","","3553.6000000089407","16.67","img/238/4/0.5/bw/001.png","","","relaxing"
"","","","","","animation","127","1083712","0.0-127.0","1920x1080","","16662.20000000298","80.03","img/314/5.5/1/bw/001.png","","","relaxing"
"","","","","","animation","128","1096304","0.0-128.0","1920x1080","","12590.89999999106","52","img/238/3.5/2/bw/001.png","","","relaxing"
"","","","","","animation","129","1105232","0.0-129.0","1920x1080","","8926.79999999702","48.54","img/238/3.5/1.5/bw/001.png","","","relaxing"
"","","","","","animation","130","1125144","0.0-130.0","1920x1080","","19909","31","img/314/2.5/2/bw/001.png","","","relaxing"
"","","","","","animation","131","1135512","0.0-131.0","1920x1080","","10362.09999999404","89.68","img/238/5.5/2/bw/001.png","","","relaxing"
"","","","","","animation","132","1141913","0.0-132.0","1920x1080","","6400","9.26","img/314/3.5/0.5/bw/001.png","","","relaxing"
"","","","","","animation","133","1148645","0.0-133.0","1920x1080","","6730.79999999702","6","img/314/4/0.5/bw/001.png","","","relaxing"
"","","","","","animation","134","1156229","0.0-134.0","1920x1080","","7582.100000008941","11.64","img/238/4/1/bw/001.png","","","relaxing"
"","","","","","animation","135","1161540","0.0-135.0","1920x1080","","5309.29999999702","0.53","img/238/2.5/0.66667/bw/001.png","","","relaxing"
"","","","","","animation","136","1165531","0.0-136.0","1920x1080","","3990.5","5","img/117/4/0.66667/bw/001.png","","","relaxing"
"","","","","","animation","137","1174556","0.0-137.0","1920x1080","","9023.20000000298","18.39","img/117/2.5/2/bw/001.png","","","relaxing"
"","","","","","animation","138","1186379","0.0-138.0","1920x1080","","11821.40000000596","45","img/238/2.5/2/bw/001.png","","","relaxing"
"","","","","","animation","139","1191451","0.0-139.0","1920x1080","","5070.800000011921","22.35","img/238/2.5/1.5/bw/001.png","","","relaxing"
"","","","","","animation","140","1202914","0.0-140.0","1920x1080","","11462.09999999404","69.44","img/314/5.5/0.66667/bw/001.png","","","relaxing"
"","","","","","animation","141","1214829","0.0-141.0","1920x1080","","11912.39999999106","61.24","img/117/4.5/1.5/bw/001.png","","","relaxing"
"","","","","","animation","142","1221419","0.0-142.0","1920x1080","","6589","47.75","img/117/4/1/bw/001.png","","","relaxing"
"","","","","","animation","143","1229445","0.0-143.0","1920x1080","","8024.79999999702","0","img/117/2.5/0.5/bw/001.png","","","relaxing"
"","","","","","animation","144","1234267","0.0-144.0","1920x1080","","4820.5999999940395","4.37","img/238/2.5/1/bw/001.png","","","relaxing"
"","","","","","animation","145","1239835","0.0-145.0","1920x1080","","5567","7","img/238/4.5/0.66667/bw/001.png","","","relaxing"
"","","","","","animation","146","1245878","0.0-146.0","1920x1080","","6042.20000000298","8.20","img/314/5.5/0.5/bw/001.png","","","relaxing"
"","","","","","animation","147","1253698","0.0-147.0","1920x1080","","7819.20000000298","38.36","img/314/4/2/bw/001.png","","","relaxing"
"","","","","","animation","148","1260461","0.0-148.0","1920x1080","","6761.4000000059605","30.82","img/314/4/1/bw/001.png","","","relaxing"
"","","","","","animation","149","1267539","0.0-149.0","1920x1080","","7076.800000011921","11.24","img/117/3.5/0.5/bw/001.png","","","relaxing"
"","","","","","animation","150","1278571","0.0-150.0","1920x1080","","11030.5","66.67","img/117/5.5/1.5/bw/001.png","","","relaxing"
"","","","","","animation","151","1284666","0.0-151.0","1920x1080","","6094.199999988079","8.07","img/238/3.5/0.5/bw/001.png","","","relaxing"
"","","","","","animation","152","1290282","0.0-152.0","1920x1080","","5615","10.45","img/238/3.5/0.66667/bw/001.png","","","relaxing"
"","","","","","animation","153","1296146","0.0-153.0","1920x1080","","5862.600000008941","14.68","img/117/3.5/1/bw/001.png","","","relaxing"
"","","","","","animation","154","1306003","0.0-154.0","1920x1080","","9855.40000000596","93","img/117/5.5/2/bw/001.png","","","relaxing"
"","","","","","animation","155","1312898","0.0-155.0","1920x1080","","6892.79999999702","75.13","img/117/4.5/2/bw/001.png","","","relaxing"
"","","","","","animation","156","1315945","0.0-156.0","1920x1080","","3046.4000000059605","2.65","img/238/2.5/0.5/bw/001.png","","","relaxing"
"","","","","","animation","157","1319034","0.0-157.0","1920x1080","","3087.6000000089407","0.13","img/117/2.5/1/bw/001.png","","","relaxing"
"","","","","","animation","158","1322129","0.0-158.0","1920x1080","","3094.5","2.25","img/314/2.5/0.66667/bw/001.png","","","relaxing"
"","","","","","html-button-response","159","1372177","0.0-159.0","1920x1080","","50039.60000000894","","<div class=""intro"">You are about to view a new series of animations.<br><br></div><div class=""intro"">You will evaluate them based on a different descriptor.<br><br></div><div class=""intro"">Move the slider to indicate how <strong style=""text-transform:capitalize"">NATURAL</strong> you find each animation.<br><br></div><div class=""intro"">0 = Least Natural<br></div><div class=""intro"">1 = Most Natural<br><br></div><div class=""intro"">Remember to use the <strong><em>entire range</em></strong> of the slider to make your ratings.<br></div><div class=""intro"">Please <strong><em>take your time</em></strong> and carefully consider each rating you make.<br><br></div>","0","",""
"","","","","","call-function","160","1372182","0.0-160.0","1920x1080","","","","","","",""
"","","","","","animation","161","1385233","0.0-161.0","1920x1080","","13050.10000000894","69.44","img/314/4.5/0.66667/bw/001.png","","","natural"
"","","","","","animation","162","1390417","0.0-162.0","1920x1080","","5181.9000000059605","75.66","img/314/5.5/1/bw/001.png","","","natural"
"","","","","","animation","163","1396317","0.0-163.0","1920x1080","","5898.5","78.57","img/238/5.5/1/bw/001.png","","","natural"
"","","","","","animation","164","1406867","0.0-164.0","1920x1080","","10548.5","65.61","img/238/4/1/bw/001.png","","","natural"
"","","","","","animation","165","1413483","0.0-165.0","1920x1080","","6615.0999999940395","56.61","img/314/3.5/1/bw/001.png","","","natural"
"","","","","","animation","166","1420809","0.0-166.0","1920x1080","","7323.4000000059605","46.96","img/238/2.5/1/bw/001.png","","","natural"
"","","","","","animation","167","1427035","0.0-167.0","1920x1080","","6225","71.69","img/238/5.5/0.5/bw/001.png","","","natural"
"","","","","","animation","168","1434115","0.0-168.0","1920x1080","","7084.29999999702","80.56","img/117/3.5/1.5/bw/001.png","","","natural"
"","","","","","animation","169","1444229","0.0-169.0","1920x1080","","10113","77.91","img/238/5.5/2/bw/001.png","","","natural"
"","","","","","animation","170","1452052","0.0-170.0","1920x1080","","7820.5999999940395","59.79","img/314/4/0.66667/bw/001.png","","","natural"
"","","","","","animation","171","1460731","0.0-171.0","1920x1080","","8677.89999999106","69","img/117/4.5/1.5/bw/001.png","","","natural"
"","","","","","animation","172","1469163","0.0-172.0","1920x1080","","8430.20000000298","42.59","img/314/2.5/0.66667/bw/001.png","","","natural"
"","","","","","animation","173","1475779","0.0-173.0","1920x1080","","6614.29999999702","35.05","img/238/3.5/0.5/bw/001.png","","","natural"
"","","","","","animation","174","1488747","0.0-174.0","1920x1080","","12966.60000000894","65.87","img/238/4/2/bw/001.png","","","natural"
"","","","","","animation","175","1500955","0.0-175.0","1920x1080","","12206.5","69.84","img/238/4.5/2/bw/001.png","","","natural"
"","","","","","animation","176","1511562","0.0-176.0","1920x1080","","10606.09999999404","43.92","img/314/5.5/0.66667/bw/001.png","","","natural"
"","","","","","animation","177","1517883","0.0-177.0","1920x1080","","6318.9000000059605","57.94","img/238/2.5/1.5/bw/001.png","","","natural"
"","","","","","animation","178","1525067","0.0-178.0","1920x1080","","7182.70000000298","70.77","img/238/3.5/2/bw/001.png","","","natural"
"","","","","","animation","179","1531715","0.0-179.0","1920x1080","","6646.600000008941","78.84","img/117/5.5/1.5/bw/001.png","","","natural"
"","","","","","animation","180","1543203","0.0-180.0","1920x1080","","11486.70000000298","52","img/238/4.5/0.66667/bw/001.png","","","natural"
"","","","","","animation","181","1550330","0.0-181.0","1920x1080","","7125.70000000298","31.22","img/238/4/0.5/bw/001.png","","","natural"
"","","","","","animation","182","1557012","0.0-182.0","1920x1080","","6681.5","57.28","img/238/4.5/1/bw/001.png","","","natural"
"","","","","","animation","183","1572810","0.0-183.0","1920x1080","","15795.09999999404","61.77","img/117/4/2/bw/001.png","","","natural"
"","","","","","animation","184","1578944","0.0-184.0","1920x1080","","6130.0999999940395","72.88","img/117/4.5/1/bw/001.png","","","natural"
"","","","","","animation","185","1587893","0.0-185.0","1920x1080","","8948.40000000596","26.46","img/238/2.5/0.5/bw/001.png","","","natural"
"","","","","","animation","186","1593650","0.0-186.0","1920x1080","","5754.800000011921","66.53","img/117/3.5/1/bw/001.png","","","natural"
"","","","","","animation","187","1606810","0.0-187.0","1920x1080","","13158.70000000298","71.83","img/238/4/1.5/bw/001.png","","","natural"
"","","","","","animation","188","1615296","0.0-188.0","1920x1080","","8482.39999999106","23.68","img/314/2.5/0.5/bw/001.png","","","natural"
"","","","","","animation","189","1618684","0.0-189.0","1920x1080","","3387.1000000089407","25.66","img/117/4.5/0.5/bw/001.png","","","natural"
"","","","","","animation","190","1626479","0.0-190.0","1920x1080","","7794","25","img/117/3.5/0.66667/bw/001.png","","","natural"
"","","","","","animation","191","1639131","0.0-191.0","1920x1080","","12650.39999999106","43.12","img/117/4/0.5/bw/001.png","","","natural"
"","","","","","animation","192","1645972","0.0-192.0","1920x1080","","6839.4000000059605","34.13","img/238/3.5/1.5/bw/001.png","","","natural"
"","","","","","animation","193","1655468","0.0-193.0","1920x1080","","9494.59999999404","60.85","img/117/2.5/1.5/bw/001.png","","","natural"
"","","","","","animation","194","1662846","0.0-194.0","1920x1080","","7376","33.33","img/238/3.5/0.66667/bw/001.png","","","natural"
"","","","","","animation","195","1669036","0.0-195.0","1920x1080","","6189.5999999940395","37.96","img/314/5.5/0.5/bw/001.png","","","natural"
"","","","","","animation","196","1707779","0.0-196.0","1920x1080","","38742.30000001192","78.57","img/314/4.5/1/bw/001.png","","","natural"
"","","","","","animation","197","1712835","0.0-197.0","1920x1080","","5055.100000008941","55.03","img/314/3.5/0.5/bw/001.png","","","natural"
"","","","","","animation","198","1718699","0.0-198.0","1920x1080","","5862.5","83.47","img/117/3.5/2/bw/001.png","","","natural"
"","","","","","animation","199","1724099","0.0-199.0","1920x1080","","5398.20000000298","83.86","img/117/5.5/1/bw/001.png","","","natural"
"","","","","","animation","200","1731934","0.0-200.0","1920x1080","","7830.0999999940395","87.83","img/314/4.5/2/bw/001.png","","","natural"
"","","","","","animation","201","1739514","0.0-201.0","1920x1080","","7578.20000000298","74.87","img/117/4/0.66667/bw/001.png","","","natural"
"","","","","","animation","202","1743702","0.0-202.0","1920x1080","","4186.79999999702","64.95","img/314/4/0.5/bw/001.png","","","natural"
"","","","","","animation","203","1750055","0.0-203.0","1920x1080","","6350.300000011921","81.61","img/314/4.5/1.5/bw/001.png","","","natural"
"","","","","","animation","204","1756948","0.0-204.0","1920x1080","","6891.5","73.94","img/238/4.5/1.5/bw/001.png","","","natural"
"","","","","","animation","205","1761686","0.0-205.0","1920x1080","","4736.20000000298","63.89","img/117/5.5/0.5/bw/001.png","","","natural"
"","","","","","animation","206","1769822","0.0-206.0","1920x1080","","8133.70000000298","75.79","img/314/2.5/1/bw/001.png","","","natural"
"","","","","","animation","207","1775766","0.0-207.0","1920x1080","","5942.399999991059","87.83","img/117/4.5/2/bw/001.png","","","natural"
"","","","","","animation","208","1782150","0.0-208.0","1920x1080","","6381.5999999940395","57.94","img/314/4/1/bw/001.png","","","natural"
"","","","","","animation","209","1792768","0.0-209.0","1920x1080","","10613.60000000894","63.23","img/117/2.5/1/bw/001.png","","","natural"
"","","","","","animation","210","1797017","0.0-210.0","1920x1080","","4247.79999999702","49","img/117/2.5/0.66667/bw/001.png","","","natural"
"","","","","","animation","211","1803673","0.0-211.0","1920x1080","","6654.899999991059","71.30","img/314/2.5/1.5/bw/001.png","","","natural"
"","","","","","animation","212","1815169","0.0-212.0","1920x1080","","11494.40000000596","44.58","img/238/4/0.66667/bw/001.png","","","natural"
"","","","","","animation","213","1822393","0.0-213.0","1920x1080","","7223.20000000298","79.10","img/117/2.5/2/bw/001.png","","","natural"
"","","","","","animation","214","1828717","0.0-214.0","1920x1080","","6322.5","86.11","img/314/5.5/2/bw/001.png","","","natural"
"","","","","","animation","215","1843609","0.0-215.0","1920x1080","","14890.10000000894","81.75","img/117/5.5/2/bw/001.png","","","natural"
"","","","","","animation","216","1847153","0.0-216.0","1920x1080","","3541.9000000059605","22.22","img/117/2.5/0.5/bw/001.png","","","natural"
"","","","","","animation","217","1850111","0.0-217.0","1920x1080","","2950.7000000029802","28.84","img/238/2.5/0.66667/bw/001.png","","","natural"
"","","","","","animation","218","1857815","0.0-218.0","1920x1080","","7703.20000000298","40.34","img/117/5.5/0.66667/bw/001.png","","","natural"
"","","","","","animation","219","1864559","0.0-219.0","1920x1080","","6741.79999999702","25.13","img/238/4.5/0.5/bw/001.png","","","natural"
"","","","","","animation","220","1872324","0.0-220.0","1920x1080","","7763.399999991059","80.56","img/314/3.5/2/bw/001.png","","","natural"
"","","","","","animation","221","1878190","0.0-221.0","1920x1080","","5864.0999999940395","84.79","img/117/4/1.5/bw/001.png","","","natural"
"","","","","","animation","222","1887863","0.0-222.0","1920x1080","","9672.40000000596","38.49","img/117/3.5/0.5/bw/001.png","","","natural"
"","","","","","animation","223","1896431","0.0-223.0","1920x1080","","8566.800000011921","56","img/117/4.5/0.66667/bw/001.png","","","natural"
"","","","","","animation","224","1914114","0.0-224.0","1920x1080","","17678.5","67.46","img/314/4/1.5/bw/001.png","","","natural"
"","","","","","animation","225","1927009","0.0-225.0","1920x1080","","12893.800000011921","74.34","img/117/4/1/bw/001.png","","","natural"
"","","","","","animation","226","1933709","0.0-226.0","1920x1080","","6698.100000008941","34.39","img/314/4.5/0.5/bw/001.png","","","natural"
"","","","","","animation","227","1943843","0.0-227.0","1920x1080","","10132.79999999702","83.86","img/314/5.5/1.5/bw/001.png","","","natural"
"","","","","","animation","228","1949298","0.0-228.0","1920x1080","","5452.899999991059","82.28","img/314/3.5/1.5/bw/001.png","","","natural"
"","","","","","animation","229","1959942","0.0-229.0","1920x1080","","10642.40000000596","64.02","img/238/5.5/1.5/bw/001.png","","","natural"
"","","","","","animation","230","1965742","0.0-230.0","1920x1080","","5798","83.33","img/314/4/2/bw/001.png","","","natural"
"","","","","","animation","231","1975148","0.0-231.0","1920x1080","","9401.70000000298","70.50","img/238/5.5/0.66667/bw/001.png","","","natural"
"","","","","","animation","232","1982916","0.0-232.0","1920x1080","","7766","54.50","img/314/3.5/0.66667/bw/001.png","","","natural"
"","","","","","animation","233","1994436","0.0-233.0","1920x1080","","11518.59999999404","50.66","img/238/3.5/1/bw/001.png","","","natural"
"","","","","","animation","234","2004295","0.0-234.0","1920x1080","","9857.09999999404","69.05","img/238/2.5/2/bw/001.png","","","natural"
"","","","","","animation","235","2010145","0.0-235.0","1920x1080","","5849.0999999940395","66.27","img/314/2.5/2/bw/001.png","","","natural"
"","","","","","html-button-response","236","2081972","0.0-236.0","1920x1080","","71814.70000000298","","<div class=""intro"">You are about to view a new series of animations.<br><br></div><div class=""intro"">You will evaluate them based on a different descriptor.<br><br></div><div class=""intro"">Move the slider to indicate how <strong style=""text-transform:capitalize"">INTERESTING</strong> you find each animation.<br><br></div><div class=""intro"">0 = Least Interesting<br></div><div class=""intro"">1 = Most Interesting<br><br></div><div class=""intro"">Remember to use the <strong><em>entire range</em></strong> of the slider to make your ratings.<br></div><div class=""intro"">Please <strong><em>take your time</em></strong> and carefully consider each rating you make.<br><br></div>","0","",""
"","","","","","call-function","237","2081976","0.0-237.0","1920x1080","","","","","","",""
"","","","","","animation","238","2094549","0.0-238.0","1920x1080","","12581.29999999702","44.05","img/238/2.5/1/bw/001.png","","","interesting"
"","","","","","animation","239","2111565","0.0-239.0","1920x1080","","17012.79999999702","51.46","img/314/4.5/0.5/bw/001.png","","","interesting"
"","","","","","animation","240","2121462","0.0-240.0","1920x1080","","9894.90000000596","67.20","img/117/4/1/bw/001.png","","","interesting"
"","","","","","animation","241","2130133","0.0-241.0","1920x1080","","8669.59999999404","51.46","img/314/3.5/0.66667/bw/001.png","","","interesting"
"","","","","","animation","242","2139829","0.0-242.0","1920x1080","","9694.5","57.41","img/238/3.5/0.66667/bw/001.png","","","interesting"
"","","","","","animation","243","2149470","0.0-243.0","1920x1080","","9639.20000000298","69.18","img/238/3.5/1.5/bw/001.png","","","interesting"
"","","","","","animation","244","2163101","0.0-244.0","1920x1080","","13624.60000000894","37.17","img/238/3.5/0.5/bw/001.png","","","interesting"
"","","","","","animation","245","2170635","0.0-245.0","1920x1080","","7531.20000000298","49.60","img/314/4/0.66667/bw/001.png","","","interesting"
"","","","","","animation","246","2186218","0.0-246.0","1920x1080","","15581.29999999702","71.16","img/117/4/1.5/bw/001.png","","","interesting"
"","","","","","animation","247","2195523","0.0-247.0","1920x1080","","9303.59999999404","64.42","img/314/4.5/0.66667/bw/001.png","","","interesting"
"","","","","","animation","248","2205691","0.0-248.0","1920x1080","","10164.79999999702","45.11","img/314/2.5/1.5/bw/001.png","","","interesting"
"","","","","","animation","249","2239403","0.0-249.0","1920x1080","","33709.70000000298","65.21","img/117/5.5/2/bw/001.png","","","interesting"
"","","","","","animation","250","2248571","0.0-250.0","1920x1080","","9166.699999988079","58.73","img/238/4.5/0.5/bw/001.png","","","interesting"
"","","","","","animation","251","2259219","0.0-251.0","1920x1080","","10645.39999999106","57","img/314/2.5/2/bw/001.png","","","interesting"
"","","","","","animation","252","2269735","0.0-252.0","1920x1080","","10514.90000000596","69.97","img/238/2.5/0.66667/bw/001.png","","","interesting"
"","","","","","animation","253","2284519","0.0-253.0","1920x1080","","14782.20000000298","62.96","img/238/5.5/0.5/bw/001.png","","","interesting"
"","","","","","animation","254","2295435","0.0-254.0","1920x1080","","10915.10000000894","71.16","img/238/4.5/1/bw/001.png","","","interesting"
"","","","","","animation","255","2305852","0.0-255.0","1920x1080","","10415.5","71.96","img/314/3.5/2/bw/001.png","","","interesting"
"","","","","","animation","256","2312835","0.0-256.0","1920x1080","","6981.5","73.15","img/314/3.5/1/bw/001.png","","","interesting"
"","","","","","animation","257","2322435","0.0-257.0","1920x1080","","9598.39999999106","42.33","img/314/5.5/0.5/bw/001.png","","","interesting"
"","","","","","animation","258","2331719","0.0-258.0","1920x1080","","9282.39999999106","48.28","img/238/5.5/1/bw/001.png","","","interesting"
"","","","","","animation","259","2339324","0.0-259.0","1920x1080","","7603.100000008941","54.89","img/238/5.5/0.66667/bw/001.png","","","interesting"
"","","","","","animation","260","2349402","0.0-260.0","1920x1080","","10074.70000000298","58.73","img/314/5.5/2/bw/001.png","","","interesting"
"","","","","","animation","261","2358135","0.0-261.0","1920x1080","","8732.5","48.15","img/117/4/0.66667/bw/001.png","","","interesting"
"","","","","","animation","262","2372803","0.0-262.0","1920x1080","","14666.70000000298","39.42","img/314/3.5/0.5/bw/001.png","","","interesting"
"","","","","","animation","263","2379402","0.0-263.0","1920x1080","","6597","58.07","img/117/3.5/0.66667/bw/001.png","","","interesting"
"","","","","","animation","264","2386485","0.0-264.0","1920x1080","","7081.4000000059605","60.45","img/117/5.5/0.5/bw/001.png","","","interesting"
"","","","","","animation","265","2391689","0.0-265.0","1920x1080","","5199.70000000298","62.57","img/314/5.5/0.66667/bw/001.png","","","interesting"
"","","","","","animation","266","2400390","0.0-266.0","1920x1080","","8699.70000000298","68.39","img/238/4.5/0.66667/bw/001.png","","","interesting"
"","","","","","animation","267","2408479","0.0-267.0","1920x1080","","8087.100000008941","80.95","img/314/2.5/0.5/bw/001.png","","","interesting"
"","","","","","animation","268","2415622","0.0-268.0","1920x1080","","7142.20000000298","71.16","img/117/3.5/0.5/bw/001.png","","","interesting"
"","","","","","animation","269","2424554","0.0-269.0","1920x1080","","8930.89999999106","89.29","img/314/2.5/0.66667/bw/001.png","","","interesting"
"","","","","","animation","270","2432390","0.0-270.0","1920x1080","","7834.70000000298","74.60","img/314/4.5/1.5/bw/001.png","","","interesting"
"","","","","","animation","271","2444971","0.0-271.0","1920x1080","","12578.59999999404","63.49","img/117/3.5/2/bw/001.png","","","interesting"
"","","","","","animation","272","2450575","0.0-272.0","1920x1080","","5599","63.49","img/117/3.5/1.5/bw/001.png","","","interesting"
"","","","","","animation","273","2457655","0.0-273.0","1920x1080","","7078.29999999702","68.65","img/117/4.5/1.5/bw/001.png","","","interesting"
"","","","","","animation","274","2463663","0.0-274.0","1920x1080","","6006.70000000298","35.71","img/117/2.5/2/bw/001.png","","","interesting"
"","","","","","animation","275","2479239","0.0-275.0","1920x1080","","15574.29999999702","59.52","img/117/5.5/0.66667/bw/001.png","","","interesting"
"","","","","","animation","276","2488096","0.0-276.0","1920x1080","","8855.800000011921","76.85","img/238/4/1/bw/001.png","","","interesting"
"","","","","","animation","277","2494822","0.0-277.0","1920x1080","","6724.29999999702","78.57","img/314/4.5/1/bw/001.png","","","interesting"
"","","","","","animation","278","2505155","0.0-278.0","1920x1080","","10331.60000000894","64.95","img/117/5.5/1/bw/001.png","","","interesting"
"","","","","","animation","279","2515155","0.0-279.0","1920x1080","","9998.199999988079","70.63","img/117/2.5/1/bw/001.png","","","interesting"
"","","","","","animation","280","2522823","0.0-280.0","1920x1080","","7666","77.12","img/117/4.5/1/bw/001.png","","","interesting"
"","","","","","animation","281","2534339","0.0-281.0","1920x1080","","11513.70000000298","81.22","img/238/5.5/2/bw/001.png","","","interesting"
"","","","","","animation","282","2542375","0.0-282.0","1920x1080","","8034.70000000298","74.47","img/238/2.5/0.5/bw/001.png","","","interesting"
"","","","","","animation","283","2547712","0.0-283.0","1920x1080","","5334.70000000298","71.16","img/117/2.5/0.66667/bw/001.png","","","interesting"
"","","","","","animation","284","2558722","0.0-284.0","1920x1080","","11009","54.89","img/117/2.5/1.5/bw/001.png","","","interesting"
"","","","","","animation","285","2565480","0.0-285.0","1920x1080","","6756","43.12","img/314/4/1.5/bw/001.png","","","interesting"
"","","","","","animation","286","2580272","0.0-286.0","1920x1080","","14790.70000000298","83.07","img/238/4/0.66667/bw/001.png","","","interesting"
"","","","","","animation","287","2586560","0.0-287.0","1920x1080","","6286.5999999940395","88.49","img/117/2.5/0.5/bw/001.png","","","interesting"
"","","","","","animation","288","2593039","0.0-288.0","1920x1080","","6477.0999999940395","70.24","img/117/4/0.5/bw/001.png","","","interesting"
"","","","","","animation","289","2607528","0.0-289.0","1920x1080","","14488.300000011921","66.80","img/117/4.5/0.5/bw/001.png","","","interesting"
"","","","","","animation","290","2615144","0.0-290.0","1920x1080","","7614.70000000298","75.79","img/238/4.5/1.5/bw/001.png","","","interesting"
"","","","","","animation","291","2623656","0.0-291.0","1920x1080","","8509.70000000298","76.32","img/238/4/1.5/bw/001.png","","","interesting"
"","","","","","animation","292","2630470","0.0-292.0","1920x1080","","6814.5","69.58","img/117/4.5/2/bw/001.png","","","interesting"
"","","","","","animation","293","2640078","0.0-293.0","1920x1080","","9606.5","42.72","img/314/3.5/1.5/bw/001.png","","","interesting"
"","","","","","animation","294","2642487","0.0-294.0","1920x1080","","2407.3999999910593","37.17","img/238/2.5/2/bw/001.png","","","interesting"
"","","","","","animation","295","2648204","0.0-295.0","1920x1080","","5715","47.22","img/238/3.5/2/bw/001.png","","","interesting"
"","","","","","animation","296","2657439","0.0-296.0","1920x1080","","9232.70000000298","78.04","img/314/4.5/2/bw/001.png","","","interesting"
"","","","","","animation","297","2665510","0.0-297.0","1920x1080","","8069.100000008941","43","img/314/5.5/1.5/bw/001.png","","","interesting"
"","","","","","animation","298","2672520","0.0-298.0","1920x1080","","7009.0999999940395","33.33","img/238/2.5/1.5/bw/001.png","","","interesting"
"","","","","","animation","299","2703087","0.0-299.0","1920x1080","","30564.5","60.05","img/238/4.5/2/bw/001.png","","","interesting"
"","","","","","animation","300","2710005","0.0-300.0","1920x1080","","6917","62.04","img/238/4/2/bw/001.png","","","interesting"
"","","","","","animation","301","2719056","0.0-301.0","1920x1080","","9048.20000000298","63","img/238/5.5/1.5/bw/001.png","","","interesting"
"","","","","","animation","302","2726342","0.0-302.0","1920x1080","","7282.29999999702","72.35","img/238/3.5/1/bw/001.png","","","interesting"
"","","","","","animation","303","2733126","0.0-303.0","1920x1080","","6782.79999999702","73.54","img/117/3.5/1/bw/001.png","","","interesting"
"","","","","","animation","304","2746021","0.0-304.0","1920x1080","","12893.60000000894","68.78","img/117/4/2/bw/001.png","","","interesting"
"","","","","","animation","305","2756055","0.0-305.0","1920x1080","","10030.29999999702","64.95","img/314/5.5/1/bw/001.png","","","interesting"
"","","","","","animation","306","2765071","0.0-306.0","1920x1080","","9014.70000000298","58.20","img/314/2.5/1/bw/001.png","","","interesting"
"","","","","","animation","307","2773125","0.0-307.0","1920x1080","","8052.399999991059","63.62","img/314/4/1/bw/001.png","","","interesting"
"","","","","","animation","308","2783738","0.0-308.0","1920x1080","","10610.09999999404","70.11","img/117/5.5/1.5/bw/001.png","","","interesting"
"","","","","","animation","309","2791288","0.0-309.0","1920x1080","","7547.79999999702","59.13","img/238/4/0.5/bw/001.png","","","interesting"
"","","","","","animation","310","2798288","0.0-310.0","1920x1080","","6997.5","64.42","img/314/4/2/bw/001.png","","","interesting"
"","","","","","animation","311","2810085","0.0-311.0","1920x1080","","11797.89999999106","71.43","img/117/4.5/0.66667/bw/001.png","","","interesting"
"","","","","","animation","312","2820236","0.0-312.0","1920x1080","","10149.70000000298","66.14","img/314/4/0.5/bw/001.png","","","interesting"
"","","","","","html-button-response","313","2840293","0.0-313.0","1920x1080","","20054.80000001192","","<div class=""intro"">You are about to view a new series of animations.<br><br></div><div class=""intro"">You will evaluate them based on a different descriptor.<br><br></div><div class=""intro"">Move the slider to indicate how <strong style=""text-transform:capitalize"">APPEALING</strong> you find each animation.<br><br></div><div class=""intro"">0 = Least Appealing<br></div><div class=""intro"">1 = Most Appealing<br><br></div><div class=""intro"">Remember to use the <strong><em>entire range</em></strong> of the slider to make your ratings.<br></div><div class=""intro"">Please <strong><em>take your time</em></strong> and carefully consider each rating you make.<br><br></div>","0","",""
"","","","","","call-function","314","2840295","0.0-314.0","1920x1080","","","","","","",""
"","","","","","animation","315","2849469","0.0-315.0","1920x1080","","9172.59999999404","85.45","img/314/5.5/1.5/bw/001.png","","","appealing"
"","","","","","animation","316","2856419","0.0-316.0","1920x1080","","6947.600000008941","64.81","img/238/3.5/1.5/bw/001.png","","","appealing"
"","","","","","animation","317","2861220","0.0-317.0","1920x1080","","4800.20000000298","60.71","img/314/3.5/1/bw/001.png","","","appealing"
"","","","","","animation","318","2869220","0.0-318.0","1920x1080","","7998.20000000298","63.76","img/117/4.5/2/bw/001.png","","","appealing"
"","","","","","animation","319","2876226","0.0-319.0","1920x1080","","7004.100000008941","58.47","img/314/3.5/1.5/bw/001.png","","","appealing"
"","","","","","animation","320","2884524","0.0-320.0","1920x1080","","8296.300000011921","66.53","img/238/4/2/bw/001.png","","","appealing"
"","","","","","animation","321","2897468","0.0-321.0","1920x1080","","12942","67.72","img/117/3.5/2/bw/001.png","","","appealing"
"","","","","","animation","322","2904620","0.0-322.0","1920x1080","","7148.4000000059605","70.50","img/117/4.5/1.5/bw/001.png","","","appealing"
"","","","","","animation","323","2940941","0.0-323.0","1920x1080","","36318.20000000298","55.95","img/238/4/1.5/bw/001.png","","","appealing"
"","","","","","animation","324","2946757","0.0-324.0","1920x1080","","5815","52.51","img/314/4.5/1/bw/001.png","","","appealing"
"","","","","","animation","325","2954719","0.0-325.0","1920x1080","","7960.70000000298","43.92","img/238/2.5/0.5/bw/001.png","","","appealing"
"","","","","","animation","326","2962902","0.0-326.0","1920x1080","","8181.20000000298","48.02","img/117/3.5/1/bw/001.png","","","appealing"
"","","","","","animation","327","2972605","0.0-327.0","1920x1080","","9700.5","48.02","img/238/2.5/2/bw/001.png","","","appealing"
"","","","","","animation","328","2978047","0.0-328.0","1920x1080","","5440.600000008941","38.62","img/314/4/0.66667/bw/001.png","","","appealing"
"","","","","","animation","329","2984063","0.0-329.0","1920x1080","","6013.20000000298","42.99","img/314/5.5/0.5/bw/001.png","","","appealing"
"","","","","","animation","330","2992771","0.0-330.0","1920x1080","","8708.29999999702","48.02","img/238/3.5/2/bw/001.png","","","appealing"
"","","","","","animation","331","2998667","0.0-331.0","1920x1080","","5893.5","90.08","img/117/5.5/2/bw/001.png","","","appealing"
"","","","","","animation","332","3005786","0.0-332.0","1920x1080","","7118.100000008941","52.38","img/238/3.5/1/bw/001.png","","","appealing"
"","","","","","animation","333","3021416","0.0-333.0","1920x1080","","15628.29999999702","56.08","img/238/4/1/bw/001.png","","","appealing"
"","","","","","animation","334","3026618","0.0-334.0","1920x1080","","5200.5","24.87","img/117/4.5/0.5/bw/001.png","","","appealing"
"","","","","","animation","335","3034005","0.0-335.0","1920x1080","","7384.79999999702","43.12","img/117/2.5/1.5/bw/001.png","","","appealing"
"","","","","","animation","336","3038916","0.0-336.0","1920x1080","","4908.9000000059605","44.05","img/238/2.5/1.5/bw/001.png","","","appealing"
"","","","","","animation","337","3047887","0.0-337.0","1920x1080","","8969.20000000298","40.21","img/117/4.5/1/bw/001.png","","","appealing"
"","","","","","animation","338","3057240","0.0-338.0","1920x1080","","9338.5","86","img/117/5.5/1.5/bw/001.png","","","appealing"
"","","","","","animation","339","3067565","0.0-339.0","1920x1080","","10322.40000000596","76","img/238/4.5/2/bw/001.png","","","appealing"
"","","","","","animation","340","3073610","0.0-340.0","1920x1080","","6043.199999988079","46.56","img/314/4.5/0.66667/bw/001.png","","","appealing"
"","","","","","animation","341","3077010","0.0-341.0","1920x1080","","3398","42.99","img/238/4/0.66667/bw/001.png","","","appealing"
"","","","","","animation","342","3080346","0.0-342.0","1920x1080","","3334.1000000089407","21.16","img/238/3.5/0.5/bw/001.png","","","appealing"
"","","","","","animation","343","3083300","0.0-343.0","1920x1080","","2952.2000000029802","10.05","img/117/3.5/0.5/bw/001.png","","","appealing"
"","","","","","animation","344","3094369","0.0-344.0","1920x1080","","11067.29999999702","83.20","img/238/5.5/1/bw/001.png","","","appealing"
"","","","","","animation","345","3100318","0.0-345.0","1920x1080","","5946.5999999940395","79.23","img/314/3.5/2/bw/001.png","","","appealing"
"","","","","","animation","346","3113301","0.0-346.0","1920x1080","","12989.60000000894","49.07","img/238/4.5/0.5/bw/001.png","","","appealing"
"","","","","","animation","347","3154972","0.0-347.0","1920x1080","","41669.5","42.72","img/314/3.5/0.66667/bw/001.png","","","appealing"
"","","","","","animation","348","3172499","0.0-348.0","1920x1080","","17527.5","57.28","img/238/4.5/1/bw/001.png","","","appealing"
"","","","","","animation","349","3178465","0.0-349.0","1920x1080","","5965","60.58","img/117/4/1.5/bw/001.png","","","appealing"
"","","","","","animation","350","3182596","0.0-350.0","1920x1080","","4129.199999988079","31.35","img/117/4/0.66667/bw/001.png","","","appealing"
"","","","","","animation","351","3189833","0.0-351.0","1920x1080","","7235","54","img/314/4/1.5/bw/001.png","","","appealing"
"","","","","","animation","352","3194115","0.0-352.0","1920x1080","","4279.5","8","img/117/2.5/0.5/bw/001.png","","","appealing"
"","","","","","animation","353","3200226","0.0-353.0","1920x1080","","6108.699999988079","34.26","img/314/2.5/2/bw/001.png","","","appealing"
"","","","","","animation","354","3206532","0.0-354.0","1920x1080","","6304.200000017881","40.74","img/238/5.5/0.5/bw/001.png","","","appealing"
"","","","","","animation","355","3214283","0.0-355.0","1920x1080","","7749.800000011921","34.92","img/314/2.5/1.5/bw/001.png","","","appealing"
"","","","","","animation","356","3232799","0.0-356.0","1920x1080","","18503.20000001788","53.97","img/117/5.5/0.5/bw/001.png","","","appealing"
"","","","","","animation","357","3243710","0.0-357.0","1920x1080","","10909.399999976158","35","img/238/4.5/0.66667/bw/001.png","","","appealing"
"","","","","","animation","358","3250351","0.0-358.0","1920x1080","","6640.5","24.74","img/314/4.5/0.5/bw/001.png","","","appealing"
"","","","","","animation","359","3256093","0.0-359.0","1920x1080","","5740.100000023842","16","img/238/2.5/0.66667/bw/001.png","","","appealing"
"","","","","","animation","360","3264575","0.0-360.0","1920x1080","","8481","72","img/238/4.5/1.5/bw/001.png","","","appealing"
"","","","","","animation","361","3269642","0.0-361.0","1920x1080","","5064.800000011921","36.51","img/238/3.5/0.66667/bw/001.png","","","appealing"
"","","","","","animation","362","3277101","0.0-362.0","1920x1080","","7456.700000017881","71.30","img/117/2.5/1/bw/001.png","","","appealing"
"","","","","","animation","363","3307515","0.0-363.0","1920x1080","","30423.29999998212","61.38","img/117/4.5/0.66667/bw/001.png","","","appealing"
"","","","","","animation","364","3313882","0.0-364.0","1920x1080","","6365.5999999940395","55.95","img/117/5.5/1/bw/001.png","","","appealing"
"","","","","","animation","365","3318536","0.0-365.0","1920x1080","","4652.0999999940395","38.76","img/117/4/0.5/bw/001.png","","","appealing"
"","","","","","animation","366","3324470","0.0-366.0","1920x1080","","5932.800000011921","16.67","img/117/2.5/0.66667/bw/001.png","","","appealing"
"","","","","","animation","367","3328879","0.0-367.0","1920x1080","","4406.9000000059605","16.80","img/117/3.5/0.66667/bw/001.png","","","appealing"
"","","","","","animation","368","3336244","0.0-368.0","1920x1080","","7363","60","img/314/4/2/bw/001.png","","","appealing"
"","","","","","animation","369","3343287","0.0-369.0","1920x1080","","7041","87.30","img/238/5.5/1.5/bw/001.png","","","appealing"
"","","","","","animation","370","3355164","0.0-370.0","1920x1080","","11875.699999988079","91","img/314/5.5/1/bw/001.png","","","appealing"
"","","","","","animation","371","3362485","0.0-371.0","1920x1080","","7319.4000000059605","47","img/117/4/1/bw/001.png","","","appealing"
"","","","","","animation","372","3366169","0.0-372.0","1920x1080","","3682.7000000178814","4.50","img/314/2.5/0.5/bw/001.png","","","appealing"
"","","","","","animation","373","3371264","0.0-373.0","1920x1080","","5093.5999999940395","8.20","img/314/2.5/0.66667/bw/001.png","","","appealing"
"","","","","","animation","374","3380059","0.0-374.0","1920x1080","","8793","83","img/238/5.5/2/bw/001.png","","","appealing"
"","","","","","animation","375","3385706","0.0-375.0","1920x1080","","5644.4000000059605","80.29","img/314/5.5/2/bw/001.png","","","appealing"
"","","","","","animation","376","3392181","0.0-376.0","1920x1080","","6472.0999999940395","56.22","img/117/3.5/1.5/bw/001.png","","","appealing"
"","","","","","animation","377","3396364","0.0-377.0","1920x1080","","4181.5","26.06","img/238/4/0.5/bw/001.png","","","appealing"
"","","","","","animation","378","3401923","0.0-378.0","1920x1080","","5557.5","51.98","img/117/4/2/bw/001.png","","","appealing"
"","","","","","animation","379","3409995","0.0-379.0","1920x1080","","8059.300000011921","50.00","img/117/5.5/0.66667/bw/001.png","","","appealing"
"","","","","","animation","380","3427508","0.0-380.0","1920x1080","","17511.09999999404","68.12","img/314/4.5/1.5/bw/001.png","","","appealing"
"","","","","","animation","381","3431232","0.0-381.0","1920x1080","","3722.199999988079","36.64","img/314/4/0.5/bw/001.png","","","appealing"
"","","","","","animation","382","3434116","0.0-382.0","1920x1080","","2881.2999999821186","25.93","img/314/3.5/0.5/bw/001.png","","","appealing"
"","","","","","animation","383","3439641","0.0-383.0","1920x1080","","5523.4000000059605","33","img/238/2.5/1/bw/001.png","","","appealing"
"","","","","","animation","384","3447491","0.0-384.0","1920x1080","","7848.300000011921","39.29","img/314/4/1/bw/001.png","","","appealing"
"","","","","","animation","385","3456291","0.0-385.0","1920x1080","","8797.5","53","img/117/2.5/2/bw/001.png","","","appealing"
"","","","","","animation","386","3466277","0.0-386.0","1920x1080","","9984.800000011921","47.75","img/314/5.5/0.66667/bw/001.png","","","appealing"
"","","","","","animation","387","3475964","0.0-387.0","1920x1080","","9681.899999976158","85.71","img/314/4.5/2/bw/001.png","","","appealing"
"","","","","","animation","388","3482750","0.0-388.0","1920x1080","","6783.800000011921","81.88","img/238/5.5/0.66667/bw/001.png","","","appealing"
"","","","","","animation","389","3489726","0.0-389.0","1920x1080","","6973.5","66.14","img/314/2.5/1/bw/001.png","","","appealing"
"","","","","","html-button-response","390","3528380","0.0-390.0","1920x1080","","38651","","<strong>Study Debriefing</strong><br><p class=""debrief""><strong>Background:</strong> The patterns you rated are called <em>fractals</em>. The term fractal describes a class of irregular curves or shapes for which any suitably chosen part is similar in shape to a given larger or smaller part when magnified or reduced to the same size. Fractal properties are found throughout the natural and manmade world. The series of animations you saw today displayed animated fractal patterns of a varying complexity.</p><p class=""debrief""><strong>Purpose of this study:</strong> We hope to better understand how the perception of static fractals differs from the perception of animated fractals, and how the speed of the animated patterns influences people&apos;s perception of them. Fractals allow us to study the perception of aesthetic properties (e.g. the perceived level of beauty in an image) without using recognizable content, which makes them an excellent tool for studying abstract aesthetic judgement.</p><p class=""debrief""><strong>Your part:</strong> Your participation has helped us to further understand how humans perceive these patterns across different levels of speed and complexity. This research with allow us to better understand how the visual system and brain process our ever-changing visual environments.<p class=""debrief""><strong>Feedback and Further information:</strong> If you have additional questions about this study, please feel free to ask the researcher, Nathan Gonzales-Hess at nhess @ uoregon.edu. If you have any questions concerning your rights as a research participant, please contact Research Compliance Services, 5237 University of Oregon, Eugene, OR 97403, 541-346-2510, or email researchCompliance @ uoregon.edu. You can also email the Human Subjects Coordinator for psychology and linguistics research at hscoord @ uoregon.edu. ","0","",""
"","","","","","html-button-response","391","3538809","0.0-391.0","1920x1080","","10424.199999988079","","Thank you for participating in this study. <br>Please click below to finish the experiment and submit your responses.<br><br>","0","",""
"true","","","","","fullscreen","392","3539836","0.0-392.0","1920x1080","12:54 14/10/2022","","","","","",""
