"success","timeout","failed_images","failed_audio","failed_video","trial_type","trial_index","time_elapsed","internal_node_id","resolution","timeStamp","rt","response","stimulus","button_pressed","value","descriptor"
"true","false","[]","[]","[]","preload","0","6072","0.0-0.0","1920x1080","","","","","","",""
"true","false","[]","[]","[]","preload","1","12393","0.0-1.0","1920x1080","","","","","","",""
"true","false","[]","[]","[]","preload","2","18343","0.0-2.0","1920x1080","","","","","","",""
"true","","","","","fullscreen","3","274981","0.0-3.0","1920x1080","10:7 17/10/2022","","","","","",""
"","","","","","survey-html-form","4","285119","0.0-4.0","1920x1080","","10129.700000047684","{""age"":""19"",""gender"":""female""}","","","",""
"","","","","","html-button-response","5","365319","0.0-5.0","1920x1080","","80199.30000001192","","<div class=""complex"">You are going to see a series of animations.<br><br></div><div class=""complex"">Move the slider to indicate how <strong style=""text-transform:capitalize"">COMPLEX</strong> you find each animation.<br><br></div><div class=""complex"">0 = Least Complex<br></div><div class=""complex"">1 = Most Complex<br><br></div><div class=""complex"">Remember to use the <strong><em>entire range</em></strong> of the slider to make your ratings.<br></div><div class=""complex"">Please <strong><em>take your time</em></strong> and carefully consider each rating you make.<br><br></div><div class=""complex"">The study has five sections and will take about 45 minutes to complete.<br><br></div>","0","",""
"","","","","","call-function","6","365319","0.0-6.0","1920x1080","","","","","","",""
"","","","","","animation","7","399158","0.0-7.0","1920x1080","","33837.69999998808","55.82","img/117/2.5/1/bw/001.png","","","complex"
"","","","","","animation","8","484422","0.0-8.0","1920x1080","","85263.39999997616","56","img/314/2.5/1.5/bw/001.png","","","complex"
"","","","","","animation","9","515159","0.0-9.0","1920x1080","","30735.5","84","img/117/3.5/0.5/bw/001.png","","","complex"
"","","","","","animation","10","553770","0.0-10.0","1920x1080","","38614.80000001192","73","img/117/2.5/2/bw/001.png","","","complex"
"","","","","","animation","11","591674","0.0-11.0","1920x1080","","37902.89999997616","68","img/238/3.5/2/bw/001.png","","","complex"
"","","","","","animation","12","619247","0.0-12.0","1920x1080","","27567.399999976158","99","img/314/2.5/0.5/bw/001.png","","","complex"
"","","","","","animation","13","649103","0.0-13.0","1920x1080","","29854.5","30","img/314/2.5/2/bw/001.png","","","complex"
"","","","","","animation","14","690801","0.0-14.0","1920x1080","","41695.700000047684","80","img/238/5.5/1.5/bw/001.png","","","complex"
"","","","","","animation","15","715255","0.0-15.0","1920x1080","","24454.5","90","img/238/4/1/bw/001.png","","","complex"
"","","","","","animation","16","730335","0.0-16.0","1920x1080","","15078.699999988079","50.40","img/314/5.5/1.5/bw/001.png","","","complex"
"","","","","","animation","17","744055","0.0-17.0","1920x1080","","13719.299999952316","64","img/117/5.5/0.5/bw/001.png","","","complex"
"","","","","","animation","18","764376","0.0-18.0","1920x1080","","20319.599999964237","101.19","img/117/4/0.5/bw/001.png","","","complex"
"","","","","","animation","19","782390","0.0-19.0","1920x1080","","18015.100000023842","103.70","img/117/4/0.66667/bw/001.png","","","complex"
"","","","","","animation","20","798702","0.0-20.0","1920x1080","","16310.899999976158","47","img/117/2.5/1.5/bw/001.png","","","complex"
"","","","","","animation","21","825038","0.0-21.0","1920x1080","","26335.700000047684","52","img/117/5.5/0.66667/bw/001.png","","","complex"
"","","","","","animation","22","835284","0.0-22.0","1920x1080","","10247.199999988079","37.83","img/238/4.5/1.5/bw/001.png","","","complex"
"","","","","","animation","23","853573","0.0-23.0","1920x1080","","18287.399999976158","55.69","img/117/4/1/bw/001.png","","","complex"
"","","","","","animation","24","863045","0.0-24.0","1920x1080","","9471.100000023842","78.04","img/314/5.5/0.5/bw/001.png","","","complex"
"","","","","","animation","25","887285","0.0-25.0","1920x1080","","24238.700000047684","85.85","img/238/4/1.5/bw/001.png","","","complex"
"","","","","","animation","26","905243","0.0-26.0","1920x1080","","17951.100000023842","82.54","img/314/4/1.5/bw/001.png","","","complex"
"","","","","","animation","27","917867","0.0-27.0","1920x1080","","12623.5","100","img/314/3.5/1/bw/001.png","","","complex"
"","","","","","animation","28","929804","0.0-28.0","1920x1080","","11935.800000011921","34.92","img/117/4.5/2/bw/001.png","","","complex"
"","","","","","animation","29","945595","0.0-29.0","1920x1080","","15789.900000035763","49.60","img/117/4.5/1/bw/001.png","","","complex"
"","","","","","animation","30","962787","0.0-30.0","1920x1080","","17199.19999998808","100","img/117/2.5/0.66667/bw/001.png","","","complex"
"","","","","","animation","31","973803","0.0-31.0","1920x1080","","11014.699999988079","22.35","img/117/3.5/1.5/bw/001.png","","","complex"
"","","","","","animation","32","989796","0.0-32.0","1920x1080","","15992.199999988079","40.21","img/314/5.5/1/bw/001.png","","","complex"
"","","","","","animation","33","996883","0.0-33.0","1920x1080","","7085.699999988079","100","img/314/2.5/1/bw/001.png","","","complex"
"","","","","","animation","34","1011651","0.0-34.0","1920x1080","","14767","34.92","img/314/4.5/2/bw/001.png","","","complex"
"","","","","","animation","35","1022828","0.0-35.0","1920x1080","","11167.099999964237","89.15","img/117/3.5/0.66667/bw/001.png","","","complex"
"","","","","","animation","36","1035892","0.0-36.0","1920x1080","","13062.800000011921","11.90","img/117/5.5/1.5/bw/001.png","","","complex"
"","","","","","animation","37","1041980","0.0-37.0","1920x1080","","6086.300000011921","100","img/238/3.5/0.5/bw/001.png","","","complex"
"","","","","","animation","38","1057996","0.0-38.0","1920x1080","","16015.600000023842","28.70","img/238/4.5/2/bw/001.png","","","complex"
"","","","","","animation","39","1070140","0.0-39.0","1920x1080","","12142.5","80.95","img/238/4/0.66667/bw/001.png","","","complex"
"","","","","","animation","40","1087074","0.0-40.0","1920x1080","","16935","73.15","img/238/4.5/0.66667/bw/001.png","","","complex"
"","","","","","animation","41","1103530","0.0-41.0","1920x1080","","16455.200000047684","4.89","img/117/5.5/2/bw/001.png","","","complex"
"","","","","","animation","42","1117003","0.0-42.0","1920x1080","","13471","62.70","img/238/4.5/0.5/bw/001.png","","","complex"
"","","","","","animation","43","1130619","0.0-43.0","1920x1080","","13614.599999964237","79","img/314/4/1/bw/001.png","","","complex"
"","","","","","animation","44","1135177","0.0-44.0","1920x1080","","4558.900000035763","100","img/314/3.5/0.5/bw/001.png","","","complex"
"","","","","","animation","45","1142584","0.0-45.0","1920x1080","","7406","55.95","img/314/5.5/0.66667/bw/001.png","","","complex"
"","","","","","animation","46","1152904","0.0-46.0","1920x1080","","10318.900000035763","89.68","img/314/4.5/0.5/bw/001.png","","","complex"
"","","","","","animation","47","1158072","0.0-47.0","1920x1080","","5166.899999976158","100","img/238/2.5/0.66667/bw/001.png","","","complex"
"","","","","","animation","48","1164209","0.0-48.0","1920x1080","","6135.5","100","img/117/2.5/0.5/bw/001.png","","","complex"
"","","","","","animation","49","1175056","0.0-49.0","1920x1080","","10846.600000023842","81.08","img/314/4.5/1/bw/001.png","","","complex"
"","","","","","animation","50","1189617","0.0-50.0","1920x1080","","14559.599999964237","2.91","img/238/2.5/2/bw/001.png","","","complex"
"","","","","","animation","51","1218565","0.0-51.0","1920x1080","","28942.30000001192","87.17","img/117/4.5/0.5/bw/001.png","","","complex"
"","","","","","animation","52","1227757","0.0-52.0","1920x1080","","9190.699999988079","89.29","img/238/2.5/1/bw/001.png","","","complex"
"","","","","","animation","53","1237445","0.0-53.0","1920x1080","","9687.100000023842","27","img/117/4.5/1.5/bw/001.png","","","complex"
"","","","","","animation","54","1245606","0.0-54.0","1920x1080","","8159.900000035763","68.78","img/117/4.5/0.66667/bw/001.png","","","complex"
"","","","","","animation","55","1251525","0.0-55.0","1920x1080","","5918","44.31","img/117/4/1.5/bw/001.png","","","complex"
"","","","","","animation","56","1257596","0.0-56.0","1920x1080","","6071.199999988079","58.07","img/314/3.5/2/bw/001.png","","","complex"
"","","","","","animation","57","1263780","0.0-57.0","1920x1080","","6182.800000011921","79.76","img/238/4/0.5/bw/001.png","","","complex"
"","","","","","animation","58","1268396","0.0-58.0","1920x1080","","4614.399999976158","34.13","img/314/5.5/2/bw/001.png","","","complex"
"","","","","","animation","59","1271471","0.0-59.0","1920x1080","","3073.600000023842","100","img/238/3.5/0.66667/bw/001.png","","","complex"
"","","","","","animation","60","1278277","0.0-60.0","1920x1080","","6805","83.33","img/238/4.5/1/bw/001.png","","","complex"
"","","","","","animation","61","1285092","0.0-61.0","1920x1080","","6813.600000023842","55.42","img/238/5.5/0.66667/bw/001.png","","","complex"
"","","","","","animation","62","1290180","0.0-62.0","1920x1080","","5087.199999988079","57.14","img/238/5.5/1/bw/001.png","","","complex"
"","","","","","animation","63","1294796","0.0-63.0","1920x1080","","4614.900000035763","64.42","img/314/4/2/bw/001.png","","","complex"
"","","","","","animation","64","1300892","0.0-64.0","1920x1080","","6095.299999952316","71.16","img/314/4.5/0.66667/bw/001.png","","","complex"
"","","","","","animation","65","1307988","0.0-65.0","1920x1080","","7093.899999976158","42.59","img/314/3.5/1.5/bw/001.png","","","complex"
"","","","","","animation","66","1315261","0.0-66.0","1920x1080","","7271.300000011921","43.52","img/238/4/2/bw/001.png","","","complex"
"","","","","","animation","67","1323173","0.0-67.0","1920x1080","","7910.400000035763","76.72","img/238/3.5/1.5/bw/001.png","","","complex"
"","","","","","animation","68","1328646","0.0-68.0","1920x1080","","5471.299999952316","66.93","img/117/3.5/2/bw/001.png","","","complex"
"","","","","","animation","69","1331655","0.0-69.0","1920x1080","","3008.300000011921","99","img/238/2.5/1.5/bw/001.png","","","complex"
"","","","","","animation","70","1337389","0.0-70.0","1920x1080","","5733.199999988079","100","img/314/4/0.5/bw/001.png","","","complex"
"","","","","","animation","71","1345734","0.0-71.0","1920x1080","","8343.399999976158","100","img/238/2.5/0.5/bw/001.png","","","complex"
"","","","","","animation","72","1351439","0.0-72.0","1920x1080","","5703.399999976158","59.13","img/117/4/2/bw/001.png","","","complex"
"","","","","","animation","73","1354766","0.0-73.0","1920x1080","","3326.2999999523163","52.12","img/117/5.5/1/bw/001.png","","","complex"
"","","","","","animation","74","1362622","0.0-74.0","1920x1080","","7855.700000047684","60.58","img/314/4.5/1.5/bw/001.png","","","complex"
"","","","","","animation","75","1365982","0.0-75.0","1920x1080","","3357.600000023842","91","img/238/3.5/1/bw/001.png","","","complex"
"","","","","","animation","76","1371039","0.0-76.0","1920x1080","","5056.600000023842","58.33","img/238/5.5/0.5/bw/001.png","","","complex"
"","","","","","animation","77","1375532","0.0-77.0","1920x1080","","4493.900000035763","93.78","img/314/3.5/0.66667/bw/001.png","","","complex"
"","","","","","animation","78","1386676","0.0-78.0","1920x1080","","11142.5","100","img/314/2.5/0.66667/bw/001.png","","","complex"
"","","","","","animation","79","1393964","0.0-79.0","1920x1080","","7287.200000047684","98","img/314/4/0.66667/bw/001.png","","","complex"
"","","","","","animation","80","1399228","0.0-80.0","1920x1080","","5262.099999964237","61.77","img/117/3.5/1/bw/001.png","","","complex"
"","","","","","animation","81","1405796","0.0-81.0","1920x1080","","6567.300000011921","11.38","img/238/5.5/2/bw/001.png","","","complex"
"","","","","","html-button-response","82","1426455","0.0-82.0","1920x1080","","20657","","<div class=""intro"">You are about to view a new series of animations.<br><br></div><div class=""intro"">You will evaluate them based on a different descriptor.<br><br></div><div class=""intro"">Move the slider to indicate how <strong style=""text-transform:capitalize"">NATURAL</strong> you find each animation.<br><br></div><div class=""intro"">0 = Least Natural<br></div><div class=""intro"">1 = Most Natural<br><br></div><div class=""intro"">Remember to use the <strong><em>entire range</em></strong> of the slider to make your ratings.<br></div><div class=""intro"">Please <strong><em>take your time</em></strong> and carefully consider each rating you make.<br><br></div>","0","",""
"","","","","","call-function","83","1426456","0.0-83.0","1920x1080","","","","","","",""
"","","","","","animation","84","1443998","0.0-84.0","1920x1080","","17539.399999976158","96","img/238/5.5/1.5/bw/001.png","","","natural"
"","","","","","animation","85","1456094","0.0-85.0","1920x1080","","12094.899999976158","22.22","img/117/4.5/2/bw/001.png","","","natural"
"","","","","","animation","86","1466689","0.0-86.0","1920x1080","","10592.300000011921","34.66","img/314/4/1.5/bw/001.png","","","natural"
"","","","","","animation","87","1474334","0.0-87.0","1920x1080","","7644.100000023842","5","img/117/3.5/0.5/bw/001.png","","","natural"
"","","","","","animation","88","1484239","0.0-88.0","1920x1080","","9903","70.90","img/314/2.5/2/bw/001.png","","","natural"
"","","","","","animation","89","1493270","0.0-89.0","1920x1080","","9031.600000023842","33.86","img/314/2.5/1/bw/001.png","","","natural"
"","","","","","animation","90","1508587","0.0-90.0","1920x1080","","15315.900000035763","24.87","img/117/4.5/1.5/bw/001.png","","","natural"
"","","","","","animation","91","1518492","0.0-91.0","1920x1080","","9903.199999988079","85.71","img/238/5.5/2/bw/001.png","","","natural"
"","","","","","animation","92","1533324","0.0-92.0","1920x1080","","14830.300000011921","92.33","img/238/5.5/1/bw/001.png","","","natural"
"","","","","","animation","93","1540156","0.0-93.0","1920x1080","","6830.5","28.70","img/238/4.5/0.5/bw/001.png","","","natural"
"","","","","","animation","94","1547320","0.0-94.0","1920x1080","","7162","80.69","img/117/5.5/1.5/bw/001.png","","","natural"
"","","","","","animation","95","1552053","0.0-95.0","1920x1080","","4732","39.81","img/314/4.5/0.66667/bw/001.png","","","natural"
"","","","","","animation","96","1563394","0.0-96.0","1920x1080","","11341.800000011921","20.24","img/314/4/1/bw/001.png","","","natural"
"","","","","","animation","97","1571938","0.0-97.0","1920x1080","","8542.5","10.19","img/238/4/0.66667/bw/001.png","","","natural"
"","","","","","animation","98","1580946","0.0-98.0","1920x1080","","9007","50.26","img/314/4/2/bw/001.png","","","natural"
"","","","","","animation","99","1592922","0.0-99.0","1920x1080","","11974.599999964237","84.13","img/238/4.5/1.5/bw/001.png","","","natural"
"","","","","","animation","100","1596962","0.0-100.0","1920x1080","","4037.599999964237","1","img/314/2.5/0.66667/bw/001.png","","","natural"
"","","","","","animation","101","1604051","0.0-101.0","1920x1080","","7087.299999952316","87.43","img/314/5.5/1.5/bw/001.png","","","natural"
"","","","","","animation","102","1608852","0.0-102.0","1920x1080","","4799.800000011921","89.29","img/314/5.5/0.5/bw/001.png","","","natural"
"","","","","","animation","103","1614358","0.0-103.0","1920x1080","","5500.599999964237","25.79","img/238/4/1.5/bw/001.png","","","natural"
"","","","","","animation","104","1619923","0.0-104.0","1920x1080","","5563.599999964237","77.78","img/117/5.5/0.5/bw/001.png","","","natural"
"","","","","","animation","105","1625310","0.0-105.0","1920x1080","","5386.299999952316","11.77","img/314/3.5/0.66667/bw/001.png","","","natural"
"","","","","","animation","106","1632310","0.0-106.0","1920x1080","","6999","35.85","img/117/4/2/bw/001.png","","","natural"
"","","","","","animation","107","1637872","0.0-107.0","1920x1080","","5560.600000023842","0.93","img/314/2.5/0.5/bw/001.png","","","natural"
"","","","","","animation","108","1642182","0.0-108.0","1920x1080","","4309.400000035763","0","img/238/3.5/0.5/bw/001.png","","","natural"
"","","","","","animation","109","1647155","0.0-109.0","1920x1080","","4971.899999976158","14.68","img/117/4.5/0.66667/bw/001.png","","","natural"
"","","","","","animation","110","1654014","0.0-110.0","1920x1080","","6858.199999988079","68.12","img/117/5.5/0.66667/bw/001.png","","","natural"
"","","","","","animation","111","1658982","0.0-111.0","1920x1080","","4966.699999988079","77.25","img/238/5.5/0.5/bw/001.png","","","natural"
"","","","","","animation","112","1665158","0.0-112.0","1920x1080","","6173.900000035763","46.69","img/314/3.5/1/bw/001.png","","","natural"
"","","","","","animation","113","1669526","0.0-113.0","1920x1080","","4367.600000023842","28.84","img/238/4/0.5/bw/001.png","","","natural"
"","","","","","animation","114","1675471","0.0-114.0","1920x1080","","5945.299999952316","83.60","img/117/5.5/1/bw/001.png","","","natural"
"","","","","","animation","115","1679421","0.0-115.0","1920x1080","","3948.099999964237","25.00","img/238/4/1/bw/001.png","","","natural"
"","","","","","animation","116","1686822","0.0-116.0","1920x1080","","7399.199999988079","76.32","img/238/4.5/2/bw/001.png","","","natural"
"","","","","","animation","117","1696245","0.0-117.0","1920x1080","","9421.5","26","img/238/4/2/bw/001.png","","","natural"
"","","","","","animation","118","1704404","0.0-118.0","1920x1080","","8158.599999964237","83.99","img/117/5.5/2/bw/001.png","","","natural"
"","","","","","animation","119","1710589","0.0-119.0","1920x1080","","6182.699999988079","29.50","img/117/4/0.5/bw/001.png","","","natural"
"","","","","","animation","120","1718925","0.0-120.0","1920x1080","","8334.800000011921","75.00","img/314/4.5/1.5/bw/001.png","","","natural"
"","","","","","animation","121","1724125","0.0-121.0","1920x1080","","5198.699999988079","80.42","img/314/2.5/1.5/bw/001.png","","","natural"
"","","","","","animation","122","1727119","0.0-122.0","1920x1080","","2993.100000023842","6.61","img/314/3.5/0.5/bw/001.png","","","natural"
"","","","","","animation","123","1729829","0.0-123.0","1920x1080","","2708.899999976158","0.13","img/238/2.5/0.5/bw/001.png","","","natural"
"","","","","","animation","124","1734356","0.0-124.0","1920x1080","","4526.800000011921","8.86","img/238/4.5/1/bw/001.png","","","natural"
"","","","","","animation","125","1737981","0.0-125.0","1920x1080","","3623.400000035763","0","img/117/2.5/0.5/bw/001.png","","","natural"
"","","","","","animation","126","1746181","0.0-126.0","1920x1080","","8197.899999976158","89.29","img/314/4.5/2/bw/001.png","","","natural"
"","","","","","animation","127","1749569","0.0-127.0","1920x1080","","3387","24.60","img/117/3.5/0.66667/bw/001.png","","","natural"
"","","","","","animation","128","1757093","0.0-128.0","1920x1080","","7522.800000011921","81.08","img/238/4.5/0.66667/bw/001.png","","","natural"
"","","","","","animation","129","1764737","0.0-129.0","1920x1080","","7643.100000023842","94","img/314/5.5/2/bw/001.png","","","natural"
"","","","","","animation","130","1770413","0.0-130.0","1920x1080","","5674.299999952316","32.94","img/238/3.5/1.5/bw/001.png","","","natural"
"","","","","","animation","131","1774877","0.0-131.0","1920x1080","","4463.200000047684","16.40","img/117/4/0.66667/bw/001.png","","","natural"
"","","","","","animation","132","1779677","0.0-132.0","1920x1080","","4798.199999988079","25","img/117/4.5/0.5/bw/001.png","","","natural"
"","","","","","animation","133","1783186","0.0-133.0","1920x1080","","3508.100000023842","29.50","img/117/4/1.5/bw/001.png","","","natural"
"","","","","","animation","134","1788156","0.0-134.0","1920x1080","","4969.399999976158","48.68","img/238/2.5/2/bw/001.png","","","natural"
"","","","","","animation","135","1792552","0.0-135.0","1920x1080","","4394.899999976158","6.75","img/238/2.5/0.66667/bw/001.png","","","natural"
"","","","","","animation","136","1795907","0.0-136.0","1920x1080","","3355.300000011921","15","img/117/2.5/1/bw/001.png","","","natural"
"","","","","","animation","137","1800691","0.0-137.0","1920x1080","","4783.100000023842","18","img/117/4.5/1/bw/001.png","","","natural"
"","","","","","animation","138","1805317","0.0-138.0","1920x1080","","4625","12.30","img/117/2.5/0.66667/bw/001.png","","","natural"
"","","","","","animation","139","1810934","0.0-139.0","1920x1080","","5616","77.51","img/314/5.5/1/bw/001.png","","","natural"
"","","","","","animation","140","1816411","0.0-140.0","1920x1080","","5475.600000023842","85.32","img/314/5.5/0.66667/bw/001.png","","","natural"
"","","","","","animation","141","1821118","0.0-141.0","1920x1080","","4704.5","39","img/117/3.5/1/bw/001.png","","","natural"
"","","","","","animation","142","1823335","0.0-142.0","1920x1080","","2216.300000011921","24.07","img/117/2.5/1.5/bw/001.png","","","natural"
"","","","","","animation","143","1828291","0.0-143.0","1920x1080","","4955.399999976158","33.33","img/314/4/0.66667/bw/001.png","","","natural"
"","","","","","animation","144","1832867","0.0-144.0","1920x1080","","4575","82.01","img/238/5.5/0.66667/bw/001.png","","","natural"
"","","","","","animation","145","1836659","0.0-145.0","1920x1080","","3790.800000011921","40","img/117/3.5/2/bw/001.png","","","natural"
"","","","","","animation","146","1840059","0.0-146.0","1920x1080","","3398.600000023842","35","img/314/3.5/1.5/bw/001.png","","","natural"
"","","","","","animation","147","1845723","0.0-147.0","1920x1080","","5662.900000035763","78.17","img/314/4.5/1/bw/001.png","","","natural"
"","","","","","animation","148","1849643","0.0-148.0","1920x1080","","3918.699999988079","30.56","img/238/3.5/1/bw/001.png","","","natural"
"","","","","","animation","149","1855032","0.0-149.0","1920x1080","","5383.200000047684","27.51","img/238/3.5/0.66667/bw/001.png","","","natural"
"","","","","","animation","150","1858200","0.0-150.0","1920x1080","","3166.899999976158","73.94","img/117/2.5/2/bw/001.png","","","natural"
"","","","","","animation","151","1862360","0.0-151.0","1920x1080","","4158.699999988079","26.06","img/238/2.5/1/bw/001.png","","","natural"
"","","","","","animation","152","1865024","0.0-152.0","1920x1080","","2662.5","8.33","img/314/4/0.5/bw/001.png","","","natural"
"","","","","","animation","153","1869512","0.0-153.0","1920x1080","","4487.5","1","img/238/2.5/1.5/bw/001.png","","","natural"
"","","","","","animation","154","1872144","0.0-154.0","1920x1080","","2630.899999976158","9.26","img/117/4/1/bw/001.png","","","natural"
"","","","","","animation","155","1876528","0.0-155.0","1920x1080","","4383","17.59","img/314/3.5/2/bw/001.png","","","natural"
"","","","","","animation","156","1881632","0.0-156.0","1920x1080","","5102.899999976158","29.89","img/314/4.5/0.5/bw/001.png","","","natural"
"","","","","","animation","157","1886456","0.0-157.0","1920x1080","","4821.699999988079","37.43","img/117/3.5/1.5/bw/001.png","","","natural"
"","","","","","animation","158","1890706","0.0-158.0","1920x1080","","4248.900000035763","53.97","img/238/3.5/2/bw/001.png","","","natural"
"","","","","","html-button-response","159","1912009","0.0-159.0","1920x1080","","21301.19999998808","","<div class=""intro"">You are about to view a new series of animations.<br><br></div><div class=""intro"">You will evaluate them based on a different descriptor.<br><br></div><div class=""intro"">Move the slider to indicate how <strong style=""text-transform:capitalize"">APPEALING</strong> you find each animation.<br><br></div><div class=""intro"">0 = Least Appealing<br></div><div class=""intro"">1 = Most Appealing<br><br></div><div class=""intro"">Remember to use the <strong><em>entire range</em></strong> of the slider to make your ratings.<br></div><div class=""intro"">Please <strong><em>take your time</em></strong> and carefully consider each rating you make.<br><br></div>","0","",""
"","","","","","call-function","160","1912010","0.0-160.0","1920x1080","","","","","","",""
"","","","","","animation","161","1923029","0.0-161.0","1920x1080","","11012.599999964237","59.66","img/238/4/2/bw/001.png","","","appealing"
"","","","","","animation","162","1932150","0.0-162.0","1920x1080","","9118.700000047684","92.06","img/238/5.5/2/bw/001.png","","","appealing"
"","","","","","animation","163","1937544","0.0-163.0","1920x1080","","5393.100000023842","23","img/314/4.5/0.5/bw/001.png","","","appealing"
"","","","","","animation","164","1944365","0.0-164.0","1920x1080","","6820.099999964237","84","img/117/5.5/2/bw/001.png","","","appealing"
"","","","","","animation","165","1948222","0.0-165.0","1920x1080","","3855.199999988079","4.23","img/238/2.5/2/bw/001.png","","","appealing"
"","","","","","animation","166","1951995","0.0-166.0","1920x1080","","3771.900000035763","3.17","img/117/3.5/2/bw/001.png","","","appealing"
"","","","","","animation","167","1955886","0.0-167.0","1920x1080","","3889.300000011921","0.13","img/238/2.5/1/bw/001.png","","","appealing"
"","","","","","animation","168","1960911","0.0-168.0","1920x1080","","5024.5","0.00","img/314/3.5/0.5/bw/001.png","","","appealing"
"","","","","","animation","169","1964134","0.0-169.0","1920x1080","","3221","0.13","img/238/2.5/1.5/bw/001.png","","","appealing"
"","","","","","animation","170","1969950","0.0-170.0","1920x1080","","5814.699999988079","21.69","img/314/4.5/1.5/bw/001.png","","","appealing"
"","","","","","animation","171","1973738","0.0-171.0","1920x1080","","3794.899999976158","16.53","img/238/4/1/bw/001.png","","","appealing"
"","","","","","animation","172","1976262","0.0-172.0","1920x1080","","2522.5","5.95","img/117/2.5/1/bw/001.png","","","appealing"
"","","","","","animation","173","1978254","0.0-173.0","1920x1080","","1990.699999988079","3.84","img/314/2.5/2/bw/001.png","","","appealing"
"","","","","","animation","174","1981678","0.0-174.0","1920x1080","","3423.300000011921","0.79","img/314/3.5/0.66667/bw/001.png","","","appealing"
"","","","","","animation","175","1984742","0.0-175.0","1920x1080","","3062.800000011921","0.13","img/117/4.5/0.66667/bw/001.png","","","appealing"
"","","","","","animation","176","1991222","0.0-176.0","1920x1080","","6478.399999976158","0.00","img/117/3.5/0.5/bw/001.png","","","appealing"
"","","","","","animation","177","1994222","0.0-177.0","1920x1080","","2998.800000011921","0","img/238/3.5/0.66667/bw/001.png","","","appealing"
"","","","","","animation","178","1997770","0.0-178.0","1920x1080","","3547.199999988079","0.00","img/117/2.5/1.5/bw/001.png","","","appealing"
"","","","","","animation","179","2008038","0.0-179.0","1920x1080","","10266.199999988079","63","img/238/4.5/1.5/bw/001.png","","","appealing"
"","","","","","animation","180","2012526","0.0-180.0","1920x1080","","4487.100000023842","28.04","img/117/4/1/bw/001.png","","","appealing"
"","","","","","animation","181","2017326","0.0-181.0","1920x1080","","4798.800000011921","14.15","img/238/4/0.5/bw/001.png","","","appealing"
"","","","","","animation","182","2022603","0.0-182.0","1920x1080","","5275.899999976158","70.11","img/314/5.5/2/bw/001.png","","","appealing"
"","","","","","animation","183","2025030","0.0-183.0","1920x1080","","2425.599999964237","50.79","img/314/4.5/0.66667/bw/001.png","","","appealing"
"","","","","","animation","184","2028603","0.0-184.0","1920x1080","","3571.900000035763","59.13","img/314/5.5/1/bw/001.png","","","appealing"
"","","","","","animation","185","2033008","0.0-185.0","1920x1080","","4401.100000023842","18.78","img/238/3.5/0.5/bw/001.png","","","appealing"
"","","","","","animation","186","2037208","0.0-186.0","1920x1080","","4198.199999988079","13.89","img/314/4/2/bw/001.png","","","appealing"
"","","","","","animation","187","2044472","0.0-187.0","1920x1080","","7262.699999988079","0","img/314/2.5/0.66667/bw/001.png","","","appealing"
"","","","","","animation","188","2046890","0.0-188.0","1920x1080","","2416.199999988079","0.13","img/238/2.5/0.5/bw/001.png","","","appealing"
"","","","","","animation","189","2052561","0.0-189.0","1920x1080","","5669.699999988079","0","img/314/2.5/1/bw/001.png","","","appealing"
"","","","","","animation","190","2059961","0.0-190.0","1920x1080","","7398.699999988079","29.37","img/238/4.5/0.66667/bw/001.png","","","appealing"
"","","","","","animation","191","2063922","0.0-191.0","1920x1080","","3960.199999988079","11.64","img/117/3.5/1/bw/001.png","","","appealing"
"","","","","","animation","192","2072761","0.0-192.0","1920x1080","","8835.5","24.74","img/314/4.5/1/bw/001.png","","","appealing"
"","","","","","animation","193","2082756","0.0-193.0","1920x1080","","9992.5","72.35","img/117/5.5/0.66667/bw/001.png","","","appealing"
"","","","","","animation","194","2088208","0.0-194.0","1920x1080","","5451.700000047684","48.28","img/238/4.5/1/bw/001.png","","","appealing"
"","","","","","animation","195","2099471","0.0-195.0","1920x1080","","11262.599999964237","30","img/117/2.5/0.66667/bw/001.png","","","appealing"
"","","","","","animation","196","2115920","0.0-196.0","1920x1080","","16448","45.77","img/314/4.5/2/bw/001.png","","","appealing"
"","","","","","animation","197","2120623","0.0-197.0","1920x1080","","4701","35.58","img/314/4/1/bw/001.png","","","appealing"
"","","","","","animation","198","2126095","0.0-198.0","1920x1080","","5471.199999988079","59.39","img/314/5.5/0.5/bw/001.png","","","appealing"
"","","","","","animation","199","2133371","0.0-199.0","1920x1080","","7272.899999976158","26.98","img/117/4.5/1/bw/001.png","","","appealing"
"","","","","","animation","200","2136095","0.0-200.0","1920x1080","","2723.5","30.82","img/238/4.5/0.5/bw/001.png","","","appealing"
"","","","","","animation","201","2139143","0.0-201.0","1920x1080","","3046.899999976158","14.68","img/117/4/2/bw/001.png","","","appealing"
"","","","","","animation","202","2143288","0.0-202.0","1920x1080","","4143.099999964237","67.99","img/314/5.5/0.66667/bw/001.png","","","appealing"
"","","","","","animation","203","2148271","0.0-203.0","1920x1080","","4982.100000023842","17.06","img/117/3.5/0.66667/bw/001.png","","","appealing"
"","","","","","animation","204","2157682","0.0-204.0","1920x1080","","9406.899999976158","22.35","img/314/4/1.5/bw/001.png","","","appealing"
"","","","","","animation","205","2161025","0.0-205.0","1920x1080","","3342.300000011921","12.04","img/117/4.5/0.5/bw/001.png","","","appealing"
"","","","","","animation","206","2164209","0.0-206.0","1920x1080","","3182.7000000476837","15.08","img/117/4/1.5/bw/001.png","","","appealing"
"","","","","","animation","207","2171190","0.0-207.0","1920x1080","","6978.399999976158","15.21","img/314/4/0.5/bw/001.png","","","appealing"
"","","","","","animation","208","2175023","0.0-208.0","1920x1080","","3832.300000011921","73","img/314/5.5/1.5/bw/001.png","","","appealing"
"","","","","","animation","209","2178441","0.0-209.0","1920x1080","","3416.899999976158","44.44","img/238/3.5/1.5/bw/001.png","","","appealing"
"","","","","","animation","210","2185091","0.0-210.0","1920x1080","","6648.399999976158","9.92","img/117/4/0.5/bw/001.png","","","appealing"
"","","","","","animation","211","2197009","0.0-211.0","1920x1080","","11915.599999964237","50.26","img/314/3.5/2/bw/001.png","","","appealing"
"","","","","","animation","212","2205610","0.0-212.0","1920x1080","","8598.899999976158","79.76","img/117/5.5/0.5/bw/001.png","","","appealing"
"","","","","","animation","213","2209790","0.0-213.0","1920x1080","","4178","1.59","img/314/2.5/1.5/bw/001.png","","","appealing"
"","","","","","animation","214","2214119","0.0-214.0","1920x1080","","4323","3.57","img/117/2.5/2/bw/001.png","","","appealing"
"","","","","","animation","215","2216631","0.0-215.0","1920x1080","","2510.300000011921","0","img/314/2.5/0.5/bw/001.png","","","appealing"
"","","","","","animation","216","2229368","0.0-216.0","1920x1080","","12735.200000047684","76.98","img/117/4.5/2/bw/001.png","","","appealing"
"","","","","","animation","217","2233695","0.0-217.0","1920x1080","","4326.600000023842","23.81","img/238/3.5/2/bw/001.png","","","appealing"
"","","","","","animation","218","2245079","0.0-218.0","1920x1080","","11382.399999976158","70.37","img/238/5.5/1/bw/001.png","","","appealing"
"","","","","","animation","219","2249079","0.0-219.0","1920x1080","","3998.400000035763","12.43","img/314/3.5/1/bw/001.png","","","appealing"
"","","","","","animation","220","2254112","0.0-220.0","1920x1080","","5031.899999976158","21.69","img/238/4/1.5/bw/001.png","","","appealing"
"","","","","","animation","221","2262913","0.0-221.0","1920x1080","","8799","40.34","img/117/3.5/1.5/bw/001.png","","","appealing"
"","","","","","animation","222","2267162","0.0-222.0","1920x1080","","4247.699999988079","34.39","img/238/3.5/1/bw/001.png","","","appealing"
"","","","","","animation","223","2270783","0.0-223.0","1920x1080","","3618.400000035763","14","img/314/3.5/1.5/bw/001.png","","","appealing"
"","","","","","animation","224","2273809","0.0-224.0","1920x1080","","3029.899999976158","28.70","img/117/4.5/1.5/bw/001.png","","","appealing"
"","","","","","animation","225","2276177","0.0-225.0","1920x1080","","2366.600000023842","15.48","img/314/4/0.66667/bw/001.png","","","appealing"
"","","","","","animation","226","2279098","0.0-226.0","1920x1080","","2919.300000011921","24.60","img/238/4.5/2/bw/001.png","","","appealing"
"","","","","","animation","227","2282073","0.0-227.0","1920x1080","","2974","0","img/117/2.5/0.5/bw/001.png","","","appealing"
"","","","","","animation","228","2284346","0.0-228.0","1920x1080","","2271.2000000476837","0.40","img/238/2.5/0.66667/bw/001.png","","","appealing"
"","","","","","animation","229","2290856","0.0-229.0","1920x1080","","6509.300000011921","96","img/117/5.5/1/bw/001.png","","","appealing"
"","","","","","animation","230","2295156","0.0-230.0","1920x1080","","4298.300000011921","92.59","img/238/5.5/0.5/bw/001.png","","","appealing"
"","","","","","animation","231","2298423","0.0-231.0","1920x1080","","3265.099999964237","100","img/117/5.5/1.5/bw/001.png","","","appealing"
"","","","","","animation","232","2301626","0.0-232.0","1920x1080","","3201","13.49","img/238/4/0.66667/bw/001.png","","","appealing"
"","","","","","animation","233","2304914","0.0-233.0","1920x1080","","3287","80.82","img/238/5.5/0.66667/bw/001.png","","","appealing"
"","","","","","animation","234","2308040","0.0-234.0","1920x1080","","3125","90.08","img/238/5.5/1.5/bw/001.png","","","appealing"
"","","","","","animation","235","2313210","0.0-235.0","1920x1080","","5167.900000035763","30.42","img/117/4/0.66667/bw/001.png","","","appealing"
"","","","","","html-button-response","236","2333792","0.0-236.0","1920x1080","","20574.5","","<div class=""intro"">You are about to view a new series of animations.<br><br></div><div class=""intro"">You will evaluate them based on a different descriptor.<br><br></div><div class=""intro"">Move the slider to indicate how <strong style=""text-transform:capitalize"">RELAXING</strong> you find each animation.<br><br></div><div class=""intro"">0 = Least Relaxing<br></div><div class=""intro"">1 = Most Relaxing<br><br></div><div class=""intro"">Remember to use the <strong><em>entire range</em></strong> of the slider to make your ratings.<br></div><div class=""intro"">Please <strong><em>take your time</em></strong> and carefully consider each rating you make.<br><br></div>","0","",""
"","","","","","call-function","237","2333794","0.0-237.0","1920x1080","","","","","","",""
"","","","","","animation","238","2348611","0.0-238.0","1920x1080","","14816.599999964237","70.77","img/238/4/2/bw/001.png","","","relaxing"
"","","","","","animation","239","2358079","0.0-239.0","1920x1080","","9466.099999964237","20.90","img/117/3.5/1/bw/001.png","","","relaxing"
"","","","","","animation","240","2366262","0.0-240.0","1920x1080","","8179.199999988079","49.74","img/117/4/1.5/bw/001.png","","","relaxing"
"","","","","","animation","241","2377679","0.0-241.0","1920x1080","","11416","10.71","img/314/4/1/bw/001.png","","","relaxing"
"","","","","","animation","242","2384212","0.0-242.0","1920x1080","","6530.900000035763","45.63","img/238/4.5/0.66667/bw/001.png","","","relaxing"
"","","","","","animation","243","2394856","0.0-243.0","1920x1080","","10647.800000011921","45.77","img/314/4/0.66667/bw/001.png","","","relaxing"
"","","","","","animation","244","2410639","0.0-244.0","1920x1080","","15780.599999964237","23.94","img/238/4.5/0.5/bw/001.png","","","relaxing"
"","","","","","animation","245","2418289","0.0-245.0","1920x1080","","7649","20.24","img/238/3.5/1/bw/001.png","","","relaxing"
"","","","","","animation","246","2424273","0.0-246.0","1920x1080","","5982.5","49.74","img/238/2.5/2/bw/001.png","","","relaxing"
"","","","","","animation","247","2428906","0.0-247.0","1920x1080","","4631.5","9.26","img/314/4/0.5/bw/001.png","","","relaxing"
"","","","","","animation","248","2433746","0.0-248.0","1920x1080","","4837.400000035763","73","img/238/4.5/1.5/bw/001.png","","","relaxing"
"","","","","","animation","249","2436578","0.0-249.0","1920x1080","","2830.900000035763","2.25","img/117/3.5/0.5/bw/001.png","","","relaxing"
"","","","","","animation","250","2442123","0.0-250.0","1920x1080","","5543.600000023842","1.32","img/117/5.5/0.5/bw/001.png","","","relaxing"
"","","","","","animation","251","2445273","0.0-251.0","1920x1080","","3149.199999988079","6.48","img/314/4.5/0.5/bw/001.png","","","relaxing"
"","","","","","animation","252","2447772","0.0-252.0","1920x1080","","2497.199999988079","24.47","img/117/5.5/0.66667/bw/001.png","","","relaxing"
"","","","","","animation","253","2450106","0.0-253.0","1920x1080","","2332.7000000476837","26.32","img/314/5.5/0.66667/bw/001.png","","","relaxing"
"","","","","","animation","254","2454704","0.0-254.0","1920x1080","","4598.300000011921","16.14","img/117/4/0.5/bw/001.png","","","relaxing"
"","","","","","animation","255","2458071","0.0-255.0","1920x1080","","3365.899999976158","0","img/117/2.5/2/bw/001.png","","","relaxing"
"","","","","","animation","256","2460820","0.0-256.0","1920x1080","","2747.5","0.40","img/238/3.5/1.5/bw/001.png","","","relaxing"
"","","","","","animation","257","2466607","0.0-257.0","1920x1080","","5785.800000011921","0","img/314/2.5/0.5/bw/001.png","","","relaxing"
"","","","","","animation","258","2478239","0.0-258.0","1920x1080","","11630.699999988079","70.50","img/314/4/2/bw/001.png","","","relaxing"
"","","","","","animation","259","2483240","0.0-259.0","1920x1080","","4998.300000011921","0.13","img/117/2.5/0.66667/bw/001.png","","","relaxing"
"","","","","","animation","260","2492376","0.0-260.0","1920x1080","","9134.600000023842","90","img/117/5.5/1.5/bw/001.png","","","relaxing"
"","","","","","animation","261","2496354","0.0-261.0","1920x1080","","3975.699999988079","89.02","img/314/5.5/1.5/bw/001.png","","","relaxing"
"","","","","","animation","262","2500224","0.0-262.0","1920x1080","","3867.800000011921","95","img/238/5.5/1/bw/001.png","","","relaxing"
"","","","","","animation","263","2502954","0.0-263.0","1920x1080","","2728.400000035763","32.41","img/117/4/2/bw/001.png","","","relaxing"
"","","","","","animation","264","2506624","0.0-264.0","1920x1080","","3668.899999976158","46.16","img/314/4.5/1.5/bw/001.png","","","relaxing"
"","","","","","animation","265","2515986","0.0-265.0","1920x1080","","9361.100000023842","85.32","img/238/5.5/2/bw/001.png","","","relaxing"
"","","","","","animation","266","2520575","0.0-266.0","1920x1080","","4586.5","31.61","img/117/3.5/2/bw/001.png","","","relaxing"
"","","","","","animation","267","2523775","0.0-267.0","1920x1080","","3198.699999988079","15.87","img/314/3.5/0.5/bw/001.png","","","relaxing"
"","","","","","animation","268","2528271","0.0-268.0","1920x1080","","4494.400000035763","56.75","img/314/5.5/1/bw/001.png","","","relaxing"
"","","","","","animation","269","2532855","0.0-269.0","1920x1080","","4580.5","28.70","img/117/3.5/0.66667/bw/001.png","","","relaxing"
"","","","","","animation","270","2535536","0.0-270.0","1920x1080","","2680.300000011921","17.46","img/238/4/0.66667/bw/001.png","","","relaxing"
"","","","","","animation","271","2544619","0.0-271.0","1920x1080","","9081.800000011921","59.26","img/238/5.5/0.5/bw/001.png","","","relaxing"
"","","","","","animation","272","2551559","0.0-272.0","1920x1080","","6938.300000011921","17.86","img/314/2.5/1/bw/001.png","","","relaxing"
"","","","","","animation","273","2555759","0.0-273.0","1920x1080","","4197.899999976158","30","img/117/3.5/1.5/bw/001.png","","","relaxing"
"","","","","","animation","274","2562919","0.0-274.0","1920x1080","","7158.099999964237","11.77","img/314/2.5/0.66667/bw/001.png","","","relaxing"
"","","","","","animation","275","2569853","0.0-275.0","1920x1080","","6931.5","16.80","img/117/4.5/0.66667/bw/001.png","","","relaxing"
"","","","","","animation","276","2575555","0.0-276.0","1920x1080","","5698.100000023842","8.99","img/117/2.5/1.5/bw/001.png","","","relaxing"
"","","","","","animation","277","2578438","0.0-277.0","1920x1080","","2881.5","21","img/238/4/0.5/bw/001.png","","","relaxing"
"","","","","","animation","278","2583172","0.0-278.0","1920x1080","","4732.099999964237","68.12","img/117/5.5/1/bw/001.png","","","relaxing"
"","","","","","animation","279","2587825","0.0-279.0","1920x1080","","4651.699999988079","17.46","img/238/4.5/1/bw/001.png","","","relaxing"
"","","","","","animation","280","2596472","0.0-280.0","1920x1080","","8644.399999976158","38.76","img/314/4/1.5/bw/001.png","","","relaxing"
"","","","","","animation","281","2599441","0.0-281.0","1920x1080","","2968.199999988079","6.08","img/117/2.5/0.5/bw/001.png","","","relaxing"
"","","","","","animation","282","2604042","0.0-282.0","1920x1080","","4598.699999988079","21","img/117/4.5/1/bw/001.png","","","relaxing"
"","","","","","animation","283","2612288","0.0-283.0","1920x1080","","8245.399999976158","9.13","img/117/2.5/1/bw/001.png","","","relaxing"
"","","","","","animation","284","2617905","0.0-284.0","1920x1080","","5614.699999988079","19.05","img/314/3.5/1/bw/001.png","","","relaxing"
"","","","","","animation","285","2622622","0.0-285.0","1920x1080","","4715.199999988079","21.30","img/314/2.5/1.5/bw/001.png","","","relaxing"
"","","","","","animation","286","2628555","0.0-286.0","1920x1080","","5932","21","img/314/3.5/0.66667/bw/001.png","","","relaxing"
"","","","","","animation","287","2637120","0.0-287.0","1920x1080","","8564.300000011921","82.41","img/314/5.5/2/bw/001.png","","","relaxing"
"","","","","","animation","288","2644671","0.0-288.0","1920x1080","","7548.400000035763","62.83","img/314/4.5/2/bw/001.png","","","relaxing"
"","","","","","animation","289","2650937","0.0-289.0","1920x1080","","6264.5","25.93","img/238/2.5/1.5/bw/001.png","","","relaxing"
"","","","","","animation","290","2668921","0.0-290.0","1920x1080","","17982.100000023842","87.70","img/117/5.5/2/bw/001.png","","","relaxing"
"","","","","","animation","291","2679872","0.0-291.0","1920x1080","","10949.5","96","img/238/5.5/1.5/bw/001.png","","","relaxing"
"","","","","","animation","292","2686721","0.0-292.0","1920x1080","","6846.400000035763","34.26","img/238/2.5/1/bw/001.png","","","relaxing"
"","","","","","animation","293","2694422","0.0-293.0","1920x1080","","7702.199999988079","39.68","img/314/3.5/1.5/bw/001.png","","","relaxing"
"","","","","","animation","294","2702238","0.0-294.0","1920x1080","","7814.300000011921","35.32","img/238/4/1.5/bw/001.png","","","relaxing"
"","","","","","animation","295","2708854","0.0-295.0","1920x1080","","6614.099999964237","41.27","img/314/2.5/2/bw/001.png","","","relaxing"
"","","","","","animation","296","2714418","0.0-296.0","1920x1080","","5562.300000011921","27.91","img/117/4/1/bw/001.png","","","relaxing"
"","","","","","animation","297","2721518","0.0-297.0","1920x1080","","7098.5","57.94","img/314/5.5/0.5/bw/001.png","","","relaxing"
"","","","","","animation","298","2729238","0.0-298.0","1920x1080","","7718.300000011921","48.28","img/314/4.5/0.66667/bw/001.png","","","relaxing"
"","","","","","animation","299","2733801","0.0-299.0","1920x1080","","4560","52.25","img/117/4.5/2/bw/001.png","","","relaxing"
"","","","","","animation","300","2742918","0.0-300.0","1920x1080","","9115.100000023842","82.67","img/238/5.5/0.66667/bw/001.png","","","relaxing"
"","","","","","animation","301","2745958","0.0-301.0","1920x1080","","3038.5","0.00","img/238/2.5/0.5/bw/001.png","","","relaxing"
"","","","","","animation","302","2762653","0.0-302.0","1920x1080","","16691.5","99","img/238/4.5/2/bw/001.png","","","relaxing"
"","","","","","animation","303","2769236","0.0-303.0","1920x1080","","6581.300000011921","91","img/117/4.5/1.5/bw/001.png","","","relaxing"
"","","","","","animation","304","2774055","0.0-304.0","1920x1080","","4816.900000035763","64.42","img/314/4.5/1/bw/001.png","","","relaxing"
"","","","","","animation","305","2783036","0.0-305.0","1920x1080","","8979.100000023842","47.62","img/238/3.5/2/bw/001.png","","","relaxing"
"","","","","","animation","306","2788639","0.0-306.0","1920x1080","","5601.600000023842","30.42","img/238/3.5/0.66667/bw/001.png","","","relaxing"
"","","","","","animation","307","2793687","0.0-307.0","1920x1080","","5044.699999988079","20.63","img/238/3.5/0.5/bw/001.png","","","relaxing"
"","","","","","animation","308","2796824","0.0-308.0","1920x1080","","3134.5","0","img/238/2.5/0.66667/bw/001.png","","","relaxing"
"","","","","","animation","309","2800807","0.0-309.0","1920x1080","","3981.7999999523163","13.89","img/238/4/1/bw/001.png","","","relaxing"
"","","","","","animation","310","2804169","0.0-310.0","1920x1080","","3359.899999976158","32.67","img/117/4.5/0.5/bw/001.png","","","relaxing"
"","","","","","animation","311","2813929","0.0-311.0","1920x1080","","9750.899999976158","46.30","img/314/3.5/2/bw/001.png","","","relaxing"
"","","","","","animation","312","2818534","0.0-312.0","1920x1080","","4603.600000023842","34.13","img/117/4/0.66667/bw/001.png","","","relaxing"
"","","","","","html-button-response","313","2842728","0.0-313.0","1920x1080","","24191.69999998808","","<div class=""intro"">You are about to view a new series of animations.<br><br></div><div class=""intro"">You will evaluate them based on a different descriptor.<br><br></div><div class=""intro"">Move the slider to indicate how <strong style=""text-transform:capitalize"">INTERESTING</strong> you find each animation.<br><br></div><div class=""intro"">0 = Least Interesting<br></div><div class=""intro"">1 = Most Interesting<br><br></div><div class=""intro"">Remember to use the <strong><em>entire range</em></strong> of the slider to make your ratings.<br></div><div class=""intro"">Please <strong><em>take your time</em></strong> and carefully consider each rating you make.<br><br></div>","0","",""
"","","","","","call-function","314","2842731","0.0-314.0","1920x1080","","","","","","",""
"","","","","","animation","315","2856927","0.0-315.0","1920x1080","","14194.899999976158","66.27","img/238/4/1/bw/001.png","","","interesting"
"","","","","","animation","316","2865047","0.0-316.0","1920x1080","","8118.299999952316","88.62","img/238/5.5/2/bw/001.png","","","interesting"
"","","","","","animation","317","2871679","0.0-317.0","1920x1080","","6629.600000023842","50.93","img/314/4/2/bw/001.png","","","interesting"
"","","","","","animation","318","2876326","0.0-318.0","1920x1080","","4645.600000023842","39.55","img/314/4.5/0.5/bw/001.png","","","interesting"
"","","","","","animation","319","2881792","0.0-319.0","1920x1080","","5463.700000047684","50","img/238/4.5/1/bw/001.png","","","interesting"
"","","","","","animation","320","2885813","0.0-320.0","1920x1080","","4019.800000011921","50.40","img/117/4.5/1.5/bw/001.png","","","interesting"
"","","","","","animation","321","2891742","0.0-321.0","1920x1080","","5927","31.08","img/117/4.5/1/bw/001.png","","","interesting"
"","","","","","animation","322","2895093","0.0-322.0","1920x1080","","3349.100000023842","18.52","img/314/3.5/0.66667/bw/001.png","","","interesting"
"","","","","","animation","323","2897792","0.0-323.0","1920x1080","","2698.199999988079","12.70","img/117/4/0.66667/bw/001.png","","","interesting"
"","","","","","animation","324","2909425","0.0-324.0","1920x1080","","11631.199999988079","98","img/314/5.5/0.66667/bw/001.png","","","interesting"
"","","","","","animation","325","2912892","0.0-325.0","1920x1080","","3464.899999976158","0.53","img/314/2.5/0.5/bw/001.png","","","interesting"
"","","","","","animation","326","2926949","0.0-326.0","1920x1080","","14055","90.21","img/117/5.5/2/bw/001.png","","","interesting"
"","","","","","animation","327","2931998","0.0-327.0","1920x1080","","5047.600000023842","63.23","img/314/4.5/1/bw/001.png","","","interesting"
"","","","","","animation","328","2935262","0.0-328.0","1920x1080","","3261.800000011921","0.40","img/117/2.5/1.5/bw/001.png","","","interesting"
"","","","","","animation","329","2942510","0.0-329.0","1920x1080","","7246.599999964237","91.80","img/117/5.5/0.66667/bw/001.png","","","interesting"
"","","","","","animation","330","2948462","0.0-330.0","1920x1080","","5950.199999988079","73.81","img/238/3.5/2/bw/001.png","","","interesting"
"","","","","","animation","331","2955389","0.0-331.0","1920x1080","","6925.5","41","img/117/3.5/2/bw/001.png","","","interesting"
"","","","","","animation","332","2958678","0.0-332.0","1920x1080","","3286.300000011921","0","img/238/2.5/0.5/bw/001.png","","","interesting"
"","","","","","animation","333","2961401","0.0-333.0","1920x1080","","2722.399999976158","0.13","img/117/3.5/0.5/bw/001.png","","","interesting"
"","","","","","animation","334","2967525","0.0-334.0","1920x1080","","6121.5","10","img/117/4/1/bw/001.png","","","interesting"
"","","","","","animation","335","2982246","0.0-335.0","1920x1080","","14717.699999988079","43","img/314/3.5/2/bw/001.png","","","interesting"
"","","","","","animation","336","2988777","0.0-336.0","1920x1080","","6529.799999952316","28.97","img/117/4.5/2/bw/001.png","","","interesting"
"","","","","","animation","337","2993655","0.0-337.0","1920x1080","","4885.399999976158","1.19","img/314/3.5/0.5/bw/001.png","","","interesting"
"","","","","","animation","338","3001790","0.0-338.0","1920x1080","","8132.200000047684","91","img/314/5.5/1.5/bw/001.png","","","interesting"
"","","","","","animation","339","3006356","0.0-339.0","1920x1080","","4563.899999976158","0.13","img/117/2.5/1/bw/001.png","","","interesting"
"","","","","","animation","340","3013669","0.0-340.0","1920x1080","","7311.199999988079","100","img/238/5.5/0.5/bw/001.png","","","interesting"
"","","","","","animation","341","3017549","0.0-341.0","1920x1080","","3878.399999976158","3.44","img/238/2.5/2/bw/001.png","","","interesting"
"","","","","","animation","342","3023766","0.0-342.0","1920x1080","","6213.899999976158","57.54","img/117/4/2/bw/001.png","","","interesting"
"","","","","","animation","343","3040285","0.0-343.0","1920x1080","","16517.19999998808","81.61","img/314/5.5/0.5/bw/001.png","","","interesting"
"","","","","","animation","344","3044049","0.0-344.0","1920x1080","","3762.800000011921","28.57","img/238/3.5/0.66667/bw/001.png","","","interesting"
"","","","","","animation","345","3049301","0.0-345.0","1920x1080","","5248.100000023842","33.99","img/117/3.5/1.5/bw/001.png","","","interesting"
"","","","","","animation","346","3057402","0.0-346.0","1920x1080","","8101.699999988079","42.33","img/314/4.5/1.5/bw/001.png","","","interesting"
"","","","","","animation","347","3069347","0.0-347.0","1920x1080","","11942.800000011921","47.62","img/238/4/1.5/bw/001.png","","","interesting"
"","","","","","animation","348","3076163","0.0-348.0","1920x1080","","6814.100000023842","86.24","img/117/5.5/1/bw/001.png","","","interesting"
"","","","","","animation","349","3082397","0.0-349.0","1920x1080","","6231.699999988079","14.81","img/238/4/0.5/bw/001.png","","","interesting"
"","","","","","animation","350","3101466","0.0-350.0","1920x1080","","19066.19999998808","92","img/314/5.5/2/bw/001.png","","","interesting"
"","","","","","animation","351","3105965","0.0-351.0","1920x1080","","4496.800000011921","7.28","img/238/2.5/1/bw/001.png","","","interesting"
"","","","","","animation","352","3108886","0.0-352.0","1920x1080","","2919.5","0","img/314/4/0.5/bw/001.png","","","interesting"
"","","","","","animation","353","3119654","0.0-353.0","1920x1080","","10754.800000011921","8.20","img/314/4/1/bw/001.png","","","interesting"
"","","","","","animation","354","3131110","0.0-354.0","1920x1080","","11452.300000011921","42.46","img/314/4/1.5/bw/001.png","","","interesting"
"","","","","","animation","355","3140991","0.0-355.0","1920x1080","","9878.199999988079","66.27","img/238/5.5/0.66667/bw/001.png","","","interesting"
"","","","","","animation","356","3149457","0.0-356.0","1920x1080","","8462.699999988079","22","img/314/3.5/1.5/bw/001.png","","","interesting"
"","","","","","animation","357","3154569","0.0-357.0","1920x1080","","5109.199999988079","10","img/314/4/0.66667/bw/001.png","","","interesting"
"","","","","","animation","358","3169174","0.0-358.0","1920x1080","","14603.5","95","img/117/5.5/0.5/bw/001.png","","","interesting"
"","","","","","animation","359","3178916","0.0-359.0","1920x1080","","9749.5","38","img/238/4/2/bw/001.png","","","interesting"
"","","","","","animation","360","3187903","0.0-360.0","1920x1080","","8985.900000035763","41.67","img/117/4.5/0.66667/bw/001.png","","","interesting"
"","","","","","animation","361","3207560","0.0-361.0","1920x1080","","19655","21","img/238/4/0.66667/bw/001.png","","","interesting"
"","","","","","animation","362","3215497","0.0-362.0","1920x1080","","7934.699999988079","31.22","img/117/4.5/0.5/bw/001.png","","","interesting"
"","","","","","animation","363","3230430","0.0-363.0","1920x1080","","14930.699999988079","10","img/238/2.5/1.5/bw/001.png","","","interesting"
"","","","","","animation","364","3237764","0.0-364.0","1920x1080","","7331.5","0","img/314/2.5/0.66667/bw/001.png","","","interesting"
"","","","","","animation","365","3254167","0.0-365.0","1920x1080","","16401.30000001192","89.42","img/117/5.5/1.5/bw/001.png","","","interesting"
"","","","","","animation","366","3260900","0.0-366.0","1920x1080","","6730.900000035763","46","img/314/4.5/0.66667/bw/001.png","","","interesting"
"","","","","","animation","367","3264668","0.0-367.0","1920x1080","","3763.800000011921","0.40","img/117/2.5/0.66667/bw/001.png","","","interesting"
"","","","","","animation","368","3271716","0.0-368.0","1920x1080","","7046.099999964237","0","img/117/3.5/0.66667/bw/001.png","","","interesting"
"","","","","","animation","369","3275597","0.0-369.0","1920x1080","","3878.100000023842","3.84","img/117/4/0.5/bw/001.png","","","interesting"
"","","","","","animation","370","3289449","0.0-370.0","1920x1080","","13849.899999976158","97","img/238/5.5/1/bw/001.png","","","interesting"
"","","","","","animation","371","3307381","0.0-371.0","1920x1080","","17919.899999976158","39","img/238/3.5/1.5/bw/001.png","","","interesting"
"","","","","","animation","372","3312261","0.0-372.0","1920x1080","","4878.099999964237","23.68","img/238/4.5/0.5/bw/001.png","","","interesting"
"","","","","","animation","373","3316509","0.0-373.0","1920x1080","","4245.699999988079","8.73","img/117/3.5/1/bw/001.png","","","interesting"
"","","","","","animation","374","3322125","0.0-374.0","1920x1080","","5613.800000011921","0.40","img/314/2.5/2/bw/001.png","","","interesting"
"","","","","","animation","375","3326390","0.0-375.0","1920x1080","","4262.399999976158","16.53","img/314/3.5/1/bw/001.png","","","interesting"
"","","","","","animation","376","3330431","0.0-376.0","1920x1080","","4038.899999976158","0","img/117/2.5/0.5/bw/001.png","","","interesting"
"","","","","","animation","377","3346929","0.0-377.0","1920x1080","","16496.30000001192","43","img/238/4.5/0.66667/bw/001.png","","","interesting"
"","","","","","animation","378","3356998","0.0-378.0","1920x1080","","10075.699999988079","52.38","img/238/4.5/2/bw/001.png","","","interesting"
"","","","","","animation","379","3361853","0.0-379.0","1920x1080","","4853.300000011921","0.40","img/314/2.5/1.5/bw/001.png","","","interesting"
"","","","","","animation","380","3365864","0.0-380.0","1920x1080","","4007.5","9.92","img/238/3.5/1/bw/001.png","","","interesting"
"","","","","","animation","381","3370614","0.0-381.0","1920x1080","","4748.400000035763","54","img/238/4.5/1.5/bw/001.png","","","interesting"
"","","","","","animation","382","3383672","0.0-382.0","1920x1080","","13055.899999976158","99","img/238/5.5/1.5/bw/001.png","","","interesting"
"","","","","","animation","383","3387998","0.0-383.0","1920x1080","","4324.099999964237","0","img/117/2.5/2/bw/001.png","","","interesting"
"","","","","","animation","384","3392285","0.0-384.0","1920x1080","","4285.300000011921","0.13","img/238/2.5/0.66667/bw/001.png","","","interesting"
"","","","","","animation","385","3395733","0.0-385.0","1920x1080","","3446.100000023842","0.13","img/314/2.5/1/bw/001.png","","","interesting"
"","","","","","animation","386","3407798","0.0-386.0","1920x1080","","12062.800000011921","69.58","img/314/4.5/2/bw/001.png","","","interesting"
"","","","","","animation","387","3416483","0.0-387.0","1920x1080","","8685.100000023842","25.26","img/238/3.5/0.5/bw/001.png","","","interesting"
"","","","","","animation","388","3423707","0.0-388.0","1920x1080","","7222.5","64.95","img/314/5.5/1/bw/001.png","","","interesting"
"","","","","","animation","389","3434062","0.0-389.0","1920x1080","","10352","16.27","img/117/4/1.5/bw/001.png","","","interesting"
"","","","","","html-button-response","390","12817116","0.0-390.0","1920x1080","","9383012.899999976","","<strong>Study Debriefing</strong><br><p class=""debrief""><strong>Background:</strong> The patterns you rated are called <em>fractals</em>. The term fractal describes a class of irregular curves or shapes for which any suitably chosen part is similar in shape to a given larger or smaller part when magnified or reduced to the same size. Fractal properties are found throughout the natural and manmade world. The series of animations you saw today displayed animated fractal patterns of a varying complexity.</p><p class=""debrief""><strong>Purpose of this study:</strong> We hope to better understand how the perception of static fractals differs from the perception of animated fractals, and how the speed of the animated patterns influences people&apos;s perception of them. Fractals allow us to study the perception of aesthetic properties (e.g. the perceived level of beauty in an image) without using recognizable content, which makes them an excellent tool for studying abstract aesthetic judgement.</p><p class=""debrief""><strong>Your part:</strong> Your participation has helped us to further understand how humans perceive these patterns across different levels of speed and complexity. This research with allow us to better understand how the visual system and brain process our ever-changing visual environments.<p class=""debrief""><strong>Feedback and Further information:</strong> If you have additional questions about this study, please feel free to ask the researcher, Nathan Gonzales-Hess at nhess @ uoregon.edu. If you have any questions concerning your rights as a research participant, please contact Research Compliance Services, 5237 University of Oregon, Eugene, OR 97403, 541-346-2510, or email researchCompliance @ uoregon.edu. You can also email the Human Subjects Coordinator for psychology and linguistics research at hscoord @ uoregon.edu. ","0","",""
"","","","","","html-button-response","391","12819943","0.0-391.0","1920x1080","","2822.899999976158","","Thank you for participating in this study. <br>Please click below to finish the experiment and submit your responses.<br><br>","0","",""
"true","","","","","fullscreen","392","12820945","0.0-392.0","1920x1080","13:40 17/10/2022","","","","","",""
