"success","timeout","failed_images","failed_audio","failed_video","trial_type","trial_index","time_elapsed","internal_node_id","resolution","timeStamp","rt","response","stimulus","button_pressed","value","descriptor"
"true","false","[]","[]","[]","preload","0","20897","0.0-0.0","1920x1080","","","","","","",""
"true","false","[]","[]","[]","preload","1","40706","0.0-1.0","1920x1080","","","","","","",""
"true","false","[]","[]","[]","preload","2","61722","0.0-2.0","1920x1080","","","","","","",""
"true","","","","","fullscreen","3","212278","0.0-3.0","1920x1080","10:10 2/11/2022","","","","","",""
"","","","","","survey-html-form","4","224309","0.0-4.0","1920x1080","","12027.400000000023","{""age"":""19"",""gender"":""female""}","","","",""
"","","","","","html-button-response","5","288509","0.0-5.0","1920x1080","","64198.79999999999","","<div class=""complex"">You are going to see a series of animations.<br><br></div><div class=""complex"">Move the slider to indicate how <strong style=""text-transform:capitalize"">COMPLEX</strong> you find each animation.<br><br></div><div class=""complex"">0 = Least Complex<br></div><div class=""complex"">1 = Most Complex<br><br></div><div class=""complex"">Remember to use the <strong><em>entire range</em></strong> of the slider to make your ratings.<br></div><div class=""complex"">Please <strong><em>take your time</em></strong> and carefully consider each rating you make.<br><br></div><div class=""complex"">The study has five sections and will take about 45 minutes to complete.<br><br></div>","0","",""
"","","","","","call-function","6","288509","0.0-6.0","1920x1080","","","","","","",""
"","","","","","animation","7","295045","0.0-7.0","1920x1080","","6532.599999999977","15.34","img/117/3.5/2/bw/001.png","","","complex"
"","","","","","animation","8","299996","0.0-8.0","1920x1080","","4950.699999999953","2.65","img/117/5.5/1/bw/001.png","","","complex"
"","","","","","animation","9","304316","0.0-9.0","1920x1080","","4318.600000000035","41.67","img/117/2.5/1/bw/001.png","","","complex"
"","","","","","animation","10","312740","0.0-10.0","1920x1080","","8422.899999999965","4.89","img/117/4/1.5/bw/001.png","","","complex"
"","","","","","animation","11","318501","0.0-11.0","1920x1080","","5759.700000000012","48.41","img/117/2.5/0.66667/bw/001.png","","","complex"
"","","","","","animation","12","322068","0.0-12.0","1920x1080","","3566.2999999999884","23.41","img/117/3.5/1/bw/001.png","","","complex"
"","","","","","animation","13","327868","0.0-13.0","1920x1080","","5798.799999999988","63.10","img/117/2.5/2/bw/001.png","","","complex"
"","","","","","animation","14","331108","0.0-14.0","1920x1080","","3239.2000000000116","6.48","img/117/4.5/1.5/bw/001.png","","","complex"
"","","","","","animation","15","333548","0.0-15.0","1920x1080","","2439.3000000000466","8.47","img/117/4/1/bw/001.png","","","complex"
"","","","","","animation","16","337901","0.0-16.0","1920x1080","","4351.700000000012","2.12","img/238/5.5/1.5/bw/001.png","","","complex"
"","","","","","animation","17","341301","0.0-17.0","1920x1080","","3399","3.04","img/117/5.5/2/bw/001.png","","","complex"
"","","","","","animation","18","345092","0.0-18.0","1920x1080","","3790","42.86","img/117/4/2/bw/001.png","","","complex"
"","","","","","animation","19","352517","0.0-19.0","1920x1080","","7424.600000000035","35.71","img/314/4.5/1/bw/001.png","","","complex"
"","","","","","animation","20","357004","0.0-20.0","1920x1080","","4485.5","54.37","img/117/3.5/0.66667/bw/001.png","","","complex"
"","","","","","animation","21","371884","0.0-21.0","1920x1080","","14879.599999999977","41.93","img/117/4.5/2/bw/001.png","","","complex"
"","","","","","animation","22","376364","0.0-22.0","1920x1080","","4478.799999999988","15.74","img/314/5.5/1.5/bw/001.png","","","complex"
"","","","","","animation","23","380252","0.0-23.0","1920x1080","","3886.9000000000233","54.23","img/117/4.5/0.5/bw/001.png","","","complex"
"","","","","","animation","24","384548","0.0-24.0","1920x1080","","4295.700000000012","72.09","img/314/2.5/1.5/bw/001.png","","","complex"
"","","","","","animation","25","388717","0.0-25.0","1920x1080","","4167.699999999953","48.54","img/314/3.5/2/bw/001.png","","","complex"
"","","","","","animation","26","395436","0.0-26.0","1920x1080","","6718.299999999988","67","img/238/4.5/0.5/bw/001.png","","","complex"
"","","","","","animation","27","398164","0.0-27.0","1920x1080","","2727.4000000000233","45.11","img/238/4.5/1.5/bw/001.png","","","complex"
"","","","","","animation","28","403420","0.0-28.0","1920x1080","","5119.799999999988","67.72","img/314/4/0.66667/bw/001.png","","","complex"
"","","","","","animation","29","406771","0.0-29.0","1920x1080","","3350.2000000000116","82.54","img/238/3.5/1/bw/001.png","","","complex"
"","","","","","animation","30","409637","0.0-30.0","1920x1080","","2864.4000000000233","54.89","img/314/4/1.5/bw/001.png","","","complex"
"","","","","","animation","31","412836","0.0-31.0","1920x1080","","3198.5","66.53","img/117/4/0.5/bw/001.png","","","complex"
"","","","","","animation","32","416323","0.0-32.0","1920x1080","","3487","91.27","img/314/2.5/1/bw/001.png","","","complex"
"","","","","","animation","33","419643","0.0-33.0","1920x1080","","3319.2000000000116","7.41","img/314/5.5/0.66667/bw/001.png","","","complex"
"","","","","","animation","34","422787","0.0-34.0","1920x1080","","3143.0999999999767","7.80","img/238/5.5/1/bw/001.png","","","complex"
"","","","","","animation","35","425932","0.0-35.0","1920x1080","","3142.8000000000466","32.67","img/314/4.5/2/bw/001.png","","","complex"
"","","","","","animation","36","428860","0.0-36.0","1920x1080","","2927.3000000000466","34.92","img/117/5.5/1.5/bw/001.png","","","complex"
"","","","","","animation","37","431539","0.0-37.0","1920x1080","","2678.7000000000116","58.86","img/314/4/0.5/bw/001.png","","","complex"
"","","","","","animation","38","437364","0.0-38.0","1920x1080","","5823.600000000035","89.68","img/238/2.5/1/bw/001.png","","","complex"
"","","","","","animation","39","443324","0.0-39.0","1920x1080","","5958.799999999988","10.05","img/238/5.5/2/bw/001.png","","","complex"
"","","","","","animation","40","447371","0.0-40.0","1920x1080","","4046.4000000000233","91.27","img/314/2.5/2/bw/001.png","","","complex"
"","","","","","animation","41","452236","0.0-41.0","1920x1080","","4864","90.34","img/314/2.5/0.66667/bw/001.png","","","complex"
"","","","","","animation","42","455628","0.0-42.0","1920x1080","","3391.2000000000116","8.33","img/314/5.5/0.5/bw/001.png","","","complex"
"","","","","","animation","43","458684","0.0-43.0","1920x1080","","3055.2999999999884","19.05","img/314/5.5/1/bw/001.png","","","complex"
"","","","","","animation","44","461253","0.0-44.0","1920x1080","","2568.4000000000233","17.46","img/238/5.5/0.5/bw/001.png","","","complex"
"","","","","","animation","45","464019","0.0-45.0","1920x1080","","2599.0999999999767","33.07","img/238/4.5/2/bw/001.png","","","complex"
"","","","","","animation","46","467113","0.0-46.0","1920x1080","","3093.2999999999884","41.40","img/238/3.5/2/bw/001.png","","","complex"
"","","","","","animation","47","469857","0.0-47.0","1920x1080","","2743","81.61","img/117/2.5/0.5/bw/001.png","","","complex"
"","","","","","animation","48","473561","0.0-48.0","1920x1080","","3702.9000000000233","88.36","img/314/2.5/0.5/bw/001.png","","","complex"
"","","","","","animation","49","475961","0.0-49.0","1920x1080","","2399.8000000000466","62.57","img/314/3.5/0.66667/bw/001.png","","","complex"
"","","","","","animation","50","478649","0.0-50.0","1920x1080","","2687.2000000000116","52.78","img/238/4/0.5/bw/001.png","","","complex"
"","","","","","animation","51","484041","0.0-51.0","1920x1080","","5390.699999999953","63.89","img/314/3.5/0.5/bw/001.png","","","complex"
"","","","","","animation","52","487281","0.0-52.0","1920x1080","","3239.1999999999534","22.49","img/238/5.5/0.66667/bw/001.png","","","complex"
"","","","","","animation","53","489561","0.0-53.0","1920x1080","","2279.3000000000466","37.04","img/117/5.5/0.5/bw/001.png","","","complex"
"","","","","","animation","54","492003","0.0-54.0","1920x1080","","2440.29999999993","57","img/314/4.5/1.5/bw/001.png","","","complex"
"","","","","","animation","55","495225","0.0-55.0","1920x1080","","3221.9000000000233","68.39","img/314/3.5/1/bw/001.png","","","complex"
"","","","","","animation","56","499377","0.0-56.0","1920x1080","","4150.899999999907","72.22","img/238/4/1/bw/001.png","","","complex"
"","","","","","animation","57","504177","0.0-57.0","1920x1080","","4799.400000000023","34.13","img/117/5.5/0.66667/bw/001.png","","","complex"
"","","","","","animation","58","508770","0.0-58.0","1920x1080","","4590.599999999977","89.29","img/238/2.5/1.5/bw/001.png","","","complex"
"","","","","","animation","59","512025","0.0-59.0","1920x1080","","3254.9000000000233","96","img/238/2.5/0.66667/bw/001.png","","","complex"
"","","","","","animation","60","516705","0.0-60.0","1920x1080","","4678.599999999977","40.34","img/117/4/0.66667/bw/001.png","","","complex"
"","","","","","animation","61","519377","0.0-61.0","1920x1080","","2671.5","46.43","img/238/4.5/1/bw/001.png","","","complex"
"","","","","","animation","62","523105","0.0-62.0","1920x1080","","3726.79999999993","60.71","img/238/4.5/0.66667/bw/001.png","","","complex"
"","","","","","animation","63","527519","0.0-63.0","1920x1080","","4246.799999999988","71.96","img/238/3.5/1.5/bw/001.png","","","complex"
"","","","","","animation","64","533618","0.0-64.0","1920x1080","","6097.70000000007","55.42","img/238/3.5/0.5/bw/001.png","","","complex"
"","","","","","animation","65","537018","0.0-65.0","1920x1080","","3399.9000000000233","61.90","img/117/4.5/1/bw/001.png","","","complex"
"","","","","","animation","66","540287","0.0-66.0","1920x1080","","3268.1999999999534","85.05","img/117/2.5/1.5/bw/001.png","","","complex"
"","","","","","animation","67","544007","0.0-67.0","1920x1080","","3719.0999999999767","35","img/314/4.5/0.66667/bw/001.png","","","complex"
"","","","","","animation","68","547296","0.0-68.0","1920x1080","","3287.3000000000466","64.42","img/314/3.5/1.5/bw/001.png","","","complex"
"","","","","","animation","69","555823","0.0-69.0","1920x1080","","8526.79999999993","75.26","img/117/3.5/0.5/bw/001.png","","","complex"
"","","","","","animation","70","558712","0.0-70.0","1920x1080","","2887.3000000000466","25.26","img/238/4/2/bw/001.png","","","complex"
"","","","","","animation","71","563120","0.0-71.0","1920x1080","","4406.79999999993","77.25","img/117/3.5/1.5/bw/001.png","","","complex"
"","","","","","animation","72","565385","0.0-72.0","1920x1080","","2265","39.81","img/314/4/1/bw/001.png","","","complex"
"","","","","","animation","73","569128","0.0-73.0","1920x1080","","3741.3000000000466","90.48","img/238/2.5/2/bw/001.png","","","complex"
"","","","","","animation","74","571239","0.0-74.0","1920x1080","","2110.79999999993","48.02","img/314/4.5/0.5/bw/001.png","","","complex"
"","","","","","animation","75","574703","0.0-75.0","1920x1080","","3463.0999999999767","35.58","img/117/4.5/0.66667/bw/001.png","","","complex"
"","","","","","animation","76","577786","0.0-76.0","1920x1080","","3081.1999999999534","11.90","img/314/5.5/2/bw/001.png","","","complex"
"","","","","","animation","77","580735","0.0-77.0","1920x1080","","2948.9000000000233","55.42","img/238/3.5/0.66667/bw/001.png","","","complex"
"","","","","","animation","78","583135","0.0-78.0","1920x1080","","2399.20000000007","55.16","img/238/4/0.66667/bw/001.png","","","complex"
"","","","","","animation","79","585968","0.0-79.0","1920x1080","","2666","82.80","img/238/2.5/0.5/bw/001.png","","","complex"
"","","","","","animation","80","590485","0.0-80.0","1920x1080","","4515.900000000023","36","img/238/4/1.5/bw/001.png","","","complex"
"","","","","","animation","81","592989","0.0-81.0","1920x1080","","2500.899999999907","41.80","img/314/4/2/bw/001.png","","","complex"
"","","","","","html-button-response","82","612830","0.0-82.0","1920x1080","","19839.20000000007","","<div class=""intro"">You are about to view a new series of animations.<br><br></div><div class=""intro"">You will evaluate them based on a different descriptor.<br><br></div><div class=""intro"">Move the slider to indicate how <strong style=""text-transform:capitalize"">NATURAL</strong> you find each animation.<br><br></div><div class=""intro"">0 = Least Natural<br></div><div class=""intro"">1 = Most Natural<br><br></div><div class=""intro"">Remember to use the <strong><em>entire range</em></strong> of the slider to make your ratings.<br></div><div class=""intro"">Please <strong><em>take your time</em></strong> and carefully consider each rating you make.<br><br></div>","0","",""
"","","","","","call-function","83","612831","0.0-83.0","1920x1080","","","","","","",""
"","","","","","animation","84","617718","0.0-84.0","1920x1080","","4885.400000000023","22.49","img/117/5.5/0.66667/bw/001.png","","","natural"
"","","","","","animation","85","625078","0.0-85.0","1920x1080","","7359","6.61","img/117/3.5/1/bw/001.png","","","natural"
"","","","","","animation","86","629968","0.0-86.0","1920x1080","","4889.199999999953","72.62","img/117/5.5/2/bw/001.png","","","natural"
"","","","","","animation","87","633069","0.0-87.0","1920x1080","","3100.5","62.17","img/117/5.5/1.5/bw/001.png","","","natural"
"","","","","","animation","88","638646","0.0-88.0","1920x1080","","5575.300000000047","76.46","img/117/5.5/0.5/bw/001.png","","","natural"
"","","","","","animation","89","644276","0.0-89.0","1920x1080","","5462.900000000023","34.52","img/238/4.5/1.5/bw/001.png","","","natural"
"","","","","","animation","90","647267","0.0-90.0","1920x1080","","2990.5","11.24","img/238/2.5/0.5/bw/001.png","","","natural"
"","","","","","animation","91","650628","0.0-91.0","1920x1080","","3359.5","5.42","img/238/2.5/2/bw/001.png","","","natural"
"","","","","","animation","92","653619","0.0-92.0","1920x1080","","2990.4000000000233","68.52","img/314/4.5/1.5/bw/001.png","","","natural"
"","","","","","animation","93","655566","0.0-93.0","1920x1080","","1946.0999999999767","46.16","img/238/5.5/1.5/bw/001.png","","","natural"
"","","","","","animation","94","660627","0.0-94.0","1920x1080","","5060.199999999953","57.14","img/314/5.5/0.66667/bw/001.png","","","natural"
"","","","","","animation","95","664507","0.0-95.0","1920x1080","","3879.0999999999767","74.60","img/117/4/1.5/bw/001.png","","","natural"
"","","","","","animation","96","673987","0.0-96.0","1920x1080","","9479.100000000093","5.56","img/314/2.5/1.5/bw/001.png","","","natural"
"","","","","","animation","97","677987","0.0-97.0","1920x1080","","3996.8000000000466","65.61","img/314/4.5/0.5/bw/001.png","","","natural"
"","","","","","animation","98","681291","0.0-98.0","1920x1080","","3303.4000000000233","2.91","img/117/2.5/1/bw/001.png","","","natural"
"","","","","","animation","99","684628","0.0-99.0","1920x1080","","3334.9000000000233","38.10","img/238/4/2/bw/001.png","","","natural"
"","","","","","animation","100","687155","0.0-100.0","1920x1080","","2526.9000000000233","51.98","img/117/3.5/1.5/bw/001.png","","","natural"
"","","","","","animation","101","693587","0.0-101.0","1920x1080","","6430.699999999953","58.86","img/117/3.5/2/bw/001.png","","","natural"
"","","","","","animation","102","696739","0.0-102.0","1920x1080","","3151.1999999999534","17.86","img/238/4.5/0.5/bw/001.png","","","natural"
"","","","","","animation","103","700067","0.0-103.0","1920x1080","","3326.600000000093","35.45","img/314/5.5/1/bw/001.png","","","natural"
"","","","","","animation","104","703043","0.0-104.0","1920x1080","","2975.70000000007","49.60","img/314/4/0.5/bw/001.png","","","natural"
"","","","","","animation","105","707458","0.0-105.0","1920x1080","","4383.100000000093","61.11","img/238/4/0.66667/bw/001.png","","","natural"
"","","","","","animation","106","712497","0.0-106.0","1920x1080","","5038.70000000007","72.09","img/314/4.5/1/bw/001.png","","","natural"
"","","","","","animation","107","714964","0.0-107.0","1920x1080","","2465.5","14.02","img/314/4/1/bw/001.png","","","natural"
"","","","","","animation","108","718458","0.0-108.0","1920x1080","","3493","2","img/238/2.5/0.66667/bw/001.png","","","natural"
"","","","","","animation","109","721273","0.0-109.0","1920x1080","","2814.70000000007","83.33","img/238/5.5/0.66667/bw/001.png","","","natural"
"","","","","","animation","110","724802","0.0-110.0","1920x1080","","3527.29999999993","3.31","img/117/2.5/1.5/bw/001.png","","","natural"
"","","","","","animation","111","732033","0.0-111.0","1920x1080","","7230.600000000093","8.47","img/314/2.5/2/bw/001.png","","","natural"
"","","","","","animation","112","735397","0.0-112.0","1920x1080","","3362.1999999999534","16.27","img/314/3.5/1/bw/001.png","","","natural"
"","","","","","animation","113","737986","0.0-113.0","1920x1080","","2588.0999999999767","15.61","img/238/3.5/1.5/bw/001.png","","","natural"
"","","","","","animation","114","740754","0.0-114.0","1920x1080","","2767.0999999999767","15","img/238/3.5/1/bw/001.png","","","natural"
"","","","","","animation","115","743658","0.0-115.0","1920x1080","","2903.0999999999767","3.57","img/117/2.5/2/bw/001.png","","","natural"
"","","","","","animation","116","747914","0.0-116.0","1920x1080","","4255.199999999953","7.80","img/314/2.5/0.66667/bw/001.png","","","natural"
"","","","","","animation","117","750249","0.0-117.0","1920x1080","","2334.0999999999767","7.28","img/117/2.5/0.5/bw/001.png","","","natural"
"","","","","","animation","118","757330","0.0-118.0","1920x1080","","7079.400000000023","38.76","img/314/4.5/0.66667/bw/001.png","","","natural"
"","","","","","animation","119","759570","0.0-119.0","1920x1080","","2238.79999999993","42.06","img/238/4.5/2/bw/001.png","","","natural"
"","","","","","animation","120","762714","0.0-120.0","1920x1080","","3143.1999999999534","48.54","img/117/4/2/bw/001.png","","","natural"
"","","","","","animation","121","766415","0.0-121.0","1920x1080","","3697.9000000000233","23","img/314/3.5/0.5/bw/001.png","","","natural"
"","","","","","animation","122","772026","0.0-122.0","1920x1080","","5610.699999999953","66.14","img/238/4.5/0.66667/bw/001.png","","","natural"
"","","","","","animation","123","774970","0.0-123.0","1920x1080","","2942.79999999993","28.44","img/117/4.5/2/bw/001.png","","","natural"
"","","","","","animation","124","779431","0.0-124.0","1920x1080","","4459.400000000023","73.54","img/314/5.5/1.5/bw/001.png","","","natural"
"","","","","","animation","125","784082","0.0-125.0","1920x1080","","4650.20000000007","46.69","img/117/4/0.5/bw/001.png","","","natural"
"","","","","","animation","126","788842","0.0-126.0","1920x1080","","4759.400000000023","83.20","img/238/5.5/0.5/bw/001.png","","","natural"
"","","","","","animation","127","794658","0.0-127.0","1920x1080","","5815","77.51","img/117/5.5/1/bw/001.png","","","natural"
"","","","","","animation","128","798074","0.0-128.0","1920x1080","","3415.0999999999767","81.61","img/117/4.5/1.5/bw/001.png","","","natural"
"","","","","","animation","129","801364","0.0-129.0","1920x1080","","3288.8000000000466","68.25","img/238/4/0.5/bw/001.png","","","natural"
"","","","","","animation","130","805450","0.0-130.0","1920x1080","","4085","35.58","img/314/3.5/2/bw/001.png","","","natural"
"","","","","","animation","131","808797","0.0-131.0","1920x1080","","3346","25.53","img/314/3.5/0.66667/bw/001.png","","","natural"
"","","","","","animation","132","811858","0.0-132.0","1920x1080","","3060.1999999999534","17.33","img/314/3.5/1.5/bw/001.png","","","natural"
"","","","","","animation","133","814154","0.0-133.0","1920x1080","","2294.9000000000233","21.03","img/238/4/1.5/bw/001.png","","","natural"
"","","","","","animation","134","816148","0.0-134.0","1920x1080","","1992.2999999999302","31.35","img/117/4.5/1/bw/001.png","","","natural"
"","","","","","animation","135","819282","0.0-135.0","1920x1080","","3133.4000000000233","34.39","img/117/4/0.66667/bw/001.png","","","natural"
"","","","","","animation","136","821698","0.0-136.0","1920x1080","","2414.70000000007","12.57","img/238/4/1/bw/001.png","","","natural"
"","","","","","animation","137","823830","0.0-137.0","1920x1080","","2131.8000000000466","20.77","img/117/4/1/bw/001.png","","","natural"
"","","","","","animation","138","826058","0.0-138.0","1920x1080","","2226.8000000000466","20","img/117/4.5/0.5/bw/001.png","","","natural"
"","","","","","animation","139","830170","0.0-139.0","1920x1080","","4110.899999999907","60.19","img/314/5.5/2/bw/001.png","","","natural"
"","","","","","animation","140","833747","0.0-140.0","1920x1080","","3575.9000000000233","3.17","img/117/2.5/0.66667/bw/001.png","","","natural"
"","","","","","animation","141","837138","0.0-141.0","1920x1080","","3389.9000000000233","0.93","img/314/2.5/1/bw/001.png","","","natural"
"","","","","","animation","142","841430","0.0-142.0","1920x1080","","4291.20000000007","0","img/238/2.5/1.5/bw/001.png","","","natural"
"","","","","","animation","143","845690","0.0-143.0","1920x1080","","4258.699999999953","27.51","img/238/3.5/0.5/bw/001.png","","","natural"
"","","","","","animation","144","848322","0.0-144.0","1920x1080","","2631","52.12","img/314/5.5/0.5/bw/001.png","","","natural"
"","","","","","animation","145","851049","0.0-145.0","1920x1080","","2726.600000000093","29.10","img/117/4.5/0.66667/bw/001.png","","","natural"
"","","","","","animation","146","853690","0.0-146.0","1920x1080","","2639.29999999993","8.73","img/314/2.5/0.5/bw/001.png","","","natural"
"","","","","","animation","147","856180","0.0-147.0","1920x1080","","2489.4000000000233","21.16","img/314/4/0.66667/bw/001.png","","","natural"
"","","","","","animation","148","861258","0.0-148.0","1920x1080","","5076.699999999953","77.25","img/238/5.5/2/bw/001.png","","","natural"
"","","","","","animation","149","865913","0.0-149.0","1920x1080","","4654.5","73.02","img/238/5.5/1/bw/001.png","","","natural"
"","","","","","animation","150","869402","0.0-150.0","1920x1080","","3487.4000000000233","85.19","img/314/4.5/2/bw/001.png","","","natural"
"","","","","","animation","151","872163","0.0-151.0","1920x1080","","2760.4000000000233","56.48","img/314/4/2/bw/001.png","","","natural"
"","","","","","animation","152","875122","0.0-152.0","1920x1080","","2957.5","3.57","img/238/2.5/1/bw/001.png","","","natural"
"","","","","","animation","153","877613","0.0-153.0","1920x1080","","2490.29999999993","25.40","img/238/3.5/0.66667/bw/001.png","","","natural"
"","","","","","animation","154","880538","0.0-154.0","1920x1080","","2923.6999999999534","41.67","img/314/4/1.5/bw/001.png","","","natural"
"","","","","","animation","155","883914","0.0-155.0","1920x1080","","3374.6999999999534","49.07","img/117/3.5/0.66667/bw/001.png","","","natural"
"","","","","","animation","156","886522","0.0-156.0","1920x1080","","2607.4000000000233","58.86","img/117/3.5/0.5/bw/001.png","","","natural"
"","","","","","animation","157","889231","0.0-157.0","1920x1080","","2707.9000000000233","33.20","img/238/3.5/2/bw/001.png","","","natural"
"","","","","","animation","158","891650","0.0-158.0","1920x1080","","2417.20000000007","44.44","img/238/4.5/1/bw/001.png","","","natural"
"","","","","","html-button-response","159","910731","0.0-159.0","1920x1080","","19080.400000000023","","<div class=""intro"">You are about to view a new series of animations.<br><br></div><div class=""intro"">You will evaluate them based on a different descriptor.<br><br></div><div class=""intro"">Move the slider to indicate how <strong style=""text-transform:capitalize"">INTERESTING</strong> you find each animation.<br><br></div><div class=""intro"">0 = Least Interesting<br></div><div class=""intro"">1 = Most Interesting<br><br></div><div class=""intro"">Remember to use the <strong><em>entire range</em></strong> of the slider to make your ratings.<br></div><div class=""intro"">Please <strong><em>take your time</em></strong> and carefully consider each rating you make.<br><br></div>","0","",""
"","","","","","call-function","160","910732","0.0-160.0","1920x1080","","","","","","",""
"","","","","","animation","161","914602","0.0-161.0","1920x1080","","3869.100000000093","77.65","img/238/5.5/2/bw/001.png","","","interesting"
"","","","","","animation","162","917570","0.0-162.0","1920x1080","","2967.29999999993","24.87","img/238/3.5/1/bw/001.png","","","interesting"
"","","","","","animation","163","920258","0.0-163.0","1920x1080","","2687.1999999999534","13.49","img/117/3.5/0.5/bw/001.png","","","interesting"
"","","","","","animation","164","923430","0.0-164.0","1920x1080","","3171.100000000093","9.79","img/238/3.5/0.66667/bw/001.png","","","interesting"
"","","","","","animation","165","926298","0.0-165.0","1920x1080","","2866.5","29","img/314/4/0.66667/bw/001.png","","","interesting"
"","","","","","animation","166","930538","0.0-166.0","1920x1080","","4239.400000000023","54.23","img/117/2.5/0.66667/bw/001.png","","","interesting"
"","","","","","animation","167","936130","0.0-167.0","1920x1080","","5591.300000000047","79","img/238/5.5/1/bw/001.png","","","interesting"
"","","","","","animation","168","941490","0.0-168.0","1920x1080","","5358.599999999977","33.60","img/238/3.5/1.5/bw/001.png","","","interesting"
"","","","","","animation","169","944647","0.0-169.0","1920x1080","","3155.5","12.43","img/314/2.5/1/bw/001.png","","","interesting"
"","","","","","animation","170","947747","0.0-170.0","1920x1080","","3099.0999999999767","60.85","img/238/4.5/2/bw/001.png","","","interesting"
"","","","","","animation","171","950564","0.0-171.0","1920x1080","","2815.79999999993","87.17","img/314/5.5/0.66667/bw/001.png","","","interesting"
"","","","","","animation","172","955698","0.0-172.0","1920x1080","","5133.099999999977","95","img/238/5.5/0.66667/bw/001.png","","","interesting"
"","","","","","animation","173","957970","0.0-173.0","1920x1080","","2271.1999999999534","33.60","img/314/4.5/1/bw/001.png","","","interesting"
"","","","","","animation","174","960814","0.0-174.0","1920x1080","","2842.70000000007","8.86","img/117/2.5/0.5/bw/001.png","","","interesting"
"","","","","","animation","175","963498","0.0-175.0","1920x1080","","2683","35.85","img/238/4/0.66667/bw/001.png","","","interesting"
"","","","","","animation","176","966047","0.0-176.0","1920x1080","","2548.5","46.83","img/314/4/1.5/bw/001.png","","","interesting"
"","","","","","animation","177","969970","0.0-177.0","1920x1080","","3921.79999999993","13.76","img/238/2.5/0.5/bw/001.png","","","interesting"
"","","","","","animation","178","973338","0.0-178.0","1920x1080","","3366.79999999993","3.97","img/238/2.5/1.5/bw/001.png","","","interesting"
"","","","","","animation","179","975810","0.0-179.0","1920x1080","","2470.6999999999534","37.96","img/117/3.5/0.66667/bw/001.png","","","interesting"
"","","","","","animation","180","977986","0.0-180.0","1920x1080","","2174.29999999993","25","img/117/3.5/2/bw/001.png","","","interesting"
"","","","","","animation","181","980018","0.0-181.0","1920x1080","","2031","57.94","img/238/4/2/bw/001.png","","","interesting"
"","","","","","animation","182","986122","0.0-182.0","1920x1080","","6102.900000000023","41.01","img/314/3.5/1.5/bw/001.png","","","interesting"
"","","","","","animation","183","989198","0.0-183.0","1920x1080","","3073.6999999999534","27.91","img/238/4/1.5/bw/001.png","","","interesting"
"","","","","","animation","184","992490","0.0-184.0","1920x1080","","3291.0999999999767","56.48","img/314/5.5/1/bw/001.png","","","interesting"
"","","","","","animation","185","996031","0.0-185.0","1920x1080","","3539","26.32","img/117/3.5/1/bw/001.png","","","interesting"
"","","","","","animation","186","999450","0.0-186.0","1920x1080","","3418.20000000007","75.13","img/238/4.5/0.66667/bw/001.png","","","interesting"
"","","","","","animation","187","1002418","0.0-187.0","1920x1080","","2967.0999999999767","7.41","img/238/2.5/0.66667/bw/001.png","","","interesting"
"","","","","","animation","188","1004922","0.0-188.0","1920x1080","","2502.9000000000233","40.21","img/238/4/0.5/bw/001.png","","","interesting"
"","","","","","animation","189","1008364","0.0-189.0","1920x1080","","3440.9000000001397","56.75","img/314/4.5/0.5/bw/001.png","","","interesting"
"","","","","","animation","190","1011970","0.0-190.0","1920x1080","","3604.8000000000466","89.81","img/314/5.5/0.5/bw/001.png","","","interesting"
"","","","","","animation","191","1015098","0.0-191.0","1920x1080","","3126.5","57.41","img/314/4/0.5/bw/001.png","","","interesting"
"","","","","","animation","192","1021247","0.0-192.0","1920x1080","","6148.300000000047","82.14","img/117/5.5/0.5/bw/001.png","","","interesting"
"","","","","","animation","193","1024386","0.0-193.0","1920x1080","","3137.9000000001397","33.99","img/117/4/1.5/bw/001.png","","","interesting"
"","","","","","animation","194","1027250","0.0-194.0","1920x1080","","2862.399999999907","55.03","img/117/4.5/0.5/bw/001.png","","","interesting"
"","","","","","animation","195","1030466","0.0-195.0","1920x1080","","3215","37.57","img/238/4.5/0.5/bw/001.png","","","interesting"
"","","","","","animation","196","1035064","0.0-196.0","1920x1080","","4596.90000000014","6.75","img/117/2.5/1.5/bw/001.png","","","interesting"
"","","","","","animation","197","1037381","0.0-197.0","1920x1080","","2315.6999999999534","32","img/117/4.5/1.5/bw/001.png","","","interesting"
"","","","","","animation","198","1040666","0.0-198.0","1920x1080","","3284.4000000001397","12.96","img/314/2.5/0.5/bw/001.png","","","interesting"
"","","","","","animation","199","1046181","0.0-199.0","1920x1080","","5513.5","95","img/238/5.5/0.5/bw/001.png","","","interesting"
"","","","","","animation","200","1049064","0.0-200.0","1920x1080","","2881.9000000001397","28.97","img/238/3.5/2/bw/001.png","","","interesting"
"","","","","","animation","201","1051214","0.0-201.0","1920x1080","","2148.9000000001397","36","img/117/4/0.66667/bw/001.png","","","interesting"
"","","","","","animation","202","1054780","0.0-202.0","1920x1080","","3565","51","img/238/2.5/2/bw/001.png","","","interesting"
"","","","","","animation","203","1057386","0.0-203.0","1920x1080","","2605.1999999999534","2.91","img/314/3.5/0.5/bw/001.png","","","interesting"
"","","","","","animation","204","1060831","0.0-204.0","1920x1080","","3443.1999999999534","33.47","img/238/2.5/1/bw/001.png","","","interesting"
"","","","","","animation","205","1063890","0.0-205.0","1920x1080","","3058.5999999998603","83.47","img/117/5.5/0.66667/bw/001.png","","","interesting"
"","","","","","animation","206","1066892","0.0-206.0","1920x1080","","3000.399999999907","49.74","img/117/4.5/0.66667/bw/001.png","","","interesting"
"","","","","","animation","207","1069864","0.0-207.0","1920x1080","","2970","63.62","img/117/5.5/1/bw/001.png","","","interesting"
"","","","","","animation","208","1078922","0.0-208.0","1920x1080","","9056.90000000014","84.13","img/314/5.5/1.5/bw/001.png","","","interesting"
"","","","","","animation","209","1081764","0.0-209.0","1920x1080","","2839.0999999998603","51.98","img/314/4.5/0.66667/bw/001.png","","","interesting"
"","","","","","animation","210","1084880","0.0-210.0","1920x1080","","3114.5","68.12","img/314/5.5/2/bw/001.png","","","interesting"
"","","","","","animation","211","1087781","0.0-211.0","1920x1080","","2899.5","7.01","img/117/2.5/2/bw/001.png","","","interesting"
"","","","","","animation","212","1091231","0.0-212.0","1920x1080","","3448.3000000000466","35.85","img/314/4.5/1.5/bw/001.png","","","interesting"
"","","","","","animation","213","1093314","0.0-213.0","1920x1080","","2082","50","img/117/4/2/bw/001.png","","","interesting"
"","","","","","animation","214","1095922","0.0-214.0","1920x1080","","2607.4000000001397","57.14","img/117/5.5/2/bw/001.png","","","interesting"
"","","","","","animation","215","1099418","0.0-215.0","1920x1080","","3494.6999999999534","64.02","img/117/4.5/2/bw/001.png","","","interesting"
"","","","","","animation","216","1102818","0.0-216.0","1920x1080","","3398.5","6.75","img/314/2.5/1.5/bw/001.png","","","interesting"
"","","","","","animation","217","1106064","0.0-217.0","1920x1080","","3244.8000000000466","47.22","img/314/3.5/1/bw/001.png","","","interesting"
"","","","","","animation","218","1108539","0.0-218.0","1920x1080","","2473.3000000000466","62","img/238/4.5/1.5/bw/001.png","","","interesting"
"","","","","","animation","219","1110983","0.0-219.0","1920x1080","","2442.600000000093","23.41","img/117/3.5/1.5/bw/001.png","","","interesting"
"","","","","","animation","220","1112882","0.0-220.0","1920x1080","","1898.1999999999534","48.94","img/314/4.5/2/bw/001.png","","","interesting"
"","","","","","animation","221","1115498","0.0-221.0","1920x1080","","2614.6999999999534","7.01","img/314/2.5/2/bw/001.png","","","interesting"
"","","","","","animation","222","1117331","0.0-222.0","1920x1080","","1831.8000000000466","48.41","img/117/4.5/1/bw/001.png","","","interesting"
"","","","","","animation","223","1119706","0.0-223.0","1920x1080","","2374.3000000000466","56.88","img/238/4.5/1/bw/001.png","","","interesting"
"","","","","","animation","224","1123264","0.0-224.0","1920x1080","","3556.9000000001397","23.81","img/238/3.5/0.5/bw/001.png","","","interesting"
"","","","","","animation","225","1125997","0.0-225.0","1920x1080","","2732.0999999998603","11.24","img/117/2.5/1/bw/001.png","","","interesting"
"","","","","","animation","226","1129850","0.0-226.0","1920x1080","","3851.3000000000466","63.62","img/117/5.5/1.5/bw/001.png","","","interesting"
"","","","","","animation","227","1137666","0.0-227.0","1920x1080","","7814.800000000047","13.76","img/117/4/0.5/bw/001.png","","","interesting"
"","","","","","animation","228","1140722","0.0-228.0","1920x1080","","3055","28.70","img/238/4/1/bw/001.png","","","interesting"
"","","","","","animation","229","1155234","0.0-229.0","1920x1080","","14510.5","23.02","img/117/4/1/bw/001.png","","","interesting"
"","","","","","animation","230","1160922","0.0-230.0","1920x1080","","5686.800000000047","85","img/238/5.5/1.5/bw/001.png","","","interesting"
"","","","","","animation","231","1163850","0.0-231.0","1920x1080","","2926","8.73","img/314/2.5/0.66667/bw/001.png","","","interesting"
"","","","","","animation","232","1166497","0.0-232.0","1920x1080","","2646","29.76","img/314/3.5/2/bw/001.png","","","interesting"
"","","","","","animation","233","1171066","0.0-233.0","1920x1080","","4567.59999999986","16.53","img/314/3.5/0.66667/bw/001.png","","","interesting"
"","","","","","animation","234","1173354","0.0-234.0","1920x1080","","2287.100000000093","58.07","img/314/4/2/bw/001.png","","","interesting"
"","","","","","animation","235","1175450","0.0-235.0","1920x1080","","2094","32.80","img/314/4/1/bw/001.png","","","interesting"
"","","","","","html-button-response","236","1194650","0.0-236.0","1920x1080","","19199.200000000186","","<div class=""intro"">You are about to view a new series of animations.<br><br></div><div class=""intro"">You will evaluate them based on a different descriptor.<br><br></div><div class=""intro"">Move the slider to indicate how <strong style=""text-transform:capitalize"">RELAXING</strong> you find each animation.<br><br></div><div class=""intro"">0 = Least Relaxing<br></div><div class=""intro"">1 = Most Relaxing<br><br></div><div class=""intro"">Remember to use the <strong><em>entire range</em></strong> of the slider to make your ratings.<br></div><div class=""intro"">Please <strong><em>take your time</em></strong> and carefully consider each rating you make.<br><br></div>","0","",""
"","","","","","call-function","237","1194650","0.0-237.0","1920x1080","","","","","","",""
"","","","","","animation","238","1198369","0.0-238.0","1920x1080","","3718","14.29","img/117/3.5/1.5/bw/001.png","","","relaxing"
"","","","","","animation","239","1203321","0.0-239.0","1920x1080","","4951","6.35","img/238/2.5/1/bw/001.png","","","relaxing"
"","","","","","animation","240","1206049","0.0-240.0","1920x1080","","2726.3000000000466","3.44","img/238/2.5/0.5/bw/001.png","","","relaxing"
"","","","","","animation","241","1208980","0.0-241.0","1920x1080","","2929.399999999907","59.92","img/314/4.5/2/bw/001.png","","","relaxing"
"","","","","","animation","242","1211337","0.0-242.0","1920x1080","","2356.0999999998603","13.62","img/117/3.5/0.5/bw/001.png","","","relaxing"
"","","","","","animation","243","1213596","0.0-243.0","1920x1080","","2257.5","71.30","img/314/5.5/1.5/bw/001.png","","","relaxing"
"","","","","","animation","244","1216369","0.0-244.0","1920x1080","","2771.9000000001397","76.85","img/238/5.5/1.5/bw/001.png","","","relaxing"
"","","","","","animation","245","1219063","0.0-245.0","1920x1080","","2692.5","26.32","img/238/4.5/1/bw/001.png","","","relaxing"
"","","","","","animation","246","1221649","0.0-246.0","1920x1080","","2584.6999999999534","56.75","img/117/5.5/1.5/bw/001.png","","","relaxing"
"","","","","","animation","247","1226146","0.0-247.0","1920x1080","","4496.09999999986","38.49","img/238/5.5/0.66667/bw/001.png","","","relaxing"
"","","","","","animation","248","1228537","0.0-248.0","1920x1080","","2390.100000000093","17.72","img/238/4/0.66667/bw/001.png","","","relaxing"
"","","","","","animation","249","1230913","0.0-249.0","1920x1080","","2374.5","13.62","img/238/2.5/1.5/bw/001.png","","","relaxing"
"","","","","","animation","250","1235033","0.0-250.0","1920x1080","","4118.800000000047","67.72","img/238/5.5/2/bw/001.png","","","relaxing"
"","","","","","animation","251","1237953","0.0-251.0","1920x1080","","2917.6999999999534","20.77","img/314/4/0.5/bw/001.png","","","relaxing"
"","","","","","animation","252","1241030","0.0-252.0","1920x1080","","3075.1999999999534","9.92","img/117/3.5/0.66667/bw/001.png","","","relaxing"
"","","","","","animation","253","1246496","0.0-253.0","1920x1080","","5464.899999999907","91","img/117/5.5/2/bw/001.png","","","relaxing"
"","","","","","animation","254","1252112","0.0-254.0","1920x1080","","5614.5","36.90","img/117/5.5/0.66667/bw/001.png","","","relaxing"
"","","","","","animation","255","1254617","0.0-255.0","1920x1080","","2503.3000000000466","15.34","img/238/3.5/1.5/bw/001.png","","","relaxing"
"","","","","","animation","256","1257112","0.0-256.0","1920x1080","","2494.3000000000466","54.89","img/314/5.5/0.66667/bw/001.png","","","relaxing"
"","","","","","animation","257","1259536","0.0-257.0","1920x1080","","2423.1999999999534","2","img/314/3.5/0.66667/bw/001.png","","","relaxing"
"","","","","","animation","258","1262346","0.0-258.0","1920x1080","","2807.6999999999534","2.78","img/117/4/0.66667/bw/001.png","","","relaxing"
"","","","","","animation","259","1265246","0.0-259.0","1920x1080","","2898.7000000001863","0.93","img/314/2.5/1.5/bw/001.png","","","relaxing"
"","","","","","animation","260","1267612","0.0-260.0","1920x1080","","2365.4000000001397","24.47","img/238/4.5/2/bw/001.png","","","relaxing"
"","","","","","animation","261","1270120","0.0-261.0","1920x1080","","2506.600000000093","12.43","img/117/4.5/2/bw/001.png","","","relaxing"
"","","","","","animation","262","1272585","0.0-262.0","1920x1080","","2462.600000000093","3.70","img/117/4/0.5/bw/001.png","","","relaxing"
"","","","","","animation","263","1274969","0.0-263.0","1920x1080","","2382.8000000000466","7","img/314/4.5/0.5/bw/001.png","","","relaxing"
"","","","","","animation","264","1279462","0.0-264.0","1920x1080","","4492.5","10.71","img/238/4/1.5/bw/001.png","","","relaxing"
"","","","","","animation","265","1283433","0.0-265.0","1920x1080","","3969","34.52","img/238/4.5/1.5/bw/001.png","","","relaxing"
"","","","","","animation","266","1286248","0.0-266.0","1920x1080","","2814.5","1.98","img/314/2.5/0.5/bw/001.png","","","relaxing"
"","","","","","animation","267","1288712","0.0-267.0","1920x1080","","2462.600000000093","27.38","img/117/4.5/1/bw/001.png","","","relaxing"
"","","","","","animation","268","1291369","0.0-268.0","1920x1080","","2655.3000000000466","8.60","img/117/2.5/0.66667/bw/001.png","","","relaxing"
"","","","","","animation","269","1293537","0.0-269.0","1920x1080","","2166.7000000001863","36.51","img/314/4/1/bw/001.png","","","relaxing"
"","","","","","animation","270","1295713","0.0-270.0","1920x1080","","2175","51","img/238/4.5/0.5/bw/001.png","","","relaxing"
"","","","","","animation","271","1298536","0.0-271.0","1920x1080","","2822.0999999998603","58.86","img/238/4.5/0.66667/bw/001.png","","","relaxing"
"","","","","","animation","272","1301161","0.0-272.0","1920x1080","","2623.8000000000466","20","img/238/3.5/2/bw/001.png","","","relaxing"
"","","","","","animation","273","1303911","0.0-273.0","1920x1080","","2748.8000000000466","25.79","img/314/4.5/0.66667/bw/001.png","","","relaxing"
"","","","","","animation","274","1308367","0.0-274.0","1920x1080","","4455.800000000047","0","img/314/2.5/1/bw/001.png","","","relaxing"
"","","","","","animation","275","1310994","0.0-275.0","1920x1080","","2624.600000000093","76","img/238/5.5/0.5/bw/001.png","","","relaxing"
"","","","","","animation","276","1313183","0.0-276.0","1920x1080","","2188.4000000001397","25.26","img/238/4/2/bw/001.png","","","relaxing"
"","","","","","animation","277","1315463","0.0-277.0","1920x1080","","2278.7000000001863","29.50","img/117/4/2/bw/001.png","","","relaxing"
"","","","","","animation","278","1320111","0.0-278.0","1920x1080","","4646.100000000093","2.12","img/117/2.5/1/bw/001.png","","","relaxing"
"","","","","","animation","279","1325135","0.0-279.0","1920x1080","","5023.5","64.55","img/314/5.5/1/bw/001.png","","","relaxing"
"","","","","","animation","280","1328719","0.0-280.0","1920x1080","","3582.600000000093","4.76","img/314/2.5/2/bw/001.png","","","relaxing"
"","","","","","animation","281","1331811","0.0-281.0","1920x1080","","3089.6999999999534","57.01","img/314/4.5/1/bw/001.png","","","relaxing"
"","","","","","animation","282","1336680","0.0-282.0","1920x1080","","4868","74.60","img/238/5.5/1/bw/001.png","","","relaxing"
"","","","","","animation","283","1339384","0.0-283.0","1920x1080","","2703","18.78","img/314/4/0.66667/bw/001.png","","","relaxing"
"","","","","","animation","284","1342728","0.0-284.0","1920x1080","","3343.0999999998603","8.60","img/117/4.5/0.5/bw/001.png","","","relaxing"
"","","","","","animation","285","1347628","0.0-285.0","1920x1080","","4898.5","3","img/117/4/1.5/bw/001.png","","","relaxing"
"","","","","","animation","286","1351495","0.0-286.0","1920x1080","","3865.9000000001397","1.19","img/314/2.5/0.66667/bw/001.png","","","relaxing"
"","","","","","animation","287","1354322","0.0-287.0","1920x1080","","2825.5","0","img/117/2.5/1.5/bw/001.png","","","relaxing"
"","","","","","animation","288","1358800","0.0-288.0","1920x1080","","4476.199999999953","86","img/314/5.5/0.5/bw/001.png","","","relaxing"
"","","","","","animation","289","1362728","0.0-289.0","1920x1080","","3926.8000000000466","77.65","img/117/5.5/0.5/bw/001.png","","","relaxing"
"","","","","","animation","290","1366344","0.0-290.0","1920x1080","","3614.600000000093","19","img/314/3.5/1.5/bw/001.png","","","relaxing"
"","","","","","animation","291","1369752","0.0-291.0","1920x1080","","3405.3000000000466","26.32","img/117/3.5/2/bw/001.png","","","relaxing"
"","","","","","animation","292","1373111","0.0-292.0","1920x1080","","3358.3000000000466","37.83","img/238/4/1/bw/001.png","","","relaxing"
"","","","","","animation","293","1376180","0.0-293.0","1920x1080","","3066.899999999907","26.19","img/238/4/0.5/bw/001.png","","","relaxing"
"","","","","","animation","294","1379480","0.0-294.0","1920x1080","","3297.4000000001397","17.20","img/314/3.5/1/bw/001.png","","","relaxing"
"","","","","","animation","295","1382752","0.0-295.0","1920x1080","","3270.2999999998137","7.54","img/238/2.5/0.66667/bw/001.png","","","relaxing"
"","","","","","animation","296","1385512","0.0-296.0","1920x1080","","2758.7000000001863","25.40","img/238/3.5/0.66667/bw/001.png","","","relaxing"
"","","","","","animation","297","1388095","0.0-297.0","1920x1080","","2582.0999999998603","75.79","img/117/5.5/1/bw/001.png","","","relaxing"
"","","","","","animation","298","1390757","0.0-298.0","1920x1080","","2661","2.78","img/238/2.5/2/bw/001.png","","","relaxing"
"","","","","","animation","299","1393278","0.0-299.0","1920x1080","","2519","18","img/314/4/2/bw/001.png","","","relaxing"
"","","","","","animation","300","1396063","0.0-300.0","1920x1080","","2783.8000000000466","75","img/314/5.5/2/bw/001.png","","","relaxing"
"","","","","","animation","301","1399091","0.0-301.0","1920x1080","","3026.2000000001863","10.45","img/314/3.5/0.5/bw/001.png","","","relaxing"
"","","","","","animation","302","1401945","0.0-302.0","1920x1080","","2852.600000000093","5.29","img/117/3.5/1/bw/001.png","","","relaxing"
"","","","","","animation","303","1404195","0.0-303.0","1920x1080","","2249","11.64","img/117/4/1/bw/001.png","","","relaxing"
"","","","","","animation","304","1407678","0.0-304.0","1920x1080","","3482.0999999998603","29.76","img/314/4/1.5/bw/001.png","","","relaxing"
"","","","","","animation","305","1410663","0.0-305.0","1920x1080","","2983.8000000000466","39","img/117/4.5/0.66667/bw/001.png","","","relaxing"
"","","","","","animation","306","1412936","0.0-306.0","1920x1080","","2270.8000000000466","43.25","img/117/4.5/1.5/bw/001.png","","","relaxing"
"","","","","","animation","307","1415098","0.0-307.0","1920x1080","","2160.600000000093","29.23","img/314/4.5/1.5/bw/001.png","","","relaxing"
"","","","","","animation","308","1417767","0.0-308.0","1920x1080","","2668.4000000001397","15.21","img/314/3.5/2/bw/001.png","","","relaxing"
"","","","","","animation","309","1419945","0.0-309.0","1920x1080","","2175.5","6","img/117/2.5/0.5/bw/001.png","","","relaxing"
"","","","","","animation","310","1422644","0.0-310.0","1920x1080","","2698.6999999999534","20.77","img/238/3.5/0.5/bw/001.png","","","relaxing"
"","","","","","animation","311","1425527","0.0-311.0","1920x1080","","2881.8000000000466","3.04","img/117/2.5/2/bw/001.png","","","relaxing"
"","","","","","animation","312","1427504","0.0-312.0","1920x1080","","1976","48.15","img/238/3.5/1/bw/001.png","","","relaxing"
"","","","","","html-button-response","313","1446712","0.0-313.0","1920x1080","","19205.40000000014","","<div class=""intro"">You are about to view a new series of animations.<br><br></div><div class=""intro"">You will evaluate them based on a different descriptor.<br><br></div><div class=""intro"">Move the slider to indicate how <strong style=""text-transform:capitalize"">APPEALING</strong> you find each animation.<br><br></div><div class=""intro"">0 = Least Appealing<br></div><div class=""intro"">1 = Most Appealing<br><br></div><div class=""intro"">Remember to use the <strong><em>entire range</em></strong> of the slider to make your ratings.<br></div><div class=""intro"">Please <strong><em>take your time</em></strong> and carefully consider each rating you make.<br><br></div>","0","",""
"","","","","","call-function","314","1446712","0.0-314.0","1920x1080","","","","","","",""
"","","","","","animation","315","1449416","0.0-315.0","1920x1080","","2702.4000000001397","58.47","img/238/4.5/0.66667/bw/001.png","","","appealing"
"","","","","","animation","316","1452263","0.0-316.0","1920x1080","","2845.9000000001397","31.61","img/117/4/1.5/bw/001.png","","","appealing"
"","","","","","animation","317","1454529","0.0-317.0","1920x1080","","2265.100000000093","12","img/238/2.5/1.5/bw/001.png","","","appealing"
"","","","","","animation","318","1457911","0.0-318.0","1920x1080","","3380.5999999998603","32","img/238/4/2/bw/001.png","","","appealing"
"","","","","","animation","319","1461702","0.0-319.0","1920x1080","","3789.7999999998137","97","img/314/5.5/0.66667/bw/001.png","","","appealing"
"","","","","","animation","320","1464244","0.0-320.0","1920x1080","","2540.6999999999534","20.77","img/238/3.5/2/bw/001.png","","","appealing"
"","","","","","animation","321","1467415","0.0-321.0","1920x1080","","3168.9000000001397","10","img/117/2.5/0.5/bw/001.png","","","appealing"
"","","","","","animation","322","1470086","0.0-322.0","1920x1080","","2669.3000000000466","38.23","img/238/4/0.66667/bw/001.png","","","appealing"
"","","","","","animation","323","1473594","0.0-323.0","1920x1080","","3506.899999999907","25.40","img/314/4/0.5/bw/001.png","","","appealing"
"","","","","","animation","324","1476079","0.0-324.0","1920x1080","","2484","10.45","img/238/2.5/0.5/bw/001.png","","","appealing"
"","","","","","animation","325","1478500","0.0-325.0","1920x1080","","2419.9000000001397","7.94","img/117/2.5/0.66667/bw/001.png","","","appealing"
"","","","","","animation","326","1481631","0.0-326.0","1920x1080","","3129.4000000001397","4","img/117/2.5/1/bw/001.png","","","appealing"
"","","","","","animation","327","1486550","0.0-327.0","1920x1080","","4918.200000000186","27.38","img/117/4/0.66667/bw/001.png","","","appealing"
"","","","","","animation","328","1489415","0.0-328.0","1920x1080","","2863.0999999998603","15.48","img/117/3.5/2/bw/001.png","","","appealing"
"","","","","","animation","329","1491561","0.0-329.0","1920x1080","","2144.8000000000466","30.29","img/238/4/0.5/bw/001.png","","","appealing"
"","","","","","animation","330","1494345","0.0-330.0","1920x1080","","2782.600000000093","19.18","img/117/3.5/1/bw/001.png","","","appealing"
"","","","","","animation","331","1497861","0.0-331.0","1920x1080","","3514.5999999998603","13.76","img/314/3.5/1/bw/001.png","","","appealing"
"","","","","","animation","332","1501068","0.0-332.0","1920x1080","","3206","67.59","img/117/5.5/0.66667/bw/001.png","","","appealing"
"","","","","","animation","333","1503451","0.0-333.0","1920x1080","","2380.8000000000466","40.48","img/238/4.5/2/bw/001.png","","","appealing"
"","","","","","animation","334","1506644","0.0-334.0","1920x1080","","3192.5","7","img/238/2.5/1/bw/001.png","","","appealing"
"","","","","","animation","335","1509086","0.0-335.0","1920x1080","","2439.899999999907","20","img/314/4.5/2/bw/001.png","","","appealing"
"","","","","","animation","336","1512016","0.0-336.0","1920x1080","","2929.1999999999534","11.11","img/314/4/1/bw/001.png","","","appealing"
"","","","","","animation","337","1514351","0.0-337.0","1920x1080","","2333.3000000000466","23.68","img/117/4.5/2/bw/001.png","","","appealing"
"","","","","","animation","338","1516628","0.0-338.0","1920x1080","","2275","17.20","img/314/4/1.5/bw/001.png","","","appealing"
"","","","","","animation","339","1519311","0.0-339.0","1920x1080","","2682.0999999998603","4.50","img/238/2.5/0.66667/bw/001.png","","","appealing"
"","","","","","animation","340","1524262","0.0-340.0","1920x1080","","4949.800000000047","34","img/314/2.5/1.5/bw/001.png","","","appealing"
"","","","","","animation","341","1527047","0.0-341.0","1920x1080","","2783.2000000001863","47.88","img/117/4.5/1.5/bw/001.png","","","appealing"
"","","","","","animation","342","1530079","0.0-342.0","1920x1080","","3030.8000000000466","70.24","img/117/5.5/1.5/bw/001.png","","","appealing"
"","","","","","animation","343","1532983","0.0-343.0","1920x1080","","2902","32.41","img/314/4/2/bw/001.png","","","appealing"
"","","","","","animation","344","1540417","0.0-344.0","1920x1080","","7432.5","93.39","img/238/5.5/1.5/bw/001.png","","","appealing"
"","","","","","animation","345","1546534","0.0-345.0","1920x1080","","6114.200000000186","93.39","img/238/5.5/0.66667/bw/001.png","","","appealing"
"","","","","","animation","346","1548665","0.0-346.0","1920x1080","","2129.399999999907","32.14","img/238/4/1/bw/001.png","","","appealing"
"","","","","","animation","347","1551660","0.0-347.0","1920x1080","","2993.5","13.76","img/314/2.5/2/bw/001.png","","","appealing"
"","","","","","animation","348","1553944","0.0-348.0","1920x1080","","2282.1999999999534","39.81","img/238/4.5/1.5/bw/001.png","","","appealing"
"","","","","","animation","349","1560011","0.0-349.0","1920x1080","","6065.300000000047","99","img/314/5.5/1.5/bw/001.png","","","appealing"
"","","","","","animation","350","1562582","0.0-350.0","1920x1080","","2569.1999999999534","69.44","img/117/5.5/1/bw/001.png","","","appealing"
"","","","","","animation","351","1564582","0.0-351.0","1920x1080","","1997.9000000001397","12.96","img/238/2.5/2/bw/001.png","","","appealing"
"","","","","","animation","352","1567561","0.0-352.0","1920x1080","","2977.899999999907","85.71","img/314/5.5/2/bw/001.png","","","appealing"
"","","","","","animation","353","1572419","0.0-353.0","1920x1080","","4855.899999999907","70.37","img/314/5.5/1/bw/001.png","","","appealing"
"","","","","","animation","354","1575800","0.0-354.0","1920x1080","","3378.5","15","img/117/2.5/2/bw/001.png","","","appealing"
"","","","","","animation","355","1578678","0.0-355.0","1920x1080","","2876.399999999907","31.88","img/314/4.5/1.5/bw/001.png","","","appealing"
"","","","","","animation","356","1582566","0.0-356.0","1920x1080","","3886.9000000001397","17.86","img/238/4.5/0.5/bw/001.png","","","appealing"
"","","","","","animation","357","1585498","0.0-357.0","1920x1080","","2929.600000000093","28.57","img/117/5.5/0.5/bw/001.png","","","appealing"
"","","","","","animation","358","1588420","0.0-358.0","1920x1080","","2921.100000000093","7.67","img/314/4.5/0.66667/bw/001.png","","","appealing"
"","","","","","animation","359","1591166","0.0-359.0","1920x1080","","2744.5999999998603","11.38","img/117/4.5/0.5/bw/001.png","","","appealing"
"","","","","","animation","360","1593978","0.0-360.0","1920x1080","","2810.3000000000466","2.91","img/314/3.5/0.5/bw/001.png","","","appealing"
"","","","","","animation","361","1596600","0.0-361.0","1920x1080","","2620.600000000093","6.35","img/314/3.5/2/bw/001.png","","","appealing"
"","","","","","animation","362","1601320","0.0-362.0","1920x1080","","4718.799999999814","17","img/117/4/0.5/bw/001.png","","","appealing"
"","","","","","animation","363","1604135","0.0-363.0","1920x1080","","2812.5999999998603","9.13","img/117/4.5/0.66667/bw/001.png","","","appealing"
"","","","","","animation","364","1606410","0.0-364.0","1920x1080","","2273.600000000093","17.20","img/238/4/1.5/bw/001.png","","","appealing"
"","","","","","animation","365","1611044","0.0-365.0","1920x1080","","4632.100000000093","6.88","img/117/4/1/bw/001.png","","","appealing"
"","","","","","animation","366","1613818","0.0-366.0","1920x1080","","2772.899999999907","68.52","img/314/5.5/0.5/bw/001.png","","","appealing"
"","","","","","animation","367","1616443","0.0-367.0","1920x1080","","2624.0999999998603","17.06","img/117/3.5/0.66667/bw/001.png","","","appealing"
"","","","","","animation","368","1618768","0.0-368.0","1920x1080","","2323.7999999998137","9.52","img/238/3.5/0.66667/bw/001.png","","","appealing"
"","","","","","animation","369","1622443","0.0-369.0","1920x1080","","3673.8000000000466","5","img/238/3.5/1/bw/001.png","","","appealing"
"","","","","","animation","370","1626763","0.0-370.0","1920x1080","","4318.300000000047","2","img/117/2.5/1.5/bw/001.png","","","appealing"
"","","","","","animation","371","1629398","0.0-371.0","1920x1080","","2632.5","27","img/117/4/2/bw/001.png","","","appealing"
"","","","","","animation","372","1633211","0.0-372.0","1920x1080","","3809.8000000000466","9","img/238/3.5/1.5/bw/001.png","","","appealing"
"","","","","","animation","373","1637456","0.0-373.0","1920x1080","","4242.90000000014","19.84","img/117/3.5/1.5/bw/001.png","","","appealing"
"","","","","","animation","374","1640489","0.0-374.0","1920x1080","","3030.899999999907","11","img/238/3.5/0.5/bw/001.png","","","appealing"
"","","","","","animation","375","1642983","0.0-375.0","1920x1080","","2491.5999999998603","31.35","img/314/4.5/1/bw/001.png","","","appealing"
"","","","","","animation","376","1645827","0.0-376.0","1920x1080","","2843.399999999907","6.48","img/314/2.5/0.66667/bw/001.png","","","appealing"
"","","","","","animation","377","1648177","0.0-377.0","1920x1080","","2348.399999999907","36.64","img/238/4.5/1/bw/001.png","","","appealing"
"","","","","","animation","378","1651911","0.0-378.0","1920x1080","","3731.899999999907","4","img/314/2.5/1/bw/001.png","","","appealing"
"","","","","","animation","379","1654344","0.0-379.0","1920x1080","","2432.1999999999534","60.45","img/117/4.5/1/bw/001.png","","","appealing"
"","","","","","animation","380","1657928","0.0-380.0","1920x1080","","3582.6999999999534","37.17","img/314/4/0.66667/bw/001.png","","","appealing"
"","","","","","animation","381","1660092","0.0-381.0","1920x1080","","2160.600000000093","45.63","img/314/4.5/0.5/bw/001.png","","","appealing"
"","","","","","animation","382","1664218","0.0-382.0","1920x1080","","4124.09999999986","85.05","img/117/5.5/2/bw/001.png","","","appealing"
"","","","","","animation","383","1667444","0.0-383.0","1920x1080","","3223.9000000001397","92.72","img/238/5.5/1/bw/001.png","","","appealing"
"","","","","","animation","384","1669977","0.0-384.0","1920x1080","","2531.9000000001397","89.42","img/238/5.5/2/bw/001.png","","","appealing"
"","","","","","animation","385","1673399","0.0-385.0","1920x1080","","3420.3000000000466","64.68","img/238/5.5/0.5/bw/001.png","","","appealing"
"","","","","","animation","386","1675897","0.0-386.0","1920x1080","","2496.5999999998603","31.35","img/314/3.5/1.5/bw/001.png","","","appealing"
"","","","","","animation","387","1679263","0.0-387.0","1920x1080","","3364.600000000093","16","img/117/3.5/0.5/bw/001.png","","","appealing"
"","","","","","animation","388","1685218","0.0-388.0","1920x1080","","5953.399999999907","13","img/314/3.5/0.66667/bw/001.png","","","appealing"
"","","","","","animation","389","1690381","0.0-389.0","1920x1080","","5160.399999999907","2.12","img/314/2.5/0.5/bw/001.png","","","appealing"
"","","","","","html-button-response","390","1694111","0.0-390.0","1920x1080","","3728.399999999907","","<strong>Study Debriefing</strong><br><p class=""debrief""><strong>Background:</strong> The patterns you rated are called <em>fractals</em>. The term fractal describes a class of irregular curves or shapes for which any suitably chosen part is similar in shape to a given larger or smaller part when magnified or reduced to the same size. Fractal properties are found throughout the natural and manmade world. The series of animations you saw today displayed animated fractal patterns of a varying complexity.</p><p class=""debrief""><strong>Purpose of this study:</strong> We hope to better understand how the perception of static fractals differs from the perception of animated fractals, and how the speed of the animated patterns influences people&apos;s perception of them. Fractals allow us to study the perception of aesthetic properties (e.g. the perceived level of beauty in an image) without using recognizable content, which makes them an excellent tool for studying abstract aesthetic judgement.</p><p class=""debrief""><strong>Your part:</strong> Your participation has helped us to further understand how humans perceive these patterns across different levels of speed and complexity. This research with allow us to better understand how the visual system and brain process our ever-changing visual environments.<p class=""debrief""><strong>Feedback and Further information:</strong> If you have additional questions about this study, please feel free to ask the researcher, Nathan Gonzales-Hess at nhess @ uoregon.edu. If you have any questions concerning your rights as a research participant, please contact Research Compliance Services, 5237 University of Oregon, Eugene, OR 97403, 541-346-2510, or email researchCompliance @ uoregon.edu. You can also email the Human Subjects Coordinator for psychology and linguistics research at hscoord @ uoregon.edu. ","0","",""
"","","","","","html-button-response","391","1697217","0.0-391.0","1920x1080","","3103.6999999999534","","Thank you for participating in this study. <br>Please click below to finish the experiment and submit your responses.<br><br>","0","",""
"true","","","","","fullscreen","392","1698239","0.0-392.0","1920x1080","10:37 2/11/2022","","","","","",""
