"success","timeout","failed_images","failed_audio","failed_video","trial_type","trial_index","time_elapsed","internal_node_id","resolution","timeStamp","rt","response","stimulus","button_pressed","value","descriptor"
"true","false","[]","[]","[]","preload","0","5910","0.0-0.0","1920x1080","","","","","","",""
"true","false","[]","[]","[]","preload","1","12015","0.0-1.0","1920x1080","","","","","","",""
"true","false","[]","[]","[]","preload","2","18034","0.0-2.0","1920x1080","","","","","","",""
"true","","","","","fullscreen","3","268756","0.0-3.0","1920x1080","12:30 4/11/2022","","","","","",""
"","","","","","survey-html-form","4","280030","0.0-4.0","1920x1080","","11270.099999999627","{""age"":""18"",""gender"":""Female""}","","","",""
"","","","","","html-button-response","5","378079","0.0-5.0","1920x1080","","98047.09999999963","","<div class=""complex"">You are going to see a series of animations.<br><br></div><div class=""complex"">Move the slider to indicate how <strong style=""text-transform:capitalize"">COMPLEX</strong> you find each animation.<br><br></div><div class=""complex"">0 = Least Complex<br></div><div class=""complex"">1 = Most Complex<br><br></div><div class=""complex"">Remember to use the <strong><em>entire range</em></strong> of the slider to make your ratings.<br></div><div class=""complex"">Please <strong><em>take your time</em></strong> and carefully consider each rating you make.<br><br></div><div class=""complex"">The study has five sections and will take about 45 minutes to complete.<br><br></div>","0","",""
"","","","","","call-function","6","378079","0.0-6.0","1920x1080","","","","","","",""
"","","","","","animation","7","392902","0.0-7.0","1920x1080","","14822.299999999814","20","img/117/4.5/0.5/bw/001.png","","","complex"
"","","","","","animation","8","397110","0.0-8.0","1920x1080","","4206.799999999814","25","img/314/2.5/0.66667/bw/001.png","","","complex"
"","","","","","animation","9","401078","0.0-9.0","1920x1080","","3967.100000000559","22","img/117/3.5/0.5/bw/001.png","","","complex"
"","","","","","animation","10","417230","0.0-10.0","1920x1080","","16151.099999999627","10","img/238/3.5/2/bw/001.png","","","complex"
"","","","","","animation","11","424534","0.0-11.0","1920x1080","","7303.100000000559","20","img/117/3.5/0.66667/bw/001.png","","","complex"
"","","","","","animation","12","431742","0.0-12.0","1920x1080","","7208.100000000559","30","img/117/5.5/1.5/bw/001.png","","","complex"
"","","","","","animation","13","439190","0.0-13.0","1920x1080","","7446.9000000003725","19.97","img/314/3.5/1.5/bw/001.png","","","complex"
"","","","","","animation","14","444902","0.0-14.0","1920x1080","","5711.299999999814","23.68","img/238/2.5/1/bw/001.png","","","complex"
"","","","","","animation","15","449646","0.0-15.0","1920x1080","","4742.699999999255","29.63","img/117/5.5/2/bw/001.png","","","complex"
"","","","","","animation","16","462046","0.0-16.0","1920x1080","","12399.5","39.95","img/314/4.5/0.5/bw/001.png","","","complex"
"","","","","","animation","17","471086","0.0-17.0","1920x1080","","9039.799999999814","35","img/314/5.5/0.5/bw/001.png","","","complex"
"","","","","","animation","18","480302","0.0-18.0","1920x1080","","9215","25","img/314/4/1/bw/001.png","","","complex"
"","","","","","animation","19","490606","0.0-19.0","1920x1080","","10303.599999999627","30.16","img/314/4.5/1.5/bw/001.png","","","complex"
"","","","","","animation","20","496205","0.0-20.0","1920x1080","","5599.199999999255","29.89","img/314/4/0.5/bw/001.png","","","complex"
"","","","","","animation","21","505245","0.0-21.0","1920x1080","","9038.699999999255","25.40","img/238/2.5/0.66667/bw/001.png","","","complex"
"","","","","","animation","22","509901","0.0-22.0","1920x1080","","4655.5999999996275","25.26","img/314/3.5/0.5/bw/001.png","","","complex"
"","","","","","animation","23","520653","0.0-23.0","1920x1080","","10751.299999999814","25","img/117/4/1/bw/001.png","","","complex"
"","","","","","animation","24","533829","0.0-24.0","1920x1080","","13175.100000000559","29.76","img/238/3.5/1/bw/001.png","","","complex"
"","","","","","animation","25","540437","0.0-25.0","1920x1080","","6607.5","26.85","img/117/3.5/2/bw/001.png","","","complex"
"","","","","","animation","26","550910","0.0-26.0","1920x1080","","10471.599999999627","35.32","img/314/5.5/1.5/bw/001.png","","","complex"
"","","","","","animation","27","560174","0.0-27.0","1920x1080","","9262.799999999814","39.81","img/314/4.5/2/bw/001.png","","","complex"
"","","","","","animation","28","579526","0.0-28.0","1920x1080","","19351","25.26","img/238/3.5/0.66667/bw/001.png","","","complex"
"","","","","","animation","29","585502","0.0-29.0","1920x1080","","5975.399999999441","44.58","img/117/4.5/1/bw/001.png","","","complex"
"","","","","","animation","30","593054","0.0-30.0","1920x1080","","7551.0999999996275","24.60","img/117/4/2/bw/001.png","","","complex"
"","","","","","animation","31","597630","0.0-31.0","1920x1080","","4575","10.19","img/314/2.5/0.5/bw/001.png","","","complex"
"","","","","","animation","32","602902","0.0-32.0","1920x1080","","5271.399999999441","25.40","img/238/4.5/1/bw/001.png","","","complex"
"","","","","","animation","33","608118","0.0-33.0","1920x1080","","5214.799999999814","29.89","img/314/4.5/1/bw/001.png","","","complex"
"","","","","","animation","34","617701","0.0-34.0","1920x1080","","9583.099999999627","25.00","img/238/5.5/0.5/bw/001.png","","","complex"
"","","","","","animation","35","623949","0.0-35.0","1920x1080","","6247.5999999996275","19.71","img/117/4/0.66667/bw/001.png","","","complex"
"","","","","","animation","36","657293","0.0-36.0","1920x1080","","33343.10000000056","29.76","img/117/4.5/1.5/bw/001.png","","","complex"
"","","","","","animation","37","666109","0.0-37.0","1920x1080","","8815.100000000559","59.52","img/314/5.5/0.66667/bw/001.png","","","complex"
"","","","","","animation","38","672598","0.0-38.0","1920x1080","","6487.399999999441","25.40","img/238/4/1.5/bw/001.png","","","complex"
"","","","","","animation","39","678046","0.0-39.0","1920x1080","","5447.0999999996275","25.26","img/117/4/1.5/bw/001.png","","","complex"
"","","","","","animation","40","681526","0.0-40.0","1920x1080","","3479.100000000559","25.26","img/238/4/1/bw/001.png","","","complex"
"","","","","","animation","41","687719","0.0-41.0","1920x1080","","6191.5","59.66","img/314/5.5/2/bw/001.png","","","complex"
"","","","","","animation","42","697534","0.0-42.0","1920x1080","","9815","44.97","img/117/4.5/0.66667/bw/001.png","","","complex"
"","","","","","animation","43","710607","0.0-43.0","1920x1080","","13071.299999999814","30.03","img/238/5.5/0.66667/bw/001.png","","","complex"
"","","","","","animation","44","718078","0.0-44.0","1920x1080","","7470.5999999996275","29","img/117/4/0.5/bw/001.png","","","complex"
"","","","","","animation","45","722710","0.0-45.0","1920x1080","","4631.100000000559","15.48","img/238/4/2/bw/001.png","","","complex"
"","","","","","animation","46","728446","0.0-46.0","1920x1080","","5734.899999999441","10.32","img/117/2.5/2/bw/001.png","","","complex"
"","","","","","animation","47","734776","0.0-47.0","1920x1080","","6329.100000000559","19.84","img/238/4.5/1.5/bw/001.png","","","complex"
"","","","","","animation","48","743695","0.0-48.0","1920x1080","","8917.599999999627","15.08","img/238/4.5/2/bw/001.png","","","complex"
"","","","","","animation","49","752393","0.0-49.0","1920x1080","","8697.099999999627","15","img/314/3.5/2/bw/001.png","","","complex"
"","","","","","animation","50","761107","0.0-50.0","1920x1080","","8712.900000000373","44.58","img/238/4.5/0.5/bw/001.png","","","complex"
"","","","","","animation","51","765207","0.0-51.0","1920x1080","","4098.200000000186","10.19","img/117/2.5/1/bw/001.png","","","complex"
"","","","","","animation","52","770511","0.0-52.0","1920x1080","","5303","25.26","img/314/4/0.66667/bw/001.png","","","complex"
"","","","","","animation","53","773935","0.0-53.0","1920x1080","","3423.2000000001863","10.05","img/238/2.5/1.5/bw/001.png","","","complex"
"","","","","","animation","54","783639","0.0-54.0","1920x1080","","9703.200000000186","15.08","img/238/2.5/0.5/bw/001.png","","","complex"
"","","","","","animation","55","788446","0.0-55.0","1920x1080","","4806.5999999996275","14.68","img/117/2.5/0.66667/bw/001.png","","","complex"
"","","","","","animation","56","797561","0.0-56.0","1920x1080","","9112.5","15","img/314/3.5/1/bw/001.png","","","complex"
"","","","","","animation","57","801032","0.0-57.0","1920x1080","","3469.5","14.81","img/238/2.5/2/bw/001.png","","","complex"
"","","","","","animation","58","807688","0.0-58.0","1920x1080","","6655.5","20.11","img/314/4/2/bw/001.png","","","complex"
"","","","","","animation","59","835624","0.0-59.0","1920x1080","","27935","25.40","img/238/3.5/1.5/bw/001.png","","","complex"
"","","","","","animation","60","844096","0.0-60.0","1920x1080","","8471.100000000559","65","img/117/5.5/0.5/bw/001.png","","","complex"
"","","","","","animation","61","853967","0.0-61.0","1920x1080","","9870.700000000186","9.92","img/314/2.5/2/bw/001.png","","","complex"
"","","","","","animation","62","858415","0.0-62.0","1920x1080","","4446.800000000745","10.19","img/117/2.5/0.5/bw/001.png","","","complex"
"","","","","","animation","63","862815","0.0-63.0","1920x1080","","4398.9000000003725","10.19","img/117/2.5/1.5/bw/001.png","","","complex"
"","","","","","animation","64","868167","0.0-64.0","1920x1080","","5351.5","9.79","img/314/2.5/1/bw/001.png","","","complex"
"","","","","","animation","65","874024","0.0-65.0","1920x1080","","5855.200000000186","25.00","img/238/4/0.5/bw/001.png","","","complex"
"","","","","","animation","66","882177","0.0-66.0","1920x1080","","8152.199999999255","34.66","img/238/5.5/1/bw/001.png","","","complex"
"","","","","","animation","67","887577","0.0-67.0","1920x1080","","5399.600000000559","44.71","img/117/5.5/0.66667/bw/001.png","","","complex"
"","","","","","animation","68","895447","0.0-68.0","1920x1080","","7868.800000000745","25.00","img/238/5.5/2/bw/001.png","","","complex"
"","","","","","animation","69","904994","0.0-69.0","1920x1080","","9546.100000000559","35.19","img/314/5.5/1/bw/001.png","","","complex"
"","","","","","animation","70","912945","0.0-70.0","1920x1080","","7949.100000000559","20.24","img/238/4/0.66667/bw/001.png","","","complex"
"","","","","","animation","71","919384","0.0-71.0","1920x1080","","6438.399999999441","15.08","img/314/4/1.5/bw/001.png","","","complex"
"","","","","","animation","72","925448","0.0-72.0","1920x1080","","6062.600000000559","9.66","img/238/3.5/0.5/bw/001.png","","","complex"
"","","","","","animation","73","932504","0.0-73.0","1920x1080","","7055.299999999814","10.19","img/117/3.5/1.5/bw/001.png","","","complex"
"","","","","","animation","74","952688","0.0-74.0","1920x1080","","20182.5","24.74","img/238/4.5/0.66667/bw/001.png","","","complex"
"","","","","","animation","75","964872","0.0-75.0","1920x1080","","12183.200000000186","9.79","img/117/3.5/1/bw/001.png","","","complex"
"","","","","","animation","76","969736","0.0-76.0","1920x1080","","4863.0999999996275","9.52","img/314/2.5/1.5/bw/001.png","","","complex"
"","","","","","animation","77","974864","0.0-77.0","1920x1080","","5127","65.21","img/117/4.5/2/bw/001.png","","","complex"
"","","","","","animation","78","979832","0.0-78.0","1920x1080","","4967.200000000186","45.24","img/238/5.5/1.5/bw/001.png","","","complex"
"","","","","","animation","79","992880","0.0-79.0","1920x1080","","13046.5","70","img/117/5.5/1/bw/001.png","","","complex"
"","","","","","animation","80","1000795","0.0-80.0","1920x1080","","7913.700000000186","39.55","img/314/4.5/0.66667/bw/001.png","","","complex"
"","","","","","animation","81","1006545","0.0-81.0","1920x1080","","5749","14.95","img/314/3.5/0.66667/bw/001.png","","","complex"
"","","","","","html-button-response","82","1021994","0.0-82.0","1920x1080","","15448.200000000186","","<div class=""intro"">You are about to view a new series of animations.<br><br></div><div class=""intro"">You will evaluate them based on a different descriptor.<br><br></div><div class=""intro"">Move the slider to indicate how <strong style=""text-transform:capitalize"">APPEALING</strong> you find each animation.<br><br></div><div class=""intro"">0 = Least Appealing<br></div><div class=""intro"">1 = Most Appealing<br><br></div><div class=""intro"">Remember to use the <strong><em>entire range</em></strong> of the slider to make your ratings.<br></div><div class=""intro"">Please <strong><em>take your time</em></strong> and carefully consider each rating you make.<br><br></div>","0","",""
"","","","","","call-function","83","1021995","0.0-83.0","1920x1080","","","","","","",""
"","","","","","animation","84","1036617","0.0-84.0","1920x1080","","14620.700000000186","25","img/117/4/1.5/bw/001.png","","","appealing"
"","","","","","animation","85","1052697","0.0-85.0","1920x1080","","16078.800000000745","20","img/238/4.5/0.66667/bw/001.png","","","appealing"
"","","","","","animation","86","1061273","0.0-86.0","1920x1080","","8575.5","100","img/238/5.5/1/bw/001.png","","","appealing"
"","","","","","animation","87","1065169","0.0-87.0","1920x1080","","3894.2000000001863","100","img/238/5.5/2/bw/001.png","","","appealing"
"","","","","","animation","88","1069369","0.0-88.0","1920x1080","","4199.0999999996275","85.05","img/238/5.5/0.5/bw/001.png","","","appealing"
"","","","","","animation","89","1073017","0.0-89.0","1920x1080","","3646.9000000003725","44.97","img/314/4.5/2/bw/001.png","","","appealing"
"","","","","","animation","90","1077828","0.0-90.0","1920x1080","","4810.0999999996275","20.37","img/117/4/0.66667/bw/001.png","","","appealing"
"","","","","","animation","91","1083705","0.0-91.0","1920x1080","","5876.299999999814","11.64","img/238/4/0.5/bw/001.png","","","appealing"
"","","","","","animation","92","1090585","0.0-92.0","1920x1080","","6879.300000000745","10.32","img/238/4/0.66667/bw/001.png","","","appealing"
"","","","","","animation","93","1114401","0.0-93.0","1920x1080","","23815","19.97","img/314/4.5/0.66667/bw/001.png","","","appealing"
"","","","","","animation","94","1118273","0.0-94.0","1920x1080","","3871.2000000001863","0.00","img/117/3.5/0.66667/bw/001.png","","","appealing"
"","","","","","animation","95","1125505","0.0-95.0","1920x1080","","7230.800000000745","0.13","img/117/3.5/1.5/bw/001.png","","","appealing"
"","","","","","animation","96","1133329","0.0-96.0","1920x1080","","7822.5","5.29","img/314/4/1/bw/001.png","","","appealing"
"","","","","","animation","97","1137801","0.0-97.0","1920x1080","","4471.299999999814","0.40","img/238/3.5/1/bw/001.png","","","appealing"
"","","","","","animation","98","1142913","0.0-98.0","1920x1080","","5110.600000000559","0.13","img/238/3.5/1.5/bw/001.png","","","appealing"
"","","","","","animation","99","1149089","0.0-99.0","1920x1080","","6175.5","4.63","img/117/4/0.5/bw/001.png","","","appealing"
"","","","","","animation","100","1152445","0.0-100.0","1920x1080","","3354","0.40","img/117/3.5/0.5/bw/001.png","","","appealing"
"","","","","","animation","101","1157681","0.0-101.0","1920x1080","","5235.200000000186","0","img/314/4/0.66667/bw/001.png","","","appealing"
"","","","","","animation","102","1163145","0.0-102.0","1920x1080","","5462.600000000559","39.68","img/238/4.5/2/bw/001.png","","","appealing"
"","","","","","animation","103","1174001","0.0-103.0","1920x1080","","10855.399999999441","35","img/117/4.5/1/bw/001.png","","","appealing"
"","","","","","animation","104","1178002","0.0-104.0","1920x1080","","3999.2000000001863","100","img/314/5.5/0.66667/bw/001.png","","","appealing"
"","","","","","animation","105","1180338","0.0-105.0","1920x1080","","2335.0999999996275","0.13","img/238/2.5/0.66667/bw/001.png","","","appealing"
"","","","","","animation","106","1184113","0.0-106.0","1920x1080","","3774.699999999255","85.32","img/117/5.5/0.66667/bw/001.png","","","appealing"
"","","","","","animation","107","1187361","0.0-107.0","1920x1080","","3246.800000000745","5.03","img/238/3.5/0.5/bw/001.png","","","appealing"
"","","","","","animation","108","1190401","0.0-108.0","1920x1080","","3039.5999999996275","4.63","img/238/4.5/0.5/bw/001.png","","","appealing"
"","","","","","animation","109","1192778","0.0-109.0","1920x1080","","2375.5","4.89","img/238/4/1.5/bw/001.png","","","appealing"
"","","","","","animation","110","1194913","0.0-110.0","1920x1080","","2134.2000000001863","5.42","img/314/4/1.5/bw/001.png","","","appealing"
"","","","","","animation","111","1198137","0.0-111.0","1920x1080","","3223.5999999996275","100","img/117/5.5/1/bw/001.png","","","appealing"
"","","","","","animation","112","1201802","0.0-112.0","1920x1080","","3663.2000000001863","100","img/117/5.5/2/bw/001.png","","","appealing"
"","","","","","animation","113","1205645","0.0-113.0","1920x1080","","3842.4000000003725","5.29","img/314/3.5/0.66667/bw/001.png","","","appealing"
"","","","","","animation","114","1210661","0.0-114.0","1920x1080","","5014.9000000003725","100","img/314/5.5/1.5/bw/001.png","","","appealing"
"","","","","","animation","115","1217089","0.0-115.0","1920x1080","","6428.100000000559","80.03","img/238/4.5/1.5/bw/001.png","","","appealing"
"","","","","","animation","116","1221945","0.0-116.0","1920x1080","","4854.5","100","img/314/5.5/0.5/bw/001.png","","","appealing"
"","","","","","animation","117","1226233","0.0-117.0","1920x1080","","4287.299999999814","100","img/238/5.5/1.5/bw/001.png","","","appealing"
"","","","","","animation","118","1228929","0.0-118.0","1920x1080","","2694.7000000001863","100","img/117/5.5/1.5/bw/001.png","","","appealing"
"","","","","","animation","119","1231417","0.0-119.0","1920x1080","","2487.300000000745","0.13","img/314/2.5/1.5/bw/001.png","","","appealing"
"","","","","","animation","120","1234497","0.0-120.0","1920x1080","","3079","1.72","img/238/3.5/2/bw/001.png","","","appealing"
"","","","","","animation","121","1239611","0.0-121.0","1920x1080","","5112.600000000559","65.48","img/117/5.5/0.5/bw/001.png","","","appealing"
"","","","","","animation","122","1245249","0.0-122.0","1920x1080","","5637.5999999996275","19.84","img/117/4/1/bw/001.png","","","appealing"
"","","","","","animation","123","1248994","0.0-123.0","1920x1080","","3743.899999999441","20.37","img/117/4/2/bw/001.png","","","appealing"
"","","","","","animation","124","1253881","0.0-124.0","1920x1080","","4885.699999999255","0.00","img/238/2.5/1/bw/001.png","","","appealing"
"","","","","","animation","125","1257049","0.0-125.0","1920x1080","","3166.899999999441","100","img/238/5.5/0.66667/bw/001.png","","","appealing"
"","","","","","animation","126","1264481","0.0-126.0","1920x1080","","7431.0999999996275","74.60","img/314/4.5/1/bw/001.png","","","appealing"
"","","","","","animation","127","1275217","0.0-127.0","1920x1080","","10735.200000000186","45","img/314/4.5/0.5/bw/001.png","","","appealing"
"","","","","","animation","128","1279545","0.0-128.0","1920x1080","","4326.5999999996275","14.95","img/314/3.5/1.5/bw/001.png","","","appealing"
"","","","","","animation","129","1283737","0.0-129.0","1920x1080","","4191.600000000559","15.48","img/238/4/2/bw/001.png","","","appealing"
"","","","","","animation","130","1286313","0.0-130.0","1920x1080","","2574.2999999998137","0.13","img/238/2.5/1.5/bw/001.png","","","appealing"
"","","","","","animation","131","1290713","0.0-131.0","1920x1080","","4399","100","img/314/5.5/1/bw/001.png","","","appealing"
"","","","","","animation","132","1294881","0.0-132.0","1920x1080","","4167.600000000559","40.21","img/314/4/0.5/bw/001.png","","","appealing"
"","","","","","animation","133","1297649","0.0-133.0","1920x1080","","2767","0.00","img/314/2.5/0.66667/bw/001.png","","","appealing"
"","","","","","animation","134","1349337","0.0-134.0","1920x1080","","51686.90000000037","20.11","img/314/3.5/1/bw/001.png","","","appealing"
"","","","","","animation","135","1352477","0.0-135.0","1920x1080","","3139.399999999441","0.13","img/117/2.5/0.5/bw/001.png","","","appealing"
"","","","","","animation","136","1358969","0.0-136.0","1920x1080","","6490.799999999814","5.16","img/117/2.5/2/bw/001.png","","","appealing"
"","","","","","animation","137","1362010","0.0-137.0","1920x1080","","3040.2999999998137","0","img/238/3.5/0.66667/bw/001.png","","","appealing"
"","","","","","animation","138","1366794","0.0-138.0","1920x1080","","4782.200000000186","4.89","img/314/3.5/0.5/bw/001.png","","","appealing"
"","","","","","animation","139","1369977","0.0-139.0","1920x1080","","3182.2000000001863","0.40","img/117/2.5/1/bw/001.png","","","appealing"
"","","","","","animation","140","1379095","0.0-140.0","1920x1080","","9117.299999999814","50","img/314/4.5/1.5/bw/001.png","","","appealing"
"","","","","","animation","141","1386561","0.0-141.0","1920x1080","","7464.5","60.05","img/238/4.5/1/bw/001.png","","","appealing"
"","","","","","animation","142","1391001","0.0-142.0","1920x1080","","4439.299999999814","45.11","img/117/4.5/0.5/bw/001.png","","","appealing"
"","","","","","animation","143","1395753","0.0-143.0","1920x1080","","4751.100000000559","50.40","img/117/4.5/1.5/bw/001.png","","","appealing"
"","","","","","animation","144","1401529","0.0-144.0","1920x1080","","5774.699999999255","100","img/314/5.5/2/bw/001.png","","","appealing"
"","","","","","animation","145","1404294","0.0-145.0","1920x1080","","2764","0.13","img/314/2.5/2/bw/001.png","","","appealing"
"","","","","","animation","146","1406713","0.0-146.0","1920x1080","","2418.100000000559","0.00","img/117/2.5/1.5/bw/001.png","","","appealing"
"","","","","","animation","147","1411121","0.0-147.0","1920x1080","","4407.4000000003725","40.21","img/117/4.5/0.66667/bw/001.png","","","appealing"
"","","","","","animation","148","1419077","0.0-148.0","1920x1080","","7954.600000000559","50","img/117/4.5/2/bw/001.png","","","appealing"
"","","","","","animation","149","1421449","0.0-149.0","1920x1080","","2371","0.00","img/314/2.5/0.5/bw/001.png","","","appealing"
"","","","","","animation","150","1424449","0.0-150.0","1920x1080","","2999.4000000003725","0.40","img/314/2.5/1/bw/001.png","","","appealing"
"","","","","","animation","151","1426833","0.0-151.0","1920x1080","","2383","0.00","img/238/2.5/0.5/bw/001.png","","","appealing"
"","","","","","animation","152","1429049","0.0-152.0","1920x1080","","2215","0","img/238/2.5/2/bw/001.png","","","appealing"
"","","","","","animation","153","1431721","0.0-153.0","1920x1080","","2671.0999999996275","1.98","img/117/3.5/2/bw/001.png","","","appealing"
"","","","","","animation","154","1435001","0.0-154.0","1920x1080","","3278.800000000745","2.12","img/117/3.5/1/bw/001.png","","","appealing"
"","","","","","animation","155","1439185","0.0-155.0","1920x1080","","4183","4.76","img/238/4/1/bw/001.png","","","appealing"
"","","","","","animation","156","1447577","0.0-156.0","1920x1080","","8390.699999999255","5","img/314/4/2/bw/001.png","","","appealing"
"","","","","","animation","157","1449777","0.0-157.0","1920x1080","","2199","0","img/117/2.5/0.66667/bw/001.png","","","appealing"
"","","","","","animation","158","1456618","0.0-158.0","1920x1080","","6839.5","5.16","img/314/3.5/2/bw/001.png","","","appealing"
"","","","","","html-button-response","159","1604755","0.0-159.0","1920x1080","","148135.19999999925","","<div class=""intro"">You are about to view a new series of animations.<br><br></div><div class=""intro"">You will evaluate them based on a different descriptor.<br><br></div><div class=""intro"">Move the slider to indicate how <strong style=""text-transform:capitalize"">RELAXING</strong> you find each animation.<br><br></div><div class=""intro"">0 = Least Relaxing<br></div><div class=""intro"">1 = Most Relaxing<br><br></div><div class=""intro"">Remember to use the <strong><em>entire range</em></strong> of the slider to make your ratings.<br></div><div class=""intro"">Please <strong><em>take your time</em></strong> and carefully consider each rating you make.<br><br></div>","0","",""
"","","","","","call-function","160","1604758","0.0-160.0","1920x1080","","","","","","",""
"","","","","","animation","161","1610530","0.0-161.0","1920x1080","","5770.5999999996275","39.81","img/238/4/0.5/bw/001.png","","","relaxing"
"","","","","","animation","162","1615178","0.0-162.0","1920x1080","","4646.5","54.50","img/117/4/2/bw/001.png","","","relaxing"
"","","","","","animation","163","1619477","0.0-163.0","1920x1080","","4298.399999999441","30.42","img/314/3.5/1/bw/001.png","","","relaxing"
"","","","","","animation","164","1622931","0.0-164.0","1920x1080","","3453.4000000003725","19.84","img/117/3.5/2/bw/001.png","","","relaxing"
"","","","","","animation","165","1627434","0.0-165.0","1920x1080","","4500.299999999814","30.16","img/314/4/2/bw/001.png","","","relaxing"
"","","","","","animation","166","1631643","0.0-166.0","1920x1080","","4207.9000000003725","100","img/238/5.5/1/bw/001.png","","","relaxing"
"","","","","","animation","167","1637434","0.0-167.0","1920x1080","","5790.0999999996275","20","img/117/4/0.66667/bw/001.png","","","relaxing"
"","","","","","animation","168","1643126","0.0-168.0","1920x1080","","5690.700000000186","10.19","img/314/4/0.5/bw/001.png","","","relaxing"
"","","","","","animation","169","1647418","0.0-169.0","1920x1080","","4290.4000000003725","0.13","img/117/2.5/1.5/bw/001.png","","","relaxing"
"","","","","","animation","170","1652298","0.0-170.0","1920x1080","","4879.200000000186","60.05","img/314/4.5/1/bw/001.png","","","relaxing"
"","","","","","animation","171","1658277","0.0-171.0","1920x1080","","5978.300000000745","50.26","img/314/4.5/0.66667/bw/001.png","","","relaxing"
"","","","","","animation","172","1664578","0.0-172.0","1920x1080","","6298.799999999814","64.68","img/238/4.5/1.5/bw/001.png","","","relaxing"
"","","","","","animation","173","1674970","0.0-173.0","1920x1080","","10391.200000000186","25.00","img/314/3.5/2/bw/001.png","","","relaxing"
"","","","","","animation","174","1678314","0.0-174.0","1920x1080","","3341.9000000003725","0","img/314/2.5/1/bw/001.png","","","relaxing"
"","","","","","animation","175","1682826","0.0-175.0","1920x1080","","4510.700000000186","100","img/314/5.5/0.5/bw/001.png","","","relaxing"
"","","","","","animation","176","1687960","0.0-176.0","1920x1080","","5132.299999999814","40.48","img/238/4.5/0.5/bw/001.png","","","relaxing"
"","","","","","animation","177","1691826","0.0-177.0","1920x1080","","3865.2999999998137","10.45","img/117/3.5/0.66667/bw/001.png","","","relaxing"
"","","","","","animation","178","1696278","0.0-178.0","1920x1080","","4449.5999999996275","15.48","img/314/4/1.5/bw/001.png","","","relaxing"
"","","","","","animation","179","1698699","0.0-179.0","1920x1080","","2420.5999999996275","0.40","img/117/2.5/1/bw/001.png","","","relaxing"
"","","","","","animation","180","1702627","0.0-180.0","1920x1080","","3927","0","img/238/2.5/2/bw/001.png","","","relaxing"
"","","","","","animation","181","1706963","0.0-181.0","1920x1080","","4334.799999999814","5.16","img/314/3.5/0.5/bw/001.png","","","relaxing"
"","","","","","animation","182","1709428","0.0-182.0","1920x1080","","2463.2999999998137","100","img/117/5.5/1.5/bw/001.png","","","relaxing"
"","","","","","animation","183","1717547","0.0-183.0","1920x1080","","8118.399999999441","35.32","img/238/3.5/2/bw/001.png","","","relaxing"
"","","","","","animation","184","1720819","0.0-184.0","1920x1080","","3271.5","0.40","img/238/2.5/1/bw/001.png","","","relaxing"
"","","","","","animation","185","1725219","0.0-185.0","1920x1080","","4398.899999999441","45.24","img/314/4.5/1.5/bw/001.png","","","relaxing"
"","","","","","animation","186","1727861","0.0-186.0","1920x1080","","2640.2000000001863","100","img/314/5.5/2/bw/001.png","","","relaxing"
"","","","","","animation","187","1730547","0.0-187.0","1920x1080","","2685.399999999441","0","img/117/2.5/2/bw/001.png","","","relaxing"
"","","","","","animation","188","1732619","0.0-188.0","1920x1080","","2071.100000000559","0","img/238/2.5/1.5/bw/001.png","","","relaxing"
"","","","","","animation","189","1742395","0.0-189.0","1920x1080","","9774.899999999441","100","img/117/5.5/2/bw/001.png","","","relaxing"
"","","","","","animation","190","1789244","0.0-190.0","1920x1080","","46847.5","45.11","img/117/4.5/1/bw/001.png","","","relaxing"
"","","","","","animation","191","1791604","0.0-191.0","1920x1080","","2358.5","0.13","img/314/2.5/0.66667/bw/001.png","","","relaxing"
"","","","","","animation","192","1796420","0.0-192.0","1920x1080","","4814.89999999851","0.00","img/238/2.5/0.66667/bw/001.png","","","relaxing"
"","","","","","animation","193","1806995","0.0-193.0","1920x1080","","10574.60000000149","100","img/238/5.5/1.5/bw/001.png","","","relaxing"
"","","","","","animation","194","1811412","0.0-194.0","1920x1080","","4414.60000000149","0","img/314/2.5/2/bw/001.png","","","relaxing"
"","","","","","animation","195","1816220","0.0-195.0","1920x1080","","4807.199999999255","64.81","img/117/4.5/1.5/bw/001.png","","","relaxing"
"","","","","","animation","196","1820436","0.0-196.0","1920x1080","","4215.10000000149","0.13","img/314/2.5/0.5/bw/001.png","","","relaxing"
"","","","","","animation","197","1828344","0.0-197.0","1920x1080","","7906.699999999255","10.32","img/117/3.5/1.5/bw/001.png","","","relaxing"
"","","","","","animation","198","1842061","0.0-198.0","1920x1080","","13714.799999998882","100","img/314/5.5/1/bw/001.png","","","relaxing"
"","","","","","animation","199","1848053","0.0-199.0","1920x1080","","5988.0999999996275","39.55","img/314/4.5/0.5/bw/001.png","","","relaxing"
"","","","","","animation","200","1851278","0.0-200.0","1920x1080","","3224.5","-0.13","img/117/2.5/0.5/bw/001.png","","","relaxing"
"","","","","","animation","201","1860684","0.0-201.0","1920x1080","","9404.599999999627","24","img/238/4/1/bw/001.png","","","relaxing"
"","","","","","animation","202","1869196","0.0-202.0","1920x1080","","8510.5","20","img/117/4/1/bw/001.png","","","relaxing"
"","","","","","animation","203","1875765","0.0-203.0","1920x1080","","6566.9000000003725","10.32","img/117/4.5/0.5/bw/001.png","","","relaxing"
"","","","","","animation","204","1879195","0.0-204.0","1920x1080","","3429","100","img/238/5.5/0.66667/bw/001.png","","","relaxing"
"","","","","","animation","205","1886421","0.0-205.0","1920x1080","","7225.10000000149","50.13","img/117/4.5/0.66667/bw/001.png","","","relaxing"
"","","","","","animation","206","1890869","0.0-206.0","1920x1080","","4446.699999999255","20.11","img/314/3.5/0.66667/bw/001.png","","","relaxing"
"","","","","","animation","207","1898795","0.0-207.0","1920x1080","","7924.5999999996275","60.32","img/117/4.5/2/bw/001.png","","","relaxing"
"","","","","","animation","208","1902717","0.0-208.0","1920x1080","","3920.800000000745","19.84","img/314/3.5/1.5/bw/001.png","","","relaxing"
"","","","","","animation","209","1905296","0.0-209.0","1920x1080","","2577.699999999255","0.40","img/117/2.5/0.66667/bw/001.png","","","relaxing"
"","","","","","animation","210","1909549","0.0-210.0","1920x1080","","4251.9000000003725","100","img/238/5.5/0.5/bw/001.png","","","relaxing"
"","","","","","animation","211","1914895","0.0-211.0","1920x1080","","5344.10000000149","24.74","img/238/4/0.66667/bw/001.png","","","relaxing"
"","","","","","animation","212","1917779","0.0-212.0","1920x1080","","2882.5","25.40","img/314/4/1/bw/001.png","","","relaxing"
"","","","","","animation","213","1924062","0.0-213.0","1920x1080","","6282.199999999255","100","img/117/5.5/1/bw/001.png","","","relaxing"
"","","","","","animation","214","1928821","0.0-214.0","1920x1080","","4758","4.50","img/117/3.5/0.5/bw/001.png","","","relaxing"
"","","","","","animation","215","1931112","0.0-215.0","1920x1080","","2289.5","0.40","img/238/2.5/0.5/bw/001.png","","","relaxing"
"","","","","","animation","216","1935996","0.0-216.0","1920x1080","","4882.700000001118","100","img/314/5.5/1.5/bw/001.png","","","relaxing"
"","","","","","animation","217","1942013","0.0-217.0","1920x1080","","6016.200000001118","39.55","img/238/4/1.5/bw/001.png","","","relaxing"
"","","","","","animation","218","1988822","0.0-218.0","1920x1080","","46807.59999999963","39.95","img/238/4/2/bw/001.png","","","relaxing"
"","","","","","animation","219","1992197","0.0-219.0","1920x1080","","3374.300000000745","19.58","img/238/3.5/0.66667/bw/001.png","","","relaxing"
"","","","","","animation","220","2006270","0.0-220.0","1920x1080","","14071.400000000373","14.81","img/238/3.5/1.5/bw/001.png","","","relaxing"
"","","","","","animation","221","2010612","0.0-221.0","1920x1080","","4340.700000001118","69.58","img/314/4.5/2/bw/001.png","","","relaxing"
"","","","","","animation","222","2014812","0.0-222.0","1920x1080","","4198.9000000003725","39.95","img/314/4/0.66667/bw/001.png","","","relaxing"
"","","","","","animation","223","2017970","0.0-223.0","1920x1080","","3156.5999999996275","40.08","img/117/4/1.5/bw/001.png","","","relaxing"
"","","","","","animation","224","2023630","0.0-224.0","1920x1080","","5658.700000001118","75.13","img/117/5.5/0.66667/bw/001.png","","","relaxing"
"","","","","","animation","225","2028398","0.0-225.0","1920x1080","","4766.700000001118","20.11","img/238/3.5/1/bw/001.png","","","relaxing"
"","","","","","animation","226","2068654","0.0-226.0","1920x1080","","40254.90000000037","20","img/238/3.5/0.5/bw/001.png","","","relaxing"
"","","","","","animation","227","2076278","0.0-227.0","1920x1080","","7623.5999999996275","80.29","img/238/4.5/2/bw/001.png","","","relaxing"
"","","","","","animation","228","2080029","0.0-228.0","1920x1080","","3749.9000000003725","10.32","img/117/4/0.5/bw/001.png","","","relaxing"
"","","","","","animation","229","2084286","0.0-229.0","1920x1080","","4255.5999999996275","75.26","img/117/5.5/0.5/bw/001.png","","","relaxing"
"","","","","","animation","230","2088179","0.0-230.0","1920x1080","","3891.5999999996275","69.97","img/238/4.5/1/bw/001.png","","","relaxing"
"","","","","","animation","231","2092429","0.0-231.0","1920x1080","","4250","20.37","img/117/3.5/1/bw/001.png","","","relaxing"
"","","","","","animation","232","2096503","0.0-232.0","1920x1080","","4072.5999999996275","0.40","img/314/2.5/1.5/bw/001.png","","","relaxing"
"","","","","","animation","233","2102070","0.0-233.0","1920x1080","","5564.4000000003725","100","img/314/5.5/0.66667/bw/001.png","","","relaxing"
"","","","","","animation","234","2109318","0.0-234.0","1920x1080","","7246.89999999851","55.56","img/238/4.5/0.66667/bw/001.png","","","relaxing"
"","","","","","animation","235","2136470","0.0-235.0","1920x1080","","27149.699999999255","100","img/238/5.5/2/bw/001.png","","","relaxing"
"","","","","","html-button-response","236","2192929","0.0-236.0","1920x1080","","56457.199999999255","","<div class=""intro"">You are about to view a new series of animations.<br><br></div><div class=""intro"">You will evaluate them based on a different descriptor.<br><br></div><div class=""intro"">Move the slider to indicate how <strong style=""text-transform:capitalize"">NATURAL</strong> you find each animation.<br><br></div><div class=""intro"">0 = Least Natural<br></div><div class=""intro"">1 = Most Natural<br><br></div><div class=""intro"">Remember to use the <strong><em>entire range</em></strong> of the slider to make your ratings.<br></div><div class=""intro"">Please <strong><em>take your time</em></strong> and carefully consider each rating you make.<br><br></div>","0","",""
"","","","","","call-function","237","2192932","0.0-237.0","1920x1080","","","","","","",""
"","","","","","animation","238","2309295","0.0-238.0","1920x1080","","116360.90000000037","80","img/238/4/1/bw/001.png","","","natural"
"","","","","","animation","239","2318431","0.0-239.0","1920x1080","","9134.5","89.95","img/238/5.5/1/bw/001.png","","","natural"
"","","","","","animation","240","2323045","0.0-240.0","1920x1080","","4613","100.40","img/314/5.5/0.66667/bw/001.png","","","natural"
"","","","","","animation","241","2330319","0.0-241.0","1920x1080","","7272.800000000745","65.21","img/117/4.5/0.5/bw/001.png","","","natural"
"","","","","","animation","242","2335112","0.0-242.0","1920x1080","","4791","57.67","img/314/3.5/0.5/bw/001.png","","","natural"
"","","","","","animation","243","2338745","0.0-243.0","1920x1080","","3632.2000000011176","88.36","img/117/4.5/2/bw/001.png","","","natural"
"","","","","","animation","244","2342045","0.0-244.0","1920x1080","","3298.9000000003725","100","img/238/5.5/0.66667/bw/001.png","","","natural"
"","","","","","animation","245","2345945","0.0-245.0","1920x1080","","3898.9000000003725","0.40","img/238/2.5/0.5/bw/001.png","","","natural"
"","","","","","animation","246","2351888","0.0-246.0","1920x1080","","5941","55.16","img/314/3.5/1.5/bw/001.png","","","natural"
"","","","","","animation","247","2356663","0.0-247.0","1920x1080","","4773.5","0","img/238/2.5/1/bw/001.png","","","natural"
"","","","","","animation","248","2366463","0.0-248.0","1920x1080","","9798.699999999255","70.37","img/117/4/0.66667/bw/001.png","","","natural"
"","","","","","animation","249","2371062","0.0-249.0","1920x1080","","4598.0999999996275","0","img/314/2.5/1/bw/001.png","","","natural"
"","","","","","animation","250","2484879","0.0-250.0","1920x1080","","113815.69999999925","75.26","img/117/4/1.5/bw/001.png","","","natural"
"","","","","","animation","251","2488199","0.0-251.0","1920x1080","","3318.800000000745","55.69","img/238/3.5/0.5/bw/001.png","","","natural"
"","","","","","animation","252","2493479","0.0-252.0","1920x1080","","5278.699999999255","41.53","img/238/4/1.5/bw/001.png","","","natural"
"","","","","","animation","253","2498520","0.0-253.0","1920x1080","","5039.4000000003725","0.40","img/238/2.5/0.66667/bw/001.png","","","natural"
"","","","","","animation","254","2501428","0.0-254.0","1920x1080","","2905.800000000745","0.93","img/117/2.5/1.5/bw/001.png","","","natural"
"","","","","","animation","255","2505111","0.0-255.0","1920x1080","","3682.0999999996275","0","img/117/2.5/0.5/bw/001.png","","","natural"
"","","","","","animation","256","2510000","0.0-256.0","1920x1080","","4887","55.03","img/117/3.5/2/bw/001.png","","","natural"
"","","","","","animation","257","2515079","0.0-257.0","1920x1080","","5078.39999999851","100","img/314/5.5/1/bw/001.png","","","natural"
"","","","","","animation","258","2520679","0.0-258.0","1920x1080","","5598.5999999996275","56.35","img/314/3.5/0.66667/bw/001.png","","","natural"
"","","","","","animation","259","2524028","0.0-259.0","1920x1080","","3347.9000000003725","0","img/117/2.5/1/bw/001.png","","","natural"
"","","","","","animation","260","2615894","0.0-260.0","1920x1080","","91865.19999999925","71.56","img/117/3.5/0.66667/bw/001.png","","","natural"
"","","","","","animation","261","2619367","0.0-261.0","1920x1080","","3471.5","83.47","img/238/4.5/2/bw/001.png","","","natural"
"","","","","","animation","262","2625911","0.0-262.0","1920x1080","","6542.300000000745","58.33","img/238/3.5/1.5/bw/001.png","","","natural"
"","","","","","animation","263","2630210","0.0-263.0","1920x1080","","4298.199999999255","100","img/117/5.5/1/bw/001.png","","","natural"
"","","","","","animation","264","2634594","0.0-264.0","1920x1080","","4382.199999999255","47.49","img/117/3.5/0.5/bw/001.png","","","natural"
"","","","","","animation","265","2636894","0.0-265.0","1920x1080","","2298.9000000003725","40","img/314/4/0.66667/bw/001.png","","","natural"
"","","","","","animation","266","2639810","0.0-266.0","1920x1080","","2915.800000000745","72","img/238/3.5/2/bw/001.png","","","natural"
"","","","","","animation","267","2641910","0.0-267.0","1920x1080","","2099","83.33","img/117/4.5/1.5/bw/001.png","","","natural"
"","","","","","animation","268","2643777","0.0-268.0","1920x1080","","1865.300000000745","93.25","img/238/4.5/1.5/bw/001.png","","","natural"
"","","","","","animation","269","2646247","0.0-269.0","1920x1080","","2468.800000000745","0","img/238/2.5/1.5/bw/001.png","","","natural"
"","","","","","animation","270","2649599","0.0-270.0","1920x1080","","3350.7000000011176","0","img/117/2.5/2/bw/001.png","","","natural"
"","","","","","animation","271","2701694","0.0-271.0","1920x1080","","52092.60000000149","79.37","img/117/4.5/1/bw/001.png","","","natural"
"","","","","","animation","272","2704694","0.0-272.0","1920x1080","","2998.5999999996275","0.40","img/238/2.5/2/bw/001.png","","","natural"
"","","","","","animation","273","2709594","0.0-273.0","1920x1080","","4898.10000000149","74.74","img/314/4.5/1/bw/001.png","","","natural"
"","","","","","animation","274","2714346","0.0-274.0","1920x1080","","4749.300000000745","100","img/314/5.5/1.5/bw/001.png","","","natural"
"","","","","","animation","275","2717661","0.0-275.0","1920x1080","","3314.5999999996275","80.42","img/117/4.5/0.66667/bw/001.png","","","natural"
"","","","","","animation","276","2720995","0.0-276.0","1920x1080","","3332.7000000011176","100","img/238/5.5/0.5/bw/001.png","","","natural"
"","","","","","animation","277","2724249","0.0-277.0","1920x1080","","3252.5999999996275","57.54","img/314/3.5/2/bw/001.png","","","natural"
"","","","","","animation","278","2726969","0.0-278.0","1920x1080","","2718.9000000003725","0.53","img/314/2.5/2/bw/001.png","","","natural"
"","","","","","animation","279","2729562","0.0-279.0","1920x1080","","2591.300000000745","26.46","img/117/3.5/1/bw/001.png","","","natural"
"","","","","","animation","280","2731833","0.0-280.0","1920x1080","","2269.800000000745","33.47","img/117/3.5/1.5/bw/001.png","","","natural"
"","","","","","animation","281","2735201","0.0-281.0","1920x1080","","3367.199999999255","86.64","img/314/4.5/2/bw/001.png","","","natural"
"","","","","","animation","282","2738033","0.0-282.0","1920x1080","","2831","100","img/117/5.5/1.5/bw/001.png","","","natural"
"","","","","","animation","283","2741897","0.0-283.0","1920x1080","","3861.60000000149","42.06","img/238/3.5/1/bw/001.png","","","natural"
"","","","","","animation","284","2744213","0.0-284.0","1920x1080","","2315.699999999255","14.81","img/238/4/0.66667/bw/001.png","","","natural"
"","","","","","animation","285","2746362","0.0-285.0","1920x1080","","2146.7000000011176","6.35","img/238/4.5/0.66667/bw/001.png","","","natural"
"","","","","","animation","286","2751601","0.0-286.0","1920x1080","","5237.700000001118","31.61","img/238/4/2/bw/001.png","","","natural"
"","","","","","animation","287","2755053","0.0-287.0","1920x1080","","3451.4000000003725","0.79","img/314/2.5/1.5/bw/001.png","","","natural"
"","","","","","animation","288","2769162","0.0-288.0","1920x1080","","14107","21.69","img/238/4/0.5/bw/001.png","","","natural"
"","","","","","animation","289","2772481","0.0-289.0","1920x1080","","3317.4000000003725","100","img/238/5.5/1.5/bw/001.png","","","natural"
"","","","","","animation","290","2785379","0.0-290.0","1920x1080","","12896.099999999627","73.81","img/238/4.5/1/bw/001.png","","","natural"
"","","","","","animation","291","2794633","0.0-291.0","1920x1080","","9253.5","28.44","img/117/4/1/bw/001.png","","","natural"
"","","","","","animation","292","2798945","0.0-292.0","1920x1080","","4310.800000000745","19.18","img/117/4/0.5/bw/001.png","","","natural"
"","","","","","animation","293","2801962","0.0-293.0","1920x1080","","3015.2000000011176","100","img/117/5.5/2/bw/001.png","","","natural"
"","","","","","animation","294","2805362","0.0-294.0","1920x1080","","3398.4000000003725","0.40","img/314/2.5/0.66667/bw/001.png","","","natural"
"","","","","","animation","295","2807605","0.0-295.0","1920x1080","","2241.5999999996275","0","img/238/3.5/0.66667/bw/001.png","","","natural"
"","","","","","animation","296","2810952","0.0-296.0","1920x1080","","3345.9000000003725","29.89","img/314/4/0.5/bw/001.png","","","natural"
"","","","","","animation","297","2813136","0.0-297.0","1920x1080","","2182.39999999851","0.40","img/117/2.5/0.66667/bw/001.png","","","natural"
"","","","","","animation","298","2815112","0.0-298.0","1920x1080","","1974.9000000003725","0","img/314/2.5/0.5/bw/001.png","","","natural"
"","","","","","animation","299","2819433","0.0-299.0","1920x1080","","4320.200000001118","27","img/314/4.5/0.5/bw/001.png","","","natural"
"","","","","","animation","300","2822697","0.0-300.0","1920x1080","","3262.4000000003725","27","img/238/4.5/0.5/bw/001.png","","","natural"
"","","","","","animation","301","2837597","0.0-301.0","1920x1080","","14898.099999999627","69.58","img/314/4/2/bw/001.png","","","natural"
"","","","","","animation","302","2840403","0.0-302.0","1920x1080","","2804.2000000011176","68.12","img/314/4/1.5/bw/001.png","","","natural"
"","","","","","animation","303","2843756","0.0-303.0","1920x1080","","3351.5","100","img/314/5.5/0.5/bw/001.png","","","natural"
"","","","","","animation","304","2846339","0.0-304.0","1920x1080","","2581.5999999996275","100","img/117/5.5/0.66667/bw/001.png","","","natural"
"","","","","","animation","305","2848787","0.0-305.0","1920x1080","","2446.0999999996275","100","img/238/5.5/2/bw/001.png","","","natural"
"","","","","","animation","306","2852129","0.0-306.0","1920x1080","","3341.300000000745","41.93","img/314/3.5/1/bw/001.png","","","natural"
"","","","","","animation","307","2855213","0.0-307.0","1920x1080","","3081.5","80.69","img/314/4.5/1.5/bw/001.png","","","natural"
"","","","","","animation","308","2857500","0.0-308.0","1920x1080","","2286.300000000745","58","img/314/4/1/bw/001.png","","","natural"
"","","","","","animation","309","2860250","0.0-309.0","1920x1080","","2748.7000000011176","86.38","img/314/5.5/2/bw/001.png","","","natural"
"","","","","","animation","310","2865963","0.0-310.0","1920x1080","","5711.5999999996275","88.49","img/117/5.5/0.5/bw/001.png","","","natural"
"","","","","","animation","311","2870802","0.0-311.0","1920x1080","","4837.699999999255","54.89","img/314/4.5/0.66667/bw/001.png","","","natural"
"","","","","","animation","312","2873203","0.0-312.0","1920x1080","","2399.199999999255","66.01","img/117/4/2/bw/001.png","","","natural"
"","","","","","html-button-response","313","2906213","0.0-313.0","1920x1080","","33006.29999999888","","<div class=""intro"">You are about to view a new series of animations.<br><br></div><div class=""intro"">You will evaluate them based on a different descriptor.<br><br></div><div class=""intro"">Move the slider to indicate how <strong style=""text-transform:capitalize"">INTERESTING</strong> you find each animation.<br><br></div><div class=""intro"">0 = Least Interesting<br></div><div class=""intro"">1 = Most Interesting<br><br></div><div class=""intro"">Remember to use the <strong><em>entire range</em></strong> of the slider to make your ratings.<br></div><div class=""intro"">Please <strong><em>take your time</em></strong> and carefully consider each rating you make.<br><br></div>","0","",""
"","","","","","call-function","314","2906218","0.0-314.0","1920x1080","","","","","","",""
"","","","","","animation","315","2916331","0.0-315.0","1920x1080","","10112.200000001118","19.71","img/314/3.5/1.5/bw/001.png","","","interesting"
"","","","","","animation","316","2922235","0.0-316.0","1920x1080","","5902.800000000745","41.93","img/314/4/0.5/bw/001.png","","","interesting"
"","","","","","animation","317","2929371","0.0-317.0","1920x1080","","7134.5999999996275","49.74","img/238/4.5/0.66667/bw/001.png","","","interesting"
"","","","","","animation","318","2932793","0.0-318.0","1920x1080","","3420.199999999255","0.79","img/314/2.5/2/bw/001.png","","","interesting"
"","","","","","animation","319","2936673","0.0-319.0","1920x1080","","3877.5999999996275","81.35","img/117/4.5/2/bw/001.png","","","interesting"
"","","","","","animation","320","2940685","0.0-320.0","1920x1080","","4011.5999999996275","100","img/238/5.5/0.5/bw/001.png","","","interesting"
"","","","","","animation","321","2954869","0.0-321.0","1920x1080","","14180.900000000373","78.31","img/314/4.5/1/bw/001.png","","","interesting"
"","","","","","animation","322","3051702","0.0-322.0","1920x1080","","96831.90000000037","62.43","img/314/4.5/0.66667/bw/001.png","","","interesting"
"","","","","","animation","323","3054349","0.0-323.0","1920x1080","","2645.199999999255","71.16","img/238/4.5/1/bw/001.png","","","interesting"
"","","","","","animation","324","3059198","0.0-324.0","1920x1080","","4846.199999999255","81.61","img/314/3.5/2/bw/001.png","","","interesting"
"","","","","","animation","325","3061269","0.0-325.0","1920x1080","","2069.7999999988824","0","img/238/2.5/1.5/bw/001.png","","","interesting"
"","","","","","animation","326","3064748","0.0-326.0","1920x1080","","3477.89999999851","24.60","img/238/3.5/0.66667/bw/001.png","","","interesting"
"","","","","","animation","327","3067269","0.0-327.0","1920x1080","","2519.699999999255","0.79","img/117/2.5/0.5/bw/001.png","","","interesting"
"","","","","","animation","328","3071100","0.0-328.0","1920x1080","","3830.699999999255","48.94","img/238/4/1/bw/001.png","","","interesting"
"","","","","","animation","329","3076421","0.0-329.0","1920x1080","","5319.0999999996275","31.08","img/117/3.5/0.66667/bw/001.png","","","interesting"
"","","","","","animation","330","3080198","0.0-330.0","1920x1080","","3775.5","71.56","img/314/4/2/bw/001.png","","","interesting"
"","","","","","animation","331","3082482","0.0-331.0","1920x1080","","2282.300000000745","74.21","img/117/4/1.5/bw/001.png","","","interesting"
"","","","","","animation","332","3085237","0.0-332.0","1920x1080","","2752.9000000003725","100","img/117/5.5/0.66667/bw/001.png","","","interesting"
"","","","","","animation","333","3087917","0.0-333.0","1920x1080","","2678.199999999255","100","img/314/5.5/1/bw/001.png","","","interesting"
"","","","","","animation","334","3090031","0.0-334.0","1920x1080","","2113.4000000003725","100","img/238/5.5/0.66667/bw/001.png","","","interesting"
"","","","","","animation","335","3095317","0.0-335.0","1920x1080","","5283.800000000745","70.63","img/238/3.5/2/bw/001.png","","","interesting"
"","","","","","animation","336","3097707","0.0-336.0","1920x1080","","2389.2999999988824","100","img/314/5.5/0.5/bw/001.png","","","interesting"
"","","","","","animation","337","3101458","0.0-337.0","1920x1080","","3749.4000000003725","61.51","img/117/4.5/0.66667/bw/001.png","","","interesting"
"","","","","","animation","338","3105421","0.0-338.0","1920x1080","","3961.199999999255","20.37","img/238/3.5/0.5/bw/001.png","","","interesting"
"","","","","","animation","339","3108121","0.0-339.0","1920x1080","","2698.699999999255","100","img/117/5.5/0.5/bw/001.png","","","interesting"
"","","","","","animation","340","3112614","0.0-340.0","1920x1080","","4491.9000000003725","40.21","img/314/4/0.66667/bw/001.png","","","interesting"
"","","","","","animation","341","3115981","0.0-341.0","1920x1080","","3366.2000000011176","64.95","img/238/4.5/0.5/bw/001.png","","","interesting"
"","","","","","animation","342","3119208","0.0-342.0","1920x1080","","3225.0999999996275","18.92","img/117/3.5/0.5/bw/001.png","","","interesting"
"","","","","","animation","343","3184838","0.0-343.0","1920x1080","","65627.69999999925","68.78","img/314/4.5/0.5/bw/001.png","","","interesting"
"","","","","","animation","344","3189491","0.0-344.0","1920x1080","","4651.700000001118","0.00","img/314/2.5/0.66667/bw/001.png","","","interesting"
"","","","","","animation","345","3196818","0.0-345.0","1920x1080","","7323.5999999996275","25.13","img/117/4/0.66667/bw/001.png","","","interesting"
"","","","","","animation","346","3203145","0.0-346.0","1920x1080","","6325.300000000745","20.11","img/238/4/0.5/bw/001.png","","","interesting"
"","","","","","animation","347","3217033","0.0-347.0","1920x1080","","13886.5","64.95","img/117/4/1/bw/001.png","","","interesting"
"","","","","","animation","348","3219789","0.0-348.0","1920x1080","","2754.9000000003725","100","img/314/5.5/0.66667/bw/001.png","","","interesting"
"","","","","","animation","349","3241206","0.0-349.0","1920x1080","","21416.199999999255","62.57","img/314/3.5/1/bw/001.png","","","interesting"
"","","","","","animation","350","3247527","0.0-350.0","1920x1080","","6319.200000001118","35.58","img/117/4/0.5/bw/001.png","","","interesting"
"","","","","","animation","351","3251050","0.0-351.0","1920x1080","","3521.2000000011176","0.53","img/238/2.5/0.66667/bw/001.png","","","interesting"
"","","","","","animation","352","3258399","0.0-352.0","1920x1080","","7348","62.30","img/117/4.5/0.5/bw/001.png","","","interesting"
"","","","","","animation","353","3260935","0.0-353.0","1920x1080","","2534.199999999255","0.53","img/117/2.5/2/bw/001.png","","","interesting"
"","","","","","animation","354","3263439","0.0-354.0","1920x1080","","2502.800000000745","0.40","img/117/3.5/1/bw/001.png","","","interesting"
"","","","","","animation","355","3265582","0.0-355.0","1920x1080","","2141.9000000003725","1.19","img/238/2.5/2/bw/001.png","","","interesting"
"","","","","","animation","356","3267983","0.0-356.0","1920x1080","","2399.5999999996275","0.13","img/117/2.5/0.66667/bw/001.png","","","interesting"
"","","","","","animation","357","3272499","0.0-357.0","1920x1080","","4514.800000000745","64","img/314/4/1.5/bw/001.png","","","interesting"
"","","","","","animation","358","3275141","0.0-358.0","1920x1080","","2640.7000000011176","67.86","img/117/4.5/1.5/bw/001.png","","","interesting"
"","","","","","animation","359","3278688","0.0-359.0","1920x1080","","3546","100","img/238/5.5/2/bw/001.png","","","interesting"
"","","","","","animation","360","3281807","0.0-360.0","1920x1080","","3117","67.72","img/238/4/2/bw/001.png","","","interesting"
"","","","","","animation","361","3285882","0.0-361.0","1920x1080","","4073.699999999255","0","img/314/2.5/0.5/bw/001.png","","","interesting"
"","","","","","animation","362","3339240","0.0-362.0","1920x1080","","53356.40000000037","32.67","img/238/4/0.66667/bw/001.png","","","interesting"
"","","","","","animation","363","3342182","0.0-363.0","1920x1080","","2940.5999999996275","100","img/314/5.5/1.5/bw/001.png","","","interesting"
"","","","","","animation","364","3344866","0.0-364.0","1920x1080","","2682","29.63","img/314/3.5/0.5/bw/001.png","","","interesting"
"","","","","","animation","365","3346965","0.0-365.0","1920x1080","","2098.39999999851","0.40","img/238/2.5/1/bw/001.png","","","interesting"
"","","","","","animation","366","3349862","0.0-366.0","1920x1080","","2894.9000000003725","18.25","img/238/3.5/1.5/bw/001.png","","","interesting"
"","","","","","animation","367","3352067","0.0-367.0","1920x1080","","2204.4000000003725","62.17","img/314/4.5/2/bw/001.png","","","interesting"
"","","","","","animation","368","3353932","0.0-368.0","1920x1080","","1863.4000000003725","70.63","img/117/4/2/bw/001.png","","","interesting"
"","","","","","animation","369","3356471","0.0-369.0","1920x1080","","2537.4000000003725","99","img/238/5.5/1.5/bw/001.png","","","interesting"
"","","","","","animation","370","3360998","0.0-370.0","1920x1080","","4525.299999998882","69.58","img/238/4.5/1.5/bw/001.png","","","interesting"
"","","","","","animation","371","3365558","0.0-371.0","1920x1080","","4557.9000000003725","0","img/314/2.5/1.5/bw/001.png","","","interesting"
"","","","","","animation","372","3376275","0.0-372.0","1920x1080","","10715.900000000373","15.48","img/117/3.5/2/bw/001.png","","","interesting"
"","","","","","animation","373","3380472","0.0-373.0","1920x1080","","4195","100","img/314/5.5/2/bw/001.png","","","interesting"
"","","","","","animation","374","3384206","0.0-374.0","1920x1080","","3731.199999999255","20.63","img/117/3.5/1.5/bw/001.png","","","interesting"
"","","","","","animation","375","3386869","0.0-375.0","1920x1080","","2661.89999999851","0.40","img/117/2.5/1/bw/001.png","","","interesting"
"","","","","","animation","376","3410031","0.0-376.0","1920x1080","","23161","55.69","img/314/4/1/bw/001.png","","","interesting"
"","","","","","animation","377","3415555","0.0-377.0","1920x1080","","5522.199999999255","100","img/117/5.5/1.5/bw/001.png","","","interesting"
"","","","","","animation","378","3419750","0.0-378.0","1920x1080","","4193","0.13","img/314/2.5/1/bw/001.png","","","interesting"
"","","","","","animation","379","3426958","0.0-379.0","1920x1080","","7206","42","img/117/4.5/1/bw/001.png","","","interesting"
"","","","","","animation","380","3431948","0.0-380.0","1920x1080","","4988.39999999851","100","img/117/5.5/1/bw/001.png","","","interesting"
"","","","","","animation","381","3434832","0.0-381.0","1920x1080","","2881.2000000011176","0.00","img/117/2.5/1.5/bw/001.png","","","interesting"
"","","","","","animation","382","3439081","0.0-382.0","1920x1080","","4247.5999999996275","100","img/117/5.5/2/bw/001.png","","","interesting"
"","","","","","animation","383","3443565","0.0-383.0","1920x1080","","4481.5","69.05","img/314/4.5/1.5/bw/001.png","","","interesting"
"","","","","","animation","384","3454272","0.0-384.0","1920x1080","","10706.099999999627","66","img/238/4/1.5/bw/001.png","","","interesting"
"","","","","","animation","385","3458006","0.0-385.0","1920x1080","","3732.10000000149","100","img/238/5.5/1/bw/001.png","","","interesting"
"","","","","","animation","386","3460118","0.0-386.0","1920x1080","","2110.800000000745","31.88","img/314/3.5/0.66667/bw/001.png","","","interesting"
"","","","","","animation","387","3463531","0.0-387.0","1920x1080","","3411.4000000003725","0.13","img/238/2.5/0.5/bw/001.png","","","interesting"
"","","","","","animation","388","3467314","0.0-388.0","1920x1080","","3781.5999999996275","92.46","img/238/4.5/2/bw/001.png","","","interesting"
"","","","","","animation","389","3469409","0.0-389.0","1920x1080","","2093.5","65.08","img/238/3.5/1/bw/001.png","","","interesting"
"","","","","","html-button-response","390","3516884","0.0-390.0","1920x1080","","47473.199999999255","","<strong>Study Debriefing</strong><br><p class=""debrief""><strong>Background:</strong> The patterns you rated are called <em>fractals</em>. The term fractal describes a class of irregular curves or shapes for which any suitably chosen part is similar in shape to a given larger or smaller part when magnified or reduced to the same size. Fractal properties are found throughout the natural and manmade world. The series of animations you saw today displayed animated fractal patterns of a varying complexity.</p><p class=""debrief""><strong>Purpose of this study:</strong> We hope to better understand how the perception of static fractals differs from the perception of animated fractals, and how the speed of the animated patterns influences people&apos;s perception of them. Fractals allow us to study the perception of aesthetic properties (e.g. the perceived level of beauty in an image) without using recognizable content, which makes them an excellent tool for studying abstract aesthetic judgement.</p><p class=""debrief""><strong>Your part:</strong> Your participation has helped us to further understand how humans perceive these patterns across different levels of speed and complexity. This research with allow us to better understand how the visual system and brain process our ever-changing visual environments.<p class=""debrief""><strong>Feedback and Further information:</strong> If you have additional questions about this study, please feel free to ask the researcher, Nathan Gonzales-Hess at nhess @ uoregon.edu. If you have any questions concerning your rights as a research participant, please contact Research Compliance Services, 5237 University of Oregon, Eugene, OR 97403, 541-346-2510, or email researchCompliance @ uoregon.edu. You can also email the Human Subjects Coordinator for psychology and linguistics research at hscoord @ uoregon.edu. ","0","",""
"","","","","","html-button-response","391","4991381","0.0-391.0","1920x1080","","1474510.0999999996","","Thank you for participating in this study. <br>Please click below to finish the experiment and submit your responses.<br><br>","0","",""
"true","","","","","fullscreen","392","4992395","0.0-392.0","1920x1080","13:53 4/11/2022","","","","","",""
