"success","timeout","failed_images","failed_audio","failed_video","trial_type","trial_index","time_elapsed","internal_node_id","resolution","timeStamp","rt","response","stimulus","button_pressed","value","descriptor"
"true","false","[]","[]","[]","preload","0","39811","0.0-0.0","1920x1080","","","","","","",""
"true","false","[]","[]","[]","preload","1","74783","0.0-1.0","1920x1080","","","","","","",""
"true","false","[]","[]","[]","preload","2","112258","0.0-2.0","1920x1080","","","","","","",""
"true","","","","","fullscreen","3","115978","0.0-3.0","1920x1080","14:19 19/5/2022","","","","","",""
"","","","","","survey-html-form","4","126074","0.0-4.0","1920x1080","","10094.200000017881","{""age"":""19"",""gender"":""female""}","","","",""
"","","","","","html-button-response","5","136634","0.0-5.0","1920x1080","","10558.699999988079","","<div class=""complex"">You are going to see a series of animations.<br><br></div><div class=""complex"">Move the slider to indicate how <strong style=""text-transform:capitalize"">COMPLEX</strong> you find each animation.<br><br></div><div class=""complex"">0 = Least Complex<br></div><div class=""complex"">1 = Most Complex<br><br></div><div class=""complex"">Remember to use the <strong><em>entire range</em></strong> of the slider to make your ratings.<br></div><div class=""complex"">Please <strong><em>take your time</em></strong> and carefully consider each rating you make.<br><br></div><div class=""complex"">The study has five sections and will take about 45 minutes to complete.<br><br></div>","0","",""
"","","","","","call-function","6","136635","0.0-6.0","1920x1080","","","","","","",""
"","","","","","animation","7","149994","0.0-7.0","1920x1080","","13357.300000011921","100","img/117/2.5/1.5/bw/001.png","","","complex"
"","","","","","animation","8","158202","0.0-8.0","1920x1080","","8206.90000000596","100","img/314/2.5/2/bw/001.png","","","complex"
"","","","","","animation","9","164154","0.0-9.0","1920x1080","","5950.800000011921","71","img/117/5.5/1/bw/001.png","","","complex"
"","","","","","animation","10","170066","0.0-10.0","1920x1080","","5910.5","82.94","img/314/4/1.5/bw/001.png","","","complex"
"","","","","","animation","11","174010","0.0-11.0","1920x1080","","3942.5999999940395","86.90","img/117/4/2/bw/001.png","","","complex"
"","","","","","animation","12","179290","0.0-12.0","1920x1080","","5278.800000011921","85.45","img/117/4.5/1/bw/001.png","","","complex"
"","","","","","animation","13","182265","0.0-13.0","1920x1080","","2974.7999999821186","99","img/238/2.5/1/bw/001.png","","","complex"
"","","","","","animation","14","185979","0.0-14.0","1920x1080","","3712.4000000059605","93.39","img/238/3.5/1/bw/001.png","","","complex"
"","","","","","animation","15","189938","0.0-15.0","1920x1080","","3957.899999976158","68","img/238/4/2/bw/001.png","","","complex"
"","","","","","animation","16","213697","0.0-16.0","1920x1080","","23758.90000000596","93","img/314/3.5/0.5/bw/001.png","","","complex"
"","","","","","animation","17","217010","0.0-17.0","1920x1080","","3311.5","91","img/238/3.5/0.66667/bw/001.png","","","complex"
"","","","","","animation","18","220681","0.0-18.0","1920x1080","","3670.5999999940395","51","img/314/4/1/bw/001.png","","","complex"
"","","","","","animation","19","223234","0.0-19.0","1920x1080","","2551.399999976158","100","img/314/2.5/1.5/bw/001.png","","","complex"
"","","","","","animation","20","227690","0.0-20.0","1920x1080","","4455.4000000059605","20","img/238/5.5/1/bw/001.png","","","complex"
"","","","","","animation","21","230874","0.0-21.0","1920x1080","","3183.4000000059605","99","img/238/2.5/0.66667/bw/001.png","","","complex"
"","","","","","animation","22","235867","0.0-22.0","1920x1080","","4990.699999988079","9","img/238/5.5/1.5/bw/001.png","","","complex"
"","","","","","animation","23","240843","0.0-23.0","1920x1080","","4975.0999999940395","8.33","img/314/5.5/1.5/bw/001.png","","","complex"
"","","","","","animation","24","245091","0.0-24.0","1920x1080","","4247.5","18","img/117/4.5/0.5/bw/001.png","","","complex"
"","","","","","animation","25","247507","0.0-25.0","1920x1080","","2415.199999988079","22.35","img/314/4.5/0.66667/bw/001.png","","","complex"
"","","","","","animation","26","251364","0.0-26.0","1920x1080","","3855.800000011921","14.81","img/117/5.5/0.66667/bw/001.png","","","complex"
"","","","","","animation","27","262267","0.0-27.0","1920x1080","","10902.399999976158","58","img/238/4/1.5/bw/001.png","","","complex"
"","","","","","animation","28","264635","0.0-28.0","1920x1080","","2367.0999999940395","55.16","img/238/4/0.5/bw/001.png","","","complex"
"","","","","","animation","29","272955","0.0-29.0","1920x1080","","8319.5","54.10","img/314/3.5/1.5/bw/001.png","","","complex"
"","","","","","animation","30","275907","0.0-30.0","1920x1080","","2950.9000000059605","26.59","img/238/4.5/2/bw/001.png","","","complex"
"","","","","","animation","31","279603","0.0-31.0","1920x1080","","3695.100000023842","3.70","img/314/5.5/1/bw/001.png","","","complex"
"","","","","","animation","32","282997","0.0-32.0","1920x1080","","3392.4000000059605","17.86","img/314/4.5/0.5/bw/001.png","","","complex"
"","","","","","animation","33","285939","0.0-33.0","1920x1080","","2942.2000000178814","37.04","img/238/4.5/0.5/bw/001.png","","","complex"
"","","","","","animation","34","293956","0.0-34.0","1920x1080","","8015.300000011921","55.16","img/238/3.5/1.5/bw/001.png","","","complex"
"","","","","","animation","35","295652","0.0-35.0","1920x1080","","1694.7999999821186","46.03","img/117/4.5/2/bw/001.png","","","complex"
"","","","","","animation","36","299804","0.0-36.0","1920x1080","","4151.5999999940395","17.20","img/117/5.5/0.5/bw/001.png","","","complex"
"","","","","","animation","37","303188","0.0-37.0","1920x1080","","3382.5999999940395","90","img/238/2.5/1.5/bw/001.png","","","complex"
"","","","","","animation","38","306188","0.0-38.0","1920x1080","","2999.5","90.08","img/238/2.5/0.5/bw/001.png","","","complex"
"","","","","","animation","39","311547","0.0-39.0","1920x1080","","5358.5999999940395","11.64","img/314/4.5/1.5/bw/001.png","","","complex"
"","","","","","animation","40","338964","0.0-40.0","1920x1080","","27416","89.15","img/238/3.5/0.5/bw/001.png","","","complex"
"","","","","","animation","41","340924","0.0-41.0","1920x1080","","1959.300000011921","73.68","img/117/3.5/1/bw/001.png","","","complex"
"","","","","","animation","42","343916","0.0-42.0","1920x1080","","2990.9000000059605","64.68","img/117/4.5/1.5/bw/001.png","","","complex"
"","","","","","animation","43","348949","0.0-43.0","1920x1080","","5032.100000023842","66","img/314/4/2/bw/001.png","","","complex"
"","","","","","animation","44","351436","0.0-44.0","1920x1080","","2486","98","img/314/2.5/0.66667/bw/001.png","","","complex"
"","","","","","animation","45","361999","0.0-45.0","1920x1080","","10561.300000011921","85.85","img/314/3.5/1/bw/001.png","","","complex"
"","","","","","animation","46","364629","0.0-46.0","1920x1080","","2629","5.95","img/314/5.5/0.66667/bw/001.png","","","complex"
"","","","","","animation","47","367717","0.0-47.0","1920x1080","","3087.199999988079","71.56","img/314/3.5/2/bw/001.png","","","complex"
"","","","","","animation","48","371805","0.0-48.0","1920x1080","","4087.399999976158","93.39","img/314/2.5/0.5/bw/001.png","","","complex"
"","","","","","animation","49","380821","0.0-49.0","1920x1080","","9015.40000000596","84.79","img/314/3.5/0.66667/bw/001.png","","","complex"
"","","","","","animation","50","383334","0.0-50.0","1920x1080","","2511.4000000059605","53.17","img/238/3.5/2/bw/001.png","","","complex"
"","","","","","animation","51","387816","0.0-51.0","1920x1080","","4481.4000000059605","23","img/238/4.5/0.66667/bw/001.png","","","complex"
"","","","","","animation","52","391605","0.0-52.0","1920x1080","","3788.4000000059605","46.30","img/117/3.5/2/bw/001.png","","","complex"
"","","","","","animation","53","396583","0.0-53.0","1920x1080","","4976.4000000059605","73.68","img/117/3.5/1.5/bw/001.png","","","complex"
"","","","","","animation","54","433559","0.0-54.0","1920x1080","","36973.80000001192","50.13","img/117/4/0.66667/bw/001.png","","","complex"
"","","","","","animation","55","439535","0.0-55.0","1920x1080","","5975","98","img/117/2.5/0.5/bw/001.png","","","complex"
"","","","","","animation","56","443111","0.0-56.0","1920x1080","","3574.5999999940395","57.54","img/314/4/0.5/bw/001.png","","","complex"
"","","","","","animation","57","447863","0.0-57.0","1920x1080","","4751.199999988079","47.49","img/117/4/1/bw/001.png","","","complex"
"","","","","","animation","58","453343","0.0-58.0","1920x1080","","5478.9000000059605","52.38","img/238/4/1/bw/001.png","","","complex"
"","","","","","animation","59","457327","0.0-59.0","1920x1080","","3983.0999999940395","90.74","img/314/2.5/1/bw/001.png","","","complex"
"","","","","","animation","60","463774","0.0-60.0","1920x1080","","6446.799999982119","44.58","img/117/4/0.5/bw/001.png","","","complex"
"","","","","","animation","61","516296","0.0-61.0","1920x1080","","52519.59999999404","8.20","img/314/5.5/0.5/bw/001.png","","","complex"
"","","","","","animation","62","520144","0.0-62.0","1920x1080","","3846.5","94.97","img/117/2.5/1/bw/001.png","","","complex"
"","","","","","animation","63","527753","0.0-63.0","1920x1080","","7607.399999976158","1","img/238/5.5/2/bw/001.png","","","complex"
"","","","","","animation","64","531256","0.0-64.0","1920x1080","","3501.9000000059605","30","img/238/4/0.66667/bw/001.png","","","complex"
"","","","","","animation","65","533480","0.0-65.0","1920x1080","","2223.4000000059605","35.05","img/314/4.5/1/bw/001.png","","","complex"
"","","","","","animation","66","537305","0.0-66.0","1920x1080","","3822.5999999940395","45.50","img/117/4.5/0.66667/bw/001.png","","","complex"
"","","","","","animation","67","541578","0.0-67.0","1920x1080","","4271.5","81.48","img/117/2.5/2/bw/001.png","","","complex"
"","","","","","animation","68","546177","0.0-68.0","1920x1080","","4598.800000011921","13.36","img/117/5.5/2/bw/001.png","","","complex"
"","","","","","animation","69","548457","0.0-69.0","1920x1080","","2279.2000000178814","32.14","img/314/4/0.66667/bw/001.png","","","complex"
"","","","","","animation","70","552593","0.0-70.0","1920x1080","","4135.4000000059605","18.78","img/238/5.5/0.5/bw/001.png","","","complex"
"","","","","","animation","71","559025","0.0-71.0","1920x1080","","6431","35.71","img/238/4.5/1/bw/001.png","","","complex"
"","","","","","animation","72","562921","0.0-72.0","1920x1080","","3894.9000000059605","36.38","img/117/3.5/0.5/bw/001.png","","","complex"
"","","","","","animation","73","565420","0.0-73.0","1920x1080","","2498","63.49","img/117/3.5/0.66667/bw/001.png","","","complex"
"","","","","","animation","74","570220","0.0-74.0","1920x1080","","4799.0999999940395","29.76","img/238/4.5/1.5/bw/001.png","","","complex"
"","","","","","animation","75","574097","0.0-75.0","1920x1080","","3876.300000011921","24.34","img/314/5.5/2/bw/001.png","","","complex"
"","","","","","animation","76","585489","0.0-76.0","1920x1080","","11390.699999988079","35.32","img/314/4.5/2/bw/001.png","","","complex"
"","","","","","animation","77","589113","0.0-77.0","1920x1080","","3623.4000000059605","96","img/238/2.5/2/bw/001.png","","","complex"
"","","","","","animation","78","592853","0.0-78.0","1920x1080","","3738.2999999821186","64","img/117/4/1.5/bw/001.png","","","complex"
"","","","","","animation","79","595073","0.0-79.0","1920x1080","","2219.4000000059605","77","img/117/2.5/0.66667/bw/001.png","","","complex"
"","","","","","animation","80","597237","0.0-80.0","1920x1080","","2162.4000000059605","33.86","img/117/5.5/1.5/bw/001.png","","","complex"
"","","","","","animation","81","601737","0.0-81.0","1920x1080","","4499.800000011921","0","img/238/5.5/0.66667/bw/001.png","","","complex"
"","","","","","html-button-response","82","632178","0.0-82.0","1920x1080","","30439.59999999404","","<div class=""intro"">You are about to view a new series of animations.<br><br></div><div class=""intro"">You will evaluate them based on a different descriptor.<br><br></div><div class=""intro"">Move the slider to indicate how <strong style=""text-transform:capitalize"">INTERESTING</strong> you find each animation.<br><br></div><div class=""intro"">0 = Least Interesting<br></div><div class=""intro"">1 = Most Interesting<br><br></div><div class=""intro"">Remember to use the <strong><em>entire range</em></strong> of the slider to make your ratings.<br></div><div class=""intro"">Please <strong><em>take your time</em></strong> and carefully consider each rating you make.<br><br></div>","0","",""
"","","","","","call-function","83","632183","0.0-83.0","1920x1080","","","","","","",""
"","","","","","animation","84","641721","0.0-84.0","1920x1080","","9537.59999999404","53.17","img/314/4/1.5/bw/001.png","","","interesting"
"","","","","","animation","85","647089","0.0-85.0","1920x1080","","5367.0999999940395","6.35","img/238/3.5/0.66667/bw/001.png","","","interesting"
"","","","","","animation","86","655594","0.0-86.0","1920x1080","","8503.300000011921","66","img/238/4/1.5/bw/001.png","","","interesting"
"","","","","","animation","87","659403","0.0-87.0","1920x1080","","3809.0999999940395","87.04","img/238/4.5/0.5/bw/001.png","","","interesting"
"","","","","","animation","88","662410","0.0-88.0","1920x1080","","3005.100000023842","3.84","img/117/2.5/1.5/bw/001.png","","","interesting"
"","","","","","animation","89","681853","0.0-89.0","1920x1080","","19442","40","img/117/3.5/0.66667/bw/001.png","","","interesting"
"","","","","","animation","90","698705","0.0-90.0","1920x1080","","16851.90000000596","35.19","img/314/4/0.66667/bw/001.png","","","interesting"
"","","","","","animation","91","706082","0.0-91.0","1920x1080","","7375.5","77","img/314/4/1/bw/001.png","","","interesting"
"","","","","","animation","92","716547","0.0-92.0","1920x1080","","10463","55.69","img/117/4/0.5/bw/001.png","","","interesting"
"","","","","","animation","93","720707","0.0-93.0","1920x1080","","4158.4000000059605","13.89","img/238/2.5/1/bw/001.png","","","interesting"
"","","","","","animation","94","726691","0.0-94.0","1920x1080","","5983.299999982119","6","img/314/2.5/1.5/bw/001.png","","","interesting"
"","","","","","animation","95","737270","0.0-95.0","1920x1080","","10578.59999999404","74.60","img/314/4/2/bw/001.png","","","interesting"
"","","","","","animation","96","743723","0.0-96.0","1920x1080","","6451.200000017881","90.87","img/238/5.5/1.5/bw/001.png","","","interesting"
"","","","","","animation","97","747687","0.0-97.0","1920x1080","","3962.9000000059605","81.75","img/314/5.5/0.5/bw/001.png","","","interesting"
"","","","","","animation","98","750891","0.0-98.0","1920x1080","","3202.699999988079","73.15","img/117/4/1/bw/001.png","","","interesting"
"","","","","","animation","99","766115","0.0-99.0","1920x1080","","15222.899999976158","23.15","img/314/2.5/1/bw/001.png","","","interesting"
"","","","","","animation","100","768671","0.0-100.0","1920x1080","","2555.2000000178814","99","img/238/5.5/2/bw/001.png","","","interesting"
"","","","","","animation","101","770871","0.0-101.0","1920x1080","","2198.699999988079","97","img/117/4.5/1/bw/001.png","","","interesting"
"","","","","","animation","102","772955","0.0-102.0","1920x1080","","2082.800000011921","7.67","img/314/2.5/0.5/bw/001.png","","","interesting"
"","","","","","animation","103","775755","0.0-103.0","1920x1080","","2799.2000000178814","15.48","img/314/3.5/0.5/bw/001.png","","","interesting"
"","","","","","animation","104","777871","0.0-104.0","1920x1080","","2115.5","103.31","img/117/5.5/0.66667/bw/001.png","","","interesting"
"","","","","","animation","105","781875","0.0-105.0","1920x1080","","4002.600000023842","100","img/314/5.5/1.5/bw/001.png","","","interesting"
"","","","","","animation","106","788771","0.0-106.0","1920x1080","","6894.5","50.40","img/117/4.5/0.66667/bw/001.png","","","interesting"
"","","","","","animation","107","790891","0.0-107.0","1920x1080","","2119.300000011921","13.36","img/117/2.5/2/bw/001.png","","","interesting"
"","","","","","animation","108","794763","0.0-108.0","1920x1080","","3871.5","87.43","img/117/5.5/0.5/bw/001.png","","","interesting"
"","","","","","animation","109","797971","0.0-109.0","1920x1080","","3206.7000000178814","11.38","img/117/2.5/1/bw/001.png","","","interesting"
"","","","","","animation","110","800675","0.0-110.0","1920x1080","","2703.399999976158","65.87","img/238/3.5/2/bw/001.png","","","interesting"
"","","","","","animation","111","803699","0.0-111.0","1920x1080","","3023.199999988079","1.72","img/117/2.5/0.5/bw/001.png","","","interesting"
"","","","","","animation","112","808515","0.0-112.0","1920x1080","","4814.5999999940395","60.32","img/314/3.5/2/bw/001.png","","","interesting"
"","","","","","animation","113","811123","0.0-113.0","1920x1080","","2607","57.14","img/314/3.5/1.5/bw/001.png","","","interesting"
"","","","","","animation","114","813237","0.0-114.0","1920x1080","","2113.300000011921","66.80","img/314/4.5/0.66667/bw/001.png","","","interesting"
"","","","","","animation","115","814931","0.0-115.0","1920x1080","","1693.2000000178814","82.14","img/238/5.5/0.5/bw/001.png","","","interesting"
"","","","","","animation","116","816723","0.0-116.0","1920x1080","","1791.0999999940395","24.87","img/314/2.5/2/bw/001.png","","","interesting"
"","","","","","animation","117","818643","0.0-117.0","1920x1080","","1919.5","45.63","img/238/4/1/bw/001.png","","","interesting"
"","","","","","animation","118","821931","0.0-118.0","1920x1080","","3287.300000011921","60.05","img/314/4.5/1/bw/001.png","","","interesting"
"","","","","","animation","119","823804","0.0-119.0","1920x1080","","1872","48.02","img/314/3.5/1/bw/001.png","","","interesting"
"","","","","","animation","120","826987","0.0-120.0","1920x1080","","3182.7999999821186","57.67","img/238/2.5/0.66667/bw/001.png","","","interesting"
"","","","","","animation","121","830271","0.0-121.0","1920x1080","","3282.4000000059605","71.96","img/238/4.5/1.5/bw/001.png","","","interesting"
"","","","","","animation","122","832131","0.0-122.0","1920x1080","","1859.1000000238419","76.59","img/238/4.5/2/bw/001.png","","","interesting"
"","","","","","animation","123","833948","0.0-123.0","1920x1080","","1815.2000000178814","65.08","img/238/4.5/0.66667/bw/001.png","","","interesting"
"","","","","","animation","124","837255","0.0-124.0","1920x1080","","3306.699999988079","62.96","img/117/4.5/0.5/bw/001.png","","","interesting"
"","","","","","animation","125","839188","0.0-125.0","1920x1080","","1931.6000000238419","3.70","img/238/2.5/2/bw/001.png","","","interesting"
"","","","","","animation","126","851764","0.0-126.0","1920x1080","","12575.200000017881","70.24","img/238/3.5/1/bw/001.png","","","interesting"
"","","","","","animation","127","853692","0.0-127.0","1920x1080","","1927","83.07","img/238/5.5/1/bw/001.png","","","interesting"
"","","","","","animation","128","856804","0.0-128.0","1920x1080","","3111.600000023842","94","img/314/5.5/0.66667/bw/001.png","","","interesting"
"","","","","","animation","129","860612","0.0-129.0","1920x1080","","3806.7000000178814","55.69","img/238/4/0.5/bw/001.png","","","interesting"
"","","","","","animation","130","863107","0.0-130.0","1920x1080","","2494.600000023842","54.76","img/117/3.5/1/bw/001.png","","","interesting"
"","","","","","animation","131","864504","0.0-131.0","1920x1080","","1395.9000000059605","31.75","img/238/2.5/0.5/bw/001.png","","","interesting"
"","","","","","animation","132","866476","0.0-132.0","1920x1080","","1970.7999999821186","24.60","img/117/3.5/1.5/bw/001.png","","","interesting"
"","","","","","animation","133","868621","0.0-133.0","1920x1080","","2144.800000011921","78.17","img/314/4.5/2/bw/001.png","","","interesting"
"","","","","","animation","134","871060","0.0-134.0","1920x1080","","2437.199999988079","57.01","img/314/4.5/1.5/bw/001.png","","","interesting"
"","","","","","animation","135","873588","0.0-135.0","1920x1080","","2527.699999988079","13.36","img/117/4/2/bw/001.png","","","interesting"
"","","","","","animation","136","874904","0.0-136.0","1920x1080","","1315.199999988079","54.50","img/238/4/2/bw/001.png","","","interesting"
"","","","","","animation","137","880028","0.0-137.0","1920x1080","","5122.699999988079","81.88","img/117/4.5/2/bw/001.png","","","interesting"
"","","","","","animation","138","882155","0.0-138.0","1920x1080","","2126.600000023842","3.04","img/314/2.5/0.66667/bw/001.png","","","interesting"
"","","","","","animation","139","884396","0.0-139.0","1920x1080","","2239.5","41.40","img/117/4/1.5/bw/001.png","","","interesting"
"","","","","","animation","140","886289","0.0-140.0","1920x1080","","1891.800000011921","54.37","img/314/3.5/0.66667/bw/001.png","","","interesting"
"","","","","","animation","141","889148","0.0-141.0","1920x1080","","2858.0999999940395","68.92","img/238/4.5/1/bw/001.png","","","interesting"
"","","","","","animation","142","891412","0.0-142.0","1920x1080","","2262.899999976158","9.26","img/238/2.5/1.5/bw/001.png","","","interesting"
"","","","","","animation","143","893595","0.0-143.0","1920x1080","","2183","90.21","img/314/5.5/2/bw/001.png","","","interesting"
"","","","","","animation","144","895811","0.0-144.0","1920x1080","","2214.7000000178814","72.35","img/117/4.5/1.5/bw/001.png","","","interesting"
"","","","","","animation","145","897804","0.0-145.0","1920x1080","","1992.199999988079","91.53","img/117/5.5/1/bw/001.png","","","interesting"
"","","","","","animation","146","901531","0.0-146.0","1920x1080","","3726.2999999821186","45.11","img/238/3.5/1.5/bw/001.png","","","interesting"
"","","","","","animation","147","904355","0.0-147.0","1920x1080","","2822.600000023842","18.78","img/238/3.5/0.5/bw/001.png","","","interesting"
"","","","","","animation","148","906388","0.0-148.0","1920x1080","","2031.5999999940395","37.04","img/314/4/0.5/bw/001.png","","","interesting"
"","","","","","animation","149","908438","0.0-149.0","1920x1080","","2049.0999999940395","3","img/117/2.5/0.66667/bw/001.png","","","interesting"
"","","","","","animation","150","917331","0.0-150.0","1920x1080","","8892.5","25.13","img/238/4/0.66667/bw/001.png","","","interesting"
"","","","","","animation","151","919811","0.0-151.0","1920x1080","","2479.199999988079","80.95","img/238/5.5/0.66667/bw/001.png","","","interesting"
"","","","","","animation","152","922348","0.0-152.0","1920x1080","","2535.100000023842","88","img/117/5.5/1.5/bw/001.png","","","interesting"
"","","","","","animation","153","925443","0.0-153.0","1920x1080","","3094.5999999940395","97","img/314/5.5/1/bw/001.png","","","interesting"
"","","","","","animation","154","929188","0.0-154.0","1920x1080","","3743.2000000178814","12.30","img/117/3.5/0.5/bw/001.png","","","interesting"
"","","","","","animation","155","931396","0.0-155.0","1920x1080","","2206.5","42.86","img/117/3.5/2/bw/001.png","","","interesting"
"","","","","","animation","156","934132","0.0-156.0","1920x1080","","2734.800000011921","22","img/117/4/0.66667/bw/001.png","","","interesting"
"","","","","","animation","157","936796","0.0-157.0","1920x1080","","2663.100000023842","72.75","img/117/5.5/2/bw/001.png","","","interesting"
"","","","","","animation","158","938905","0.0-158.0","1920x1080","","2108.2000000178814","58.20","img/314/4.5/0.5/bw/001.png","","","interesting"
"","","","","","html-button-response","159","958477","0.0-159.0","1920x1080","","19570.09999999404","","<div class=""intro"">You are about to view a new series of animations.<br><br></div><div class=""intro"">You will evaluate them based on a different descriptor.<br><br></div><div class=""intro"">Move the slider to indicate how <strong style=""text-transform:capitalize"">NATURAL</strong> you find each animation.<br><br></div><div class=""intro"">0 = Least Natural<br></div><div class=""intro"">1 = Most Natural<br><br></div><div class=""intro"">Remember to use the <strong><em>entire range</em></strong> of the slider to make your ratings.<br></div><div class=""intro"">Please <strong><em>take your time</em></strong> and carefully consider each rating you make.<br><br></div>","0","",""
"","","","","","call-function","160","958477","0.0-160.0","1920x1080","","","","","","",""
"","","","","","animation","161","966671","0.0-161.0","1920x1080","","8193.5","25.79","img/117/3.5/0.5/bw/001.png","","","natural"
"","","","","","animation","162","970196","0.0-162.0","1920x1080","","3523.699999988079","64.81","img/314/3.5/0.66667/bw/001.png","","","natural"
"","","","","","animation","163","972996","0.0-163.0","1920x1080","","2799.100000023842","50","img/314/4.5/2/bw/001.png","","","natural"
"","","","","","animation","164","978532","0.0-164.0","1920x1080","","5535.100000023842","10.98","img/314/3.5/0.5/bw/001.png","","","natural"
"","","","","","animation","165","980405","0.0-165.0","1920x1080","","1871.5","56.08","img/314/4.5/0.5/bw/001.png","","","natural"
"","","","","","animation","166","983548","0.0-166.0","1920x1080","","3142.2999999821186","20.90","img/117/4.5/1/bw/001.png","","","natural"
"","","","","","animation","167","987796","0.0-167.0","1920x1080","","4246.799999982119","97","img/117/3.5/1.5/bw/001.png","","","natural"
"","","","","","animation","168","995105","0.0-168.0","1920x1080","","7307.5999999940395","69.84","img/314/5.5/0.66667/bw/001.png","","","natural"
"","","","","","animation","169","998272","0.0-169.0","1920x1080","","3164.7999999821186","38.49","img/314/4/2/bw/001.png","","","natural"
"","","","","","animation","170","1004948","0.0-170.0","1920x1080","","6675.699999988079","72.62","img/314/4.5/1.5/bw/001.png","","","natural"
"","","","","","animation","171","1007796","0.0-171.0","1920x1080","","2846.7999999821186","21.30","img/117/5.5/0.5/bw/001.png","","","natural"
"","","","","","animation","172","1010438","0.0-172.0","1920x1080","","2641.100000023842","93","img/117/4/0.66667/bw/001.png","","","natural"
"","","","","","animation","173","1012732","0.0-173.0","1920x1080","","2292.7999999821186","88.36","img/117/4.5/1.5/bw/001.png","","","natural"
"","","","","","animation","174","1015556","0.0-174.0","1920x1080","","2822.7000000178814","20.77","img/238/4.5/0.5/bw/001.png","","","natural"
"","","","","","animation","175","1018708","0.0-175.0","1920x1080","","3151.2000000178814","79.76","img/314/4/1/bw/001.png","","","natural"
"","","","","","animation","176","1021788","0.0-176.0","1920x1080","","3079.5999999940395","0","img/238/5.5/1.5/bw/001.png","","","natural"
"","","","","","animation","177","1026292","0.0-177.0","1920x1080","","4502.899999976158","44.84","img/314/4/0.66667/bw/001.png","","","natural"
"","","","","","animation","178","1030405","0.0-178.0","1920x1080","","4112","96","img/314/2.5/0.66667/bw/001.png","","","natural"
"","","","","","animation","179","1035956","0.0-179.0","1920x1080","","5549.5","65.74","img/238/4.5/2/bw/001.png","","","natural"
"","","","","","animation","180","1039380","0.0-180.0","1920x1080","","3423.399999976158","45.37","img/314/4/0.5/bw/001.png","","","natural"
"","","","","","animation","181","1043338","0.0-181.0","1920x1080","","3956.0999999940395","72.09","img/238/2.5/0.66667/bw/001.png","","","natural"
"","","","","","animation","182","1045505","0.0-182.0","1920x1080","","2166.0999999940395","34.39","img/238/4.5/0.66667/bw/001.png","","","natural"
"","","","","","animation","183","1047796","0.0-183.0","1920x1080","","2289.899999976158","47.49","img/238/4/1.5/bw/001.png","","","natural"
"","","","","","animation","184","1051140","0.0-184.0","1920x1080","","3342.100000023842","74.74","img/238/2.5/2/bw/001.png","","","natural"
"","","","","","animation","185","1053572","0.0-185.0","1920x1080","","2431.100000023842","53","img/238/4/1/bw/001.png","","","natural"
"","","","","","animation","186","1071372","0.0-186.0","1920x1080","","17799","33","img/238/5.5/1/bw/001.png","","","natural"
"","","","","","animation","187","1073412","0.0-187.0","1920x1080","","2039.5","50.26","img/117/4.5/0.5/bw/001.png","","","natural"
"","","","","","animation","188","1077938","0.0-188.0","1920x1080","","4525.0999999940395","71","img/238/4/0.66667/bw/001.png","","","natural"
"","","","","","animation","189","1083281","0.0-189.0","1920x1080","","5342.100000023842","24.47","img/117/5.5/2/bw/001.png","","","natural"
"","","","","","animation","190","1150688","0.0-190.0","1920x1080","","67405","54.37","img/117/4/0.5/bw/001.png","","","natural"
"","","","","","animation","191","1158524","0.0-191.0","1920x1080","","7834.800000011921","79","img/117/3.5/2/bw/001.png","","","natural"
"","","","","","animation","192","1160855","0.0-192.0","1920x1080","","2329.0999999940395","27.65","img/238/3.5/0.66667/bw/001.png","","","natural"
"","","","","","animation","193","1163988","0.0-193.0","1920x1080","","3132.800000011921","45.63","img/238/3.5/1.5/bw/001.png","","","natural"
"","","","","","animation","194","1167589","0.0-194.0","1920x1080","","3598.9000000059605","15.21","img/238/4/2/bw/001.png","","","natural"
"","","","","","animation","195","1189493","0.0-195.0","1920x1080","","21903.29999998212","100","img/117/2.5/0.5/bw/001.png","","","natural"
"","","","","","animation","196","1221921","0.0-196.0","1920x1080","","32427.69999998808","76.19","img/314/4.5/1/bw/001.png","","","natural"
"","","","","","animation","197","1232711","0.0-197.0","1920x1080","","10788.40000000596","31.61","img/238/3.5/1/bw/001.png","","","natural"
"","","","","","animation","198","1240470","0.0-198.0","1920x1080","","7757.600000023842","84.92","img/117/2.5/2/bw/001.png","","","natural"
"","","","","","animation","199","1244876","0.0-199.0","1920x1080","","4401.799999982119","44.97","img/238/2.5/0.5/bw/001.png","","","natural"
"","","","","","animation","200","1246804","0.0-200.0","1920x1080","","1927","80.69","img/314/2.5/1.5/bw/001.png","","","natural"
"","","","","","animation","201","1251412","0.0-201.0","1920x1080","","4607.0999999940395","18.78","img/238/5.5/2/bw/001.png","","","natural"
"","","","","","animation","202","1253892","0.0-202.0","1920x1080","","2478.5999999940395","74.34","img/117/2.5/1.5/bw/001.png","","","natural"
"","","","","","animation","203","1256121","0.0-203.0","1920x1080","","2228.100000023842","91.01","img/117/2.5/0.66667/bw/001.png","","","natural"
"","","","","","animation","204","1257654","0.0-204.0","1920x1080","","1532","74.87","img/314/3.5/2/bw/001.png","","","natural"
"","","","","","animation","205","1262756","0.0-205.0","1920x1080","","5100.5","2","img/238/5.5/0.5/bw/001.png","","","natural"
"","","","","","animation","206","1264372","0.0-206.0","1920x1080","","1614.800000011921","41.27","img/238/4.5/1/bw/001.png","","","natural"
"","","","","","animation","207","1268804","0.0-207.0","1920x1080","","4431.200000017881","75.40","img/238/3.5/2/bw/001.png","","","natural"
"","","","","","animation","208","1276087","0.0-208.0","1920x1080","","7282.300000011921","20","img/238/5.5/0.66667/bw/001.png","","","natural"
"","","","","","animation","209","1277854","0.0-209.0","1920x1080","","1765.5","50.40","img/117/3.5/1/bw/001.png","","","natural"
"","","","","","animation","210","1280156","0.0-210.0","1920x1080","","2300.5","76.85","img/238/3.5/0.5/bw/001.png","","","natural"
"","","","","","animation","211","1287337","0.0-211.0","1920x1080","","7181","25","img/238/4/0.5/bw/001.png","","","natural"
"","","","","","animation","212","1289137","0.0-212.0","1920x1080","","1799","35.45","img/117/4.5/0.66667/bw/001.png","","","natural"
"","","","","","animation","213","1292271","0.0-213.0","1920x1080","","3132","18.92","img/117/5.5/1.5/bw/001.png","","","natural"
"","","","","","animation","214","1294004","0.0-214.0","1920x1080","","1732.2000000178814","86.38","img/314/2.5/1/bw/001.png","","","natural"
"","","","","","animation","215","1297876","0.0-215.0","1920x1080","","3871","99","img/238/2.5/1/bw/001.png","","","natural"
"","","","","","animation","216","1299171","0.0-216.0","1920x1080","","1293.5","64.81","img/117/4/2/bw/001.png","","","natural"
"","","","","","animation","217","1301771","0.0-217.0","1920x1080","","2599","75.26","img/314/3.5/1/bw/001.png","","","natural"
"","","","","","animation","218","1307271","0.0-218.0","1920x1080","","5499.4000000059605","51.85","img/117/4/1/bw/001.png","","","natural"
"","","","","","animation","219","1309054","0.0-219.0","1920x1080","","1782.1000000238419","29.23","img/314/5.5/1.5/bw/001.png","","","natural"
"","","","","","animation","220","1311372","0.0-220.0","1920x1080","","2316.300000011921","42.06","img/117/5.5/0.66667/bw/001.png","","","natural"
"","","","","","animation","221","1314720","0.0-221.0","1920x1080","","3347.800000011921","42.06","img/314/5.5/2/bw/001.png","","","natural"
"","","","","","animation","222","1316453","0.0-222.0","1920x1080","","1731.0999999940395","52.25","img/314/3.5/1.5/bw/001.png","","","natural"
"","","","","","animation","223","1319436","0.0-223.0","1920x1080","","2982.0999999940395","71.30","img/117/3.5/0.66667/bw/001.png","","","natural"
"","","","","","animation","224","1322120","0.0-224.0","1920x1080","","2682.5999999940395","8.60","img/238/4.5/1.5/bw/001.png","","","natural"
"","","","","","animation","225","1325070","0.0-225.0","1920x1080","","2949.5","91.93","img/314/2.5/2/bw/001.png","","","natural"
"","","","","","animation","226","1327395","0.0-226.0","1920x1080","","2323.5","71.30","img/314/4/1.5/bw/001.png","","","natural"
"","","","","","animation","227","1329507","0.0-227.0","1920x1080","","2110.2000000178814","86","img/314/2.5/0.5/bw/001.png","","","natural"
"","","","","","animation","228","1331237","0.0-228.0","1920x1080","","1728.7000000178814","64.95","img/117/4.5/2/bw/001.png","","","natural"
"","","","","","animation","229","1335691","0.0-229.0","1920x1080","","4453.5","9","img/117/5.5/1/bw/001.png","","","natural"
"","","","","","animation","230","1339555","0.0-230.0","1920x1080","","3861.800000011921","27.78","img/117/4/1.5/bw/001.png","","","natural"
"","","","","","animation","231","1341754","0.0-231.0","1920x1080","","2197.9000000059605","91","img/238/2.5/1.5/bw/001.png","","","natural"
"","","","","","animation","232","1343104","0.0-232.0","1920x1080","","1348.699999988079","78.57","img/117/2.5/1/bw/001.png","","","natural"
"","","","","","animation","233","1345739","0.0-233.0","1920x1080","","2634.300000011921","35.45","img/314/4.5/0.66667/bw/001.png","","","natural"
"","","","","","animation","234","1347270","0.0-234.0","1920x1080","","1530.5","49.87","img/314/5.5/0.5/bw/001.png","","","natural"
"","","","","","animation","235","1351475","0.0-235.0","1920x1080","","4204","30.82","img/314/5.5/1/bw/001.png","","","natural"
"","","","","","html-button-response","236","1372371","0.0-236.0","1920x1080","","20894.59999999404","","<div class=""intro"">You are about to view a new series of animations.<br><br></div><div class=""intro"">You will evaluate them based on a different descriptor.<br><br></div><div class=""intro"">Move the slider to indicate how <strong style=""text-transform:capitalize"">RELAXING</strong> you find each animation.<br><br></div><div class=""intro"">0 = Least Relaxing<br></div><div class=""intro"">1 = Most Relaxing<br><br></div><div class=""intro"">Remember to use the <strong><em>entire range</em></strong> of the slider to make your ratings.<br></div><div class=""intro"">Please <strong><em>take your time</em></strong> and carefully consider each rating you make.<br><br></div>","0","",""
"","","","","","call-function","237","1372373","0.0-237.0","1920x1080","","","","","","",""
"","","","","","animation","238","1379537","0.0-238.0","1920x1080","","7163.399999976158","91.53","img/314/4/2/bw/001.png","","","relaxing"
"","","","","","animation","239","1391275","0.0-239.0","1920x1080","","11736.90000000596","94","img/314/4.5/2/bw/001.png","","","relaxing"
"","","","","","animation","240","1393843","0.0-240.0","1920x1080","","2566.5","5.82","img/117/2.5/1.5/bw/001.png","","","relaxing"
"","","","","","animation","241","1396653","0.0-241.0","1920x1080","","2808","44.71","img/238/4/0.66667/bw/001.png","","","relaxing"
"","","","","","animation","242","1400087","0.0-242.0","1920x1080","","3433.4000000059605","26.32","img/238/4/1/bw/001.png","","","relaxing"
"","","","","","animation","243","1403954","0.0-243.0","1920x1080","","3865.5999999940395","11.11","img/238/2.5/1.5/bw/001.png","","","relaxing"
"","","","","","animation","244","1408022","0.0-244.0","1920x1080","","4066.800000011921","62.83","img/314/3.5/1.5/bw/001.png","","","relaxing"
"","","","","","animation","245","1415703","0.0-245.0","1920x1080","","7680.5","92.33","img/238/4/0.5/bw/001.png","","","relaxing"
"","","","","","animation","246","1417787","0.0-246.0","1920x1080","","2082.4000000059605","58.33","img/117/4/1/bw/001.png","","","relaxing"
"","","","","","animation","247","1423275","0.0-247.0","1920x1080","","5487.399999976158","5.16","img/117/2.5/0.66667/bw/001.png","","","relaxing"
"","","","","","animation","248","1426271","0.0-248.0","1920x1080","","2992.2999999821186","100.66","img/314/5.5/1.5/bw/001.png","","","relaxing"
"","","","","","animation","249","1429520","0.0-249.0","1920x1080","","3246.9000000059605","81","img/117/4.5/0.66667/bw/001.png","","","relaxing"
"","","","","","animation","250","1431604","0.0-250.0","1920x1080","","2082","72.22","img/314/4.5/1/bw/001.png","","","relaxing"
"","","","","","animation","251","1434386","0.0-251.0","1920x1080","","2782.300000011921","12.70","img/314/2.5/1.5/bw/001.png","","","relaxing"
"","","","","","animation","252","1436420","0.0-252.0","1920x1080","","2032.2999999821186","17.46","img/117/2.5/2/bw/001.png","","","relaxing"
"","","","","","animation","253","1438227","0.0-253.0","1920x1080","","1805.5","2.91","img/117/3.5/0.5/bw/001.png","","","relaxing"
"","","","","","animation","254","1440853","0.0-254.0","1920x1080","","2624.5","33.86","img/314/4.5/0.5/bw/001.png","","","relaxing"
"","","","","","animation","255","1442611","0.0-255.0","1920x1080","","1756.699999988079","42","img/238/3.5/1.5/bw/001.png","","","relaxing"
"","","","","","animation","256","1448570","0.0-256.0","1920x1080","","5958.299999982119","53.84","img/314/3.5/2/bw/001.png","","","relaxing"
"","","","","","animation","257","1451970","0.0-257.0","1920x1080","","3398.899999976158","95","img/238/5.5/2/bw/001.png","","","relaxing"
"","","","","","animation","258","1453491","0.0-258.0","1920x1080","","1519.199999988079","56.75","img/117/4.5/0.5/bw/001.png","","","relaxing"
"","","","","","animation","259","1462075","0.0-259.0","1920x1080","","8583","46.96","img/117/3.5/2/bw/001.png","","","relaxing"
"","","","","","animation","260","1466636","0.0-260.0","1920x1080","","4559.300000011921","0.93","img/117/4/0.5/bw/001.png","","","relaxing"
"","","","","","animation","261","1472153","0.0-261.0","1920x1080","","5515.5999999940395","0","img/238/2.5/0.5/bw/001.png","","","relaxing"
"","","","","","animation","262","1476170","0.0-262.0","1920x1080","","4015.600000023842","6.22","img/238/3.5/0.66667/bw/001.png","","","relaxing"
"","","","","","animation","263","1481075","0.0-263.0","1920x1080","","4902.9000000059605","53.97","img/238/3.5/2/bw/001.png","","","relaxing"
"","","","","","animation","264","1486107","0.0-264.0","1920x1080","","5030.5","98","img/238/5.5/1/bw/001.png","","","relaxing"
"","","","","","animation","265","1494885","0.0-265.0","1920x1080","","8778","48.02","img/314/4/1.5/bw/001.png","","","relaxing"
"","","","","","animation","266","1501490","0.0-266.0","1920x1080","","6603.199999988079","73","img/117/5.5/0.66667/bw/001.png","","","relaxing"
"","","","","","animation","267","1505019","0.0-267.0","1920x1080","","3527.4000000059605","83.73","img/314/5.5/0.66667/bw/001.png","","","relaxing"
"","","","","","animation","268","1507026","0.0-268.0","1920x1080","","2005.7000000178814","41.27","img/238/4/1.5/bw/001.png","","","relaxing"
"","","","","","animation","269","1509602","0.0-269.0","1920x1080","","2575","23.94","img/314/4/0.66667/bw/001.png","","","relaxing"
"","","","","","animation","270","1517678","0.0-270.0","1920x1080","","8074.700000017881","47.35","img/117/3.5/1/bw/001.png","","","relaxing"
"","","","","","animation","271","1522258","0.0-271.0","1920x1080","","4576.700000017881","84.13","img/238/5.5/0.5/bw/001.png","","","relaxing"
"","","","","","animation","272","1538775","0.0-272.0","1920x1080","","16515.5","2","img/314/2.5/0.66667/bw/001.png","","","relaxing"
"","","","","","animation","273","1540674","0.0-273.0","1920x1080","","1897","71.16","img/314/5.5/0.5/bw/001.png","","","relaxing"
"","","","","","animation","274","1544658","0.0-274.0","1920x1080","","3982.600000023842","62.57","img/238/4.5/0.66667/bw/001.png","","","relaxing"
"","","","","","animation","275","1547135","0.0-275.0","1920x1080","","2475.800000011921","52","img/238/4.5/1/bw/001.png","","","relaxing"
"","","","","","animation","276","1553619","0.0-276.0","1920x1080","","6483","35","img/314/4/1/bw/001.png","","","relaxing"
"","","","","","animation","277","1560203","0.0-277.0","1920x1080","","6582.300000011921","57","img/238/5.5/0.66667/bw/001.png","","","relaxing"
"","","","","","animation","278","1569419","0.0-278.0","1920x1080","","9214.800000011921","41.80","img/117/4.5/2/bw/001.png","","","relaxing"
"","","","","","animation","279","1576453","0.0-279.0","1920x1080","","7032.4000000059605","7.28","img/314/3.5/0.5/bw/001.png","","","relaxing"
"","","","","","animation","280","1578952","0.0-280.0","1920x1080","","2498.699999988079","2.51","img/314/2.5/1/bw/001.png","","","relaxing"
"","","","","","animation","281","1580920","0.0-281.0","1920x1080","","1965.9000000059605","25.13","img/314/3.5/0.66667/bw/001.png","","","relaxing"
"","","","","","animation","282","1584890","0.0-282.0","1920x1080","","3967.0999999940395","60.98","img/117/4.5/1/bw/001.png","","","relaxing"
"","","","","","animation","283","1587593","0.0-283.0","1920x1080","","2701","88.10","img/238/5.5/1.5/bw/001.png","","","relaxing"
"","","","","","animation","284","1591071","0.0-284.0","1920x1080","","3477","51.59","img/238/4/2/bw/001.png","","","relaxing"
"","","","","","animation","285","1594586","0.0-285.0","1920x1080","","3504.2999999821186","11.90","img/238/2.5/0.66667/bw/001.png","","","relaxing"
"","","","","","animation","286","1596125","0.0-286.0","1920x1080","","1538","35.71","img/314/2.5/0.5/bw/001.png","","","relaxing"
"","","","","","animation","287","1602036","0.0-287.0","1920x1080","","5910.0999999940395","16.80","img/117/2.5/0.5/bw/001.png","","","relaxing"
"","","","","","animation","288","1604969","0.0-288.0","1920x1080","","2930.899999976158","23.02","img/314/2.5/2/bw/001.png","","","relaxing"
"","","","","","animation","289","1607619","0.0-289.0","1920x1080","","2648.699999988079","4.63","img/117/3.5/0.66667/bw/001.png","","","relaxing"
"","","","","","animation","290","1610275","0.0-290.0","1920x1080","","2654.7999999821186","8.20","img/314/3.5/1/bw/001.png","","","relaxing"
"","","","","","animation","291","1612875","0.0-291.0","1920x1080","","2598.5999999940395","11.38","img/238/2.5/2/bw/001.png","","","relaxing"
"","","","","","animation","292","1617002","0.0-292.0","1920x1080","","4125.4000000059605","91","img/117/5.5/1.5/bw/001.png","","","relaxing"
"","","","","","animation","293","1620573","0.0-293.0","1920x1080","","3568.899999976158","17.06","img/238/4.5/1.5/bw/001.png","","","relaxing"
"","","","","","animation","294","1637522","0.0-294.0","1920x1080","","16947.80000001192","99","img/314/5.5/2/bw/001.png","","","relaxing"
"","","","","","animation","295","1646874","0.0-295.0","1920x1080","","9350.09999999404","21.30","img/117/4/0.66667/bw/001.png","","","relaxing"
"","","","","","animation","296","1652706","0.0-296.0","1920x1080","","5829.300000011921","25.93","img/314/4/0.5/bw/001.png","","","relaxing"
"","","","","","animation","297","1659952","0.0-297.0","1920x1080","","7240.9000000059605","89.95","img/117/5.5/2/bw/001.png","","","relaxing"
"","","","","","animation","298","1663328","0.0-298.0","1920x1080","","3372.699999988079","46.03","img/117/4/2/bw/001.png","","","relaxing"
"","","","","","animation","299","1668506","0.0-299.0","1920x1080","","5176.199999988079","68.65","img/117/4/1.5/bw/001.png","","","relaxing"
"","","","","","animation","300","1676740","0.0-300.0","1920x1080","","8232.300000011921","91.53","img/314/5.5/1/bw/001.png","","","relaxing"
"","","","","","animation","301","1681741","0.0-301.0","1920x1080","","4998.9000000059605","45.90","img/314/4.5/0.66667/bw/001.png","","","relaxing"
"","","","","","animation","302","1696527","0.0-302.0","1920x1080","","14784.40000000596","88.36","img/238/4.5/2/bw/001.png","","","relaxing"
"","","","","","animation","303","1699402","0.0-303.0","1920x1080","","2872.600000023842","50.93","img/314/4.5/1.5/bw/001.png","","","relaxing"
"","","","","","animation","304","1705102","0.0-304.0","1920x1080","","5698.100000023842","16.53","img/117/2.5/1/bw/001.png","","","relaxing"
"","","","","","animation","305","1707106","0.0-305.0","1920x1080","","2000","41.40","img/238/4.5/0.5/bw/001.png","","","relaxing"
"","","","","","animation","306","1711301","0.0-306.0","1920x1080","","4193.9000000059605","56.48","img/117/5.5/0.5/bw/001.png","","","relaxing"
"","","","","","animation","307","1714346","0.0-307.0","1920x1080","","3043","73.81","img/117/5.5/1/bw/001.png","","","relaxing"
"","","","","","animation","308","1727629","0.0-308.0","1920x1080","","13280.300000011921","79.63","img/117/3.5/1.5/bw/001.png","","","relaxing"
"","","","","","animation","309","1730706","0.0-309.0","1920x1080","","3074.7000000178814","14.68","img/238/2.5/1/bw/001.png","","","relaxing"
"","","","","","animation","310","1734242","0.0-310.0","1920x1080","","3533.2999999821186","51","img/117/4.5/1.5/bw/001.png","","","relaxing"
"","","","","","animation","311","1738276","0.0-311.0","1920x1080","","4031.199999988079","81.48","img/238/3.5/1/bw/001.png","","","relaxing"
"","","","","","animation","312","1741410","0.0-312.0","1920x1080","","3132.4000000059605","15.87","img/238/3.5/0.5/bw/001.png","","","relaxing"
"","","","","","html-button-response","313","1762221","0.0-313.0","1920x1080","","20808.90000000596","","<div class=""intro"">You are about to view a new series of animations.<br><br></div><div class=""intro"">You will evaluate them based on a different descriptor.<br><br></div><div class=""intro"">Move the slider to indicate how <strong style=""text-transform:capitalize"">APPEALING</strong> you find each animation.<br><br></div><div class=""intro"">0 = Least Appealing<br></div><div class=""intro"">1 = Most Appealing<br><br></div><div class=""intro"">Remember to use the <strong><em>entire range</em></strong> of the slider to make your ratings.<br></div><div class=""intro"">Please <strong><em>take your time</em></strong> and carefully consider each rating you make.<br><br></div>","0","",""
"","","","","","call-function","314","1762223","0.0-314.0","1920x1080","","","","","","",""
"","","","","","animation","315","1793090","0.0-315.0","1920x1080","","30866","50.40","img/238/4.5/0.66667/bw/001.png","","","appealing"
"","","","","","animation","316","1798379","0.0-316.0","1920x1080","","5287.299999982119","50.93","img/314/4/2/bw/001.png","","","appealing"
"","","","","","animation","317","1804807","0.0-317.0","1920x1080","","6425.700000017881","9.92","img/238/2.5/0.5/bw/001.png","","","appealing"
"","","","","","animation","318","1811340","0.0-318.0","1920x1080","","6531.200000017881","29.37","img/314/4/1/bw/001.png","","","appealing"
"","","","","","animation","319","1816224","0.0-319.0","1920x1080","","4882.800000011921","35.58","img/314/4/1.5/bw/001.png","","","appealing"
"","","","","","animation","320","1819677","0.0-320.0","1920x1080","","3451","99","img/117/5.5/2/bw/001.png","","","appealing"
"","","","","","animation","321","1824585","0.0-321.0","1920x1080","","4904.9000000059605","75.26","img/314/5.5/0.5/bw/001.png","","","appealing"
"","","","","","animation","322","1854850","0.0-322.0","1920x1080","","30263.59999999404","36.11","img/238/4/1.5/bw/001.png","","","appealing"
"","","","","","animation","323","1860851","0.0-323.0","1920x1080","","5998.5","43.92","img/117/4/2/bw/001.png","","","appealing"
"","","","","","animation","324","1864667","0.0-324.0","1920x1080","","3814.9000000059605","50.26","img/117/5.5/0.66667/bw/001.png","","","appealing"
"","","","","","animation","325","1868134","0.0-325.0","1920x1080","","3465.300000011921","8.86","img/314/2.5/0.5/bw/001.png","","","appealing"
"","","","","","animation","326","1871351","0.0-326.0","1920x1080","","3214.5999999940395","75.53","img/314/5.5/1/bw/001.png","","","appealing"
"","","","","","animation","327","1874322","0.0-327.0","1920x1080","","2969","33.20","img/314/4.5/0.66667/bw/001.png","","","appealing"
"","","","","","animation","328","1892420","0.0-328.0","1920x1080","","18096.40000000596","52.78","img/117/4.5/1/bw/001.png","","","appealing"
"","","","","","animation","329","1896261","0.0-329.0","1920x1080","","3838.9000000059605","92.20","img/238/5.5/1.5/bw/001.png","","","appealing"
"","","","","","animation","330","1899901","0.0-330.0","1920x1080","","3638.2999999821186","5.82","img/117/2.5/0.66667/bw/001.png","","","appealing"
"","","","","","animation","331","1902321","0.0-331.0","1920x1080","","2418.699999988079","30","img/117/2.5/2/bw/001.png","","","appealing"
"","","","","","animation","332","1904953","0.0-332.0","1920x1080","","2630.699999988079","5.56","img/117/2.5/0.5/bw/001.png","","","appealing"
"","","","","","animation","333","1908982","0.0-333.0","1920x1080","","4028","100","img/314/5.5/1.5/bw/001.png","","","appealing"
"","","","","","animation","334","1914253","0.0-334.0","1920x1080","","5269.800000011921","26","img/314/3.5/1/bw/001.png","","","appealing"
"","","","","","animation","335","1916783","0.0-335.0","1920x1080","","2528.0999999940395","16","img/238/2.5/2/bw/001.png","","","appealing"
"","","","","","animation","336","1918881","0.0-336.0","1920x1080","","2096.300000011921","31.22","img/117/4.5/2/bw/001.png","","","appealing"
"","","","","","animation","337","1920905","0.0-337.0","1920x1080","","2022.8999999761581","30.95","img/117/3.5/0.5/bw/001.png","","","appealing"
"","","","","","animation","338","1924209","0.0-338.0","1920x1080","","3303.300000011921","35.45","img/314/4.5/2/bw/001.png","","","appealing"
"","","","","","animation","339","1927296","0.0-339.0","1920x1080","","3085.600000023842","96","img/314/5.5/2/bw/001.png","","","appealing"
"","","","","","animation","340","1929442","0.0-340.0","1920x1080","","2143.5","47.88","img/117/4/1/bw/001.png","","","appealing"
"","","","","","animation","341","1932919","0.0-341.0","1920x1080","","3476.0999999940395","25.66","img/238/4/0.5/bw/001.png","","","appealing"
"","","","","","animation","342","1947317","0.0-342.0","1920x1080","","14396.699999988079","22.62","img/238/4.5/0.5/bw/001.png","","","appealing"
"","","","","","animation","343","1951766","0.0-343.0","1920x1080","","4446.9000000059605","76","img/314/5.5/0.66667/bw/001.png","","","appealing"
"","","","","","animation","344","1955478","0.0-344.0","1920x1080","","3710.0999999940395","23.68","img/238/3.5/1/bw/001.png","","","appealing"
"","","","","","animation","345","1958589","0.0-345.0","1920x1080","","3109.300000011921","25.40","img/117/3.5/1.5/bw/001.png","","","appealing"
"","","","","","animation","346","1961335","0.0-346.0","1920x1080","","2743.800000011921","51.19","img/314/4.5/1.5/bw/001.png","","","appealing"
"","","","","","animation","347","1964837","0.0-347.0","1920x1080","","3501.4000000059605","25.93","img/117/3.5/0.66667/bw/001.png","","","appealing"
"","","","","","animation","348","1967754","0.0-348.0","1920x1080","","2916.100000023842","8.33","img/314/2.5/1/bw/001.png","","","appealing"
"","","","","","animation","349","1974722","0.0-349.0","1920x1080","","6965","30.69","img/314/3.5/0.66667/bw/001.png","","","appealing"
"","","","","","animation","350","1977537","0.0-350.0","1920x1080","","2814.5","86.38","img/117/5.5/1/bw/001.png","","","appealing"
"","","","","","animation","351","1979137","0.0-351.0","1920x1080","","1598.699999988079","71.30","img/238/4/0.66667/bw/001.png","","","appealing"
"","","","","","animation","352","1980577","0.0-352.0","1920x1080","","1438.699999988079","27.25","img/117/3.5/2/bw/001.png","","","appealing"
"","","","","","animation","353","1984970","0.0-353.0","1920x1080","","4391.699999988079","6.08","img/238/2.5/1/bw/001.png","","","appealing"
"","","","","","animation","354","1992617","0.0-354.0","1920x1080","","7643.399999976158","84.66","img/238/5.5/0.66667/bw/001.png","","","appealing"
"","","","","","animation","355","1995251","0.0-355.0","1920x1080","","2632.7999999821186","9.52","img/238/2.5/0.66667/bw/001.png","","","appealing"
"","","","","","animation","356","2021387","0.0-356.0","1920x1080","","26134.40000000596","28.70","img/117/4/0.5/bw/001.png","","","appealing"
"","","","","","animation","357","2025767","0.0-357.0","1920x1080","","4378.699999988079","49.60","img/238/2.5/1.5/bw/001.png","","","appealing"
"","","","","","animation","358","2027726","0.0-358.0","1920x1080","","1957.7000000178814","33.99","img/314/4/0.5/bw/001.png","","","appealing"
"","","","","","animation","359","2029567","0.0-359.0","1920x1080","","1839.2000000178814","80.16","img/238/5.5/2/bw/001.png","","","appealing"
"","","","","","animation","360","2031726","0.0-360.0","1920x1080","","2158.4000000059605","14.55","img/238/3.5/0.66667/bw/001.png","","","appealing"
"","","","","","animation","361","2034017","0.0-361.0","1920x1080","","2289.4000000059605","49.60","img/314/4.5/1/bw/001.png","","","appealing"
"","","","","","animation","362","2035753","0.0-362.0","1920x1080","","1735.199999988079","78.44","img/314/4.5/0.5/bw/001.png","","","appealing"
"","","","","","animation","363","2038145","0.0-363.0","1920x1080","","2390","89.29","img/238/5.5/1/bw/001.png","","","appealing"
"","","","","","animation","364","2039955","0.0-364.0","1920x1080","","1809.3999999761581","55.56","img/238/3.5/2/bw/001.png","","","appealing"
"","","","","","animation","365","2041610","0.0-365.0","1920x1080","","1653","30.95","img/117/4.5/0.66667/bw/001.png","","","appealing"
"","","","","","animation","366","2043283","0.0-366.0","1920x1080","","1672.4000000059605","50.53","img/314/2.5/1.5/bw/001.png","","","appealing"
"","","","","","animation","367","2047043","0.0-367.0","1920x1080","","3758.600000023842","18.78","img/117/4/1.5/bw/001.png","","","appealing"
"","","","","","animation","368","2049790","0.0-368.0","1920x1080","","2745.600000023842","41.01","img/117/4/0.66667/bw/001.png","","","appealing"
"","","","","","animation","369","2052784","0.0-369.0","1920x1080","","2992.100000023842","47.22","img/238/3.5/0.5/bw/001.png","","","appealing"
"","","","","","animation","370","2055643","0.0-370.0","1920x1080","","2858.4000000059605","56.22","img/314/3.5/0.5/bw/001.png","","","appealing"
"","","","","","animation","371","2058087","0.0-371.0","1920x1080","","2442.699999988079","70.77","img/238/4.5/2/bw/001.png","","","appealing"
"","","","","","animation","372","2067183","0.0-372.0","1920x1080","","9095","13.62","img/117/4.5/0.5/bw/001.png","","","appealing"
"","","","","","animation","373","2069117","0.0-373.0","1920x1080","","1931.5999999940395","33.86","img/238/4.5/1/bw/001.png","","","appealing"
"","","","","","animation","374","2074969","0.0-374.0","1920x1080","","5851.4000000059605","17.99","img/314/3.5/2/bw/001.png","","","appealing"
"","","","","","animation","375","2077628","0.0-375.0","1920x1080","","2656.5999999940395","64.68","img/117/5.5/1.5/bw/001.png","","","appealing"
"","","","","","animation","376","2080564","0.0-376.0","1920x1080","","2934","10","img/314/2.5/0.66667/bw/001.png","","","appealing"
"","","","","","animation","377","2092643","0.0-377.0","1920x1080","","12077.59999999404","43.78","img/238/4/1/bw/001.png","","","appealing"
"","","","","","animation","378","2096349","0.0-378.0","1920x1080","","3705.5999999940395","28.97","img/314/4/0.66667/bw/001.png","","","appealing"
"","","","","","animation","379","2098478","0.0-379.0","1920x1080","","2127.0999999940395","42.72","img/238/3.5/1.5/bw/001.png","","","appealing"
"","","","","","animation","380","2101355","0.0-380.0","1920x1080","","2874.699999988079","66","img/117/5.5/0.5/bw/001.png","","","appealing"
"","","","","","animation","381","2103568","0.0-381.0","1920x1080","","2212","59.13","img/117/3.5/1/bw/001.png","","","appealing"
"","","","","","animation","382","2106529","0.0-382.0","1920x1080","","2959","69.71","img/238/4.5/1.5/bw/001.png","","","appealing"
"","","","","","animation","383","2108605","0.0-383.0","1920x1080","","2074.4000000059605","29.89","img/117/4.5/1.5/bw/001.png","","","appealing"
"","","","","","animation","384","2110505","0.0-384.0","1920x1080","","1899.0999999940395","82.41","img/238/5.5/0.5/bw/001.png","","","appealing"
"","","","","","animation","385","2113655","0.0-385.0","1920x1080","","3148.800000011921","5.29","img/117/2.5/1.5/bw/001.png","","","appealing"
"","","","","","animation","386","2170962","0.0-386.0","1920x1080","","57303.70000001788","34.52","img/238/4/2/bw/001.png","","","appealing"
"","","","","","animation","387","2173194","0.0-387.0","1920x1080","","2228.9000000059605","7.14","img/314/2.5/2/bw/001.png","","","appealing"
"","","","","","animation","388","2175284","0.0-388.0","1920x1080","","2088.9000000059605","18.78","img/314/3.5/1.5/bw/001.png","","","appealing"
"","","","","","animation","389","2189384","0.0-389.0","1920x1080","","14099.199999988079","4","img/117/2.5/1/bw/001.png","","","appealing"
"","","","","","html-button-response","390","2195787","0.0-390.0","1920x1080","","6400.300000011921","","<strong>Study Debriefing</strong><br><p class=""debrief""><strong>Background:</strong> The patterns you rated are called <em>fractals</em>. The term fractal describes a class of irregular curves or shapes for which any suitably chosen part is similar in shape to a given larger or smaller part when magnified or reduced to the same size. Fractal properties are found throughout the natural and manmade world. The series of animations you saw today displayed animated fractal patterns of a varying complexity.</p><p class=""debrief""><strong>Purpose of this study:</strong> We hope to better understand how the perception of static fractals differs from the perception of animated fractals, and how the speed of the animated patterns influences people&apos;s perception of them. Fractals allow us to study the perception of aesthetic properties (e.g. the perceived level of beauty in an image) without using recognizable content, which makes them an excellent tool for studying abstract aesthetic judgement.</p><p class=""debrief""><strong>Your part:</strong> Your participation has helped us to further understand how humans perceive these patterns across different levels of speed and complexity. This research with allow us to better understand how the visual system and brain process our ever-changing visual environments.<p class=""debrief""><strong>Feedback and Further information:</strong> If you have additional questions about this study, please feel free to ask the researcher, Nathan Gonzales-Hess at nhess @ uoregon.edu. If you have any questions concerning your rights as a research participant, please contact Research Compliance Services, 5237 University of Oregon, Eugene, OR 97403, 541-346-2510, or email researchCompliance @ uoregon.edu. You can also email the Human Subjects Coordinator for psychology and linguistics research at hscoord @ uoregon.edu. ","0","",""
"","","","","","html-button-response","391","2200076","0.0-391.0","1920x1080","","4285.9000000059605","","Thank you for participating in this study. <br>Please click below to finish the experiment and submit your responses.<br><br>","0","",""
"true","","","","","fullscreen","392","2201082","0.0-392.0","1920x1080","14:54 19/5/2022","","","","","",""
