"success","timeout","failed_images","failed_audio","failed_video","trial_type","trial_index","time_elapsed","internal_node_id","resolution","timeStamp","rt","response","stimulus","button_pressed","value","descriptor"
"true","false","[]","[]","[]","preload","0","42284","0.0-0.0","1920x1080","","","","","","",""
"true","false","[]","[]","[]","preload","1","79187","0.0-1.0","1920x1080","","","","","","",""
"true","false","[]","[]","[]","preload","2","119421","0.0-2.0","1920x1080","","","","","","",""
"true","","","","","fullscreen","3","131886","0.0-3.0","1920x1080","15:30 16/5/2022","","","","","",""
"","","","","","survey-html-form","4","140533","0.0-4.0","1920x1080","","8643.5","{""age"":""20"",""gender"":""Male""}","","","",""
"","","","","","html-button-response","5","179357","0.0-5.0","1920x1080","","38822.90000000002","","<div class=""intro"">You are going to see a series of animations.<br><br></div><div class=""intro"">Move the slider to indicate how <strong style=""text-transform:capitalize"">COMPLEX</strong> you find each animation.<br><br></div><div class=""intro"">0 = Least Complex<br></div><div class=""intro"">1 = Most Complex<br><br></div><div class=""intro"">Remember to use the <strong><em>entire range</em></strong> of the slider to make your ratings.<br></div><div class=""intro"">Please <strong><em>take your time</em></strong> and carefully consider each rating you make.<br><br></div><div class=""intro"">The study will take approximately 1 hour to complete.<br><br></div>","0","",""
"","","","","","call-function","6","179357","0.0-6.0","1920x1080","","","","","","",""
"","","","","","animation","7","195196","0.0-7.0","1920x1080","","15836.200000000012","23.02","img/314/4/1/bw/001.png","","","complex"
"","","","","","animation","8","206604","0.0-8.0","1920x1080","","11407.200000000012","19","img/117/5.5/1/bw/001.png","","","complex"
"","","","","","animation","9","214252","0.0-9.0","1920x1080","","7646.599999999977","27.38","img/238/4.5/2/bw/001.png","","","complex"
"","","","","","animation","10","221236","0.0-10.0","1920x1080","","6982.799999999988","74.21","img/314/2.5/2/bw/001.png","","","complex"
"","","","","","animation","11","227396","0.0-11.0","1920x1080","","6158.900000000023","35.45","img/238/4/0.5/bw/001.png","","","complex"
"","","","","","animation","12","230308","0.0-12.0","1920x1080","","2911.1999999999534","23.41","img/314/4.5/1.5/bw/001.png","","","complex"
"","","","","","animation","13","235820","0.0-13.0","1920x1080","","5511.400000000023","84.26","img/238/2.5/1.5/bw/001.png","","","complex"
"","","","","","animation","14","243836","0.0-14.0","1920x1080","","8015","35.45","img/314/4/0.5/bw/001.png","","","complex"
"","","","","","animation","15","247044","0.0-15.0","1920x1080","","3207.100000000035","25.79","img/238/4/1/bw/001.png","","","complex"
"","","","","","animation","16","251780","0.0-16.0","1920x1080","","4734.700000000012","16.93","img/117/4.5/2/bw/001.png","","","complex"
"","","","","","animation","17","259692","0.0-17.0","1920x1080","","7911.299999999988","91.14","img/314/2.5/0.66667/bw/001.png","","","complex"
"","","","","","animation","18","263316","0.0-18.0","1920x1080","","3622.899999999965","28.44","img/117/4.5/0.5/bw/001.png","","","complex"
"","","","","","animation","19","267092","0.0-19.0","1920x1080","","3775.2999999999884","85.71","img/238/2.5/2/bw/001.png","","","complex"
"","","","","","animation","20","272284","0.0-20.0","1920x1080","","5191.200000000012","19.05","img/238/4/1.5/bw/001.png","","","complex"
"","","","","","animation","21","282484","0.0-21.0","1920x1080","","10199.200000000012","91","img/314/2.5/1.5/bw/001.png","","","complex"
"","","","","","animation","22","289163","0.0-22.0","1920x1080","","6678.900000000023","34","img/117/3.5/1.5/bw/001.png","","","complex"
"","","","","","animation","23","295115","0.0-23.0","1920x1080","","5951.200000000012","12.96","img/238/4.5/0.5/bw/001.png","","","complex"
"","","","","","animation","24","299693","0.0-24.0","1920x1080","","4576.599999999977","0.40","img/238/5.5/1.5/bw/001.png","","","complex"
"","","","","","animation","25","302452","0.0-25.0","1920x1080","","2757.7000000000116","28.04","img/117/3.5/2/bw/001.png","","","complex"
"","","","","","animation","26","308484","0.0-26.0","1920x1080","","6031.300000000047","30.29","img/314/4.5/1/bw/001.png","","","complex"
"","","","","","animation","27","311180","0.0-27.0","1920x1080","","2695","35.05","img/117/4/0.5/bw/001.png","","","complex"
"","","","","","animation","28","315684","0.0-28.0","1920x1080","","4503.5","37.43","img/314/3.5/1.5/bw/001.png","","","complex"
"","","","","","animation","29","319477","0.0-29.0","1920x1080","","3792.5","2.51","img/314/5.5/2/bw/001.png","","","complex"
"","","","","","animation","30","323893","0.0-30.0","1920x1080","","4415.399999999965","98","img/238/2.5/0.5/bw/001.png","","","complex"
"","","","","","animation","31","327564","0.0-31.0","1920x1080","","3669.7000000000116","98","img/117/2.5/0.5/bw/001.png","","","complex"
"","","","","","animation","32","333172","0.0-32.0","1920x1080","","5607.5","6.61","img/238/5.5/0.66667/bw/001.png","","","complex"
"","","","","","animation","33","336860","0.0-33.0","1920x1080","","3687.7999999999884","14.42","img/238/4.5/0.66667/bw/001.png","","","complex"
"","","","","","animation","34","344956","0.0-34.0","1920x1080","","8095.199999999953","18.39","img/314/4.5/0.66667/bw/001.png","","","complex"
"","","","","","animation","35","347252","0.0-35.0","1920x1080","","2295","27.91","img/117/4.5/1.5/bw/001.png","","","complex"
"","","","","","animation","36","354077","0.0-36.0","1920x1080","","6823.899999999965","12.57","img/117/5.5/1.5/bw/001.png","","","complex"
"","","","","","animation","37","371466","0.0-37.0","1920x1080","","17486.100000000035","40","img/314/4.5/0.5/bw/001.png","","","complex"
"","","","","","animation","38","374618","0.0-38.0","1920x1080","","3151.0999999999767","57.94","img/117/4/2/bw/001.png","","","complex"
"","","","","","animation","39","378002","0.0-39.0","1920x1080","","3383","87.04","img/238/2.5/0.66667/bw/001.png","","","complex"
"","","","","","animation","40","381098","0.0-40.0","1920x1080","","3094.9000000000233","31.22","img/314/4.5/2/bw/001.png","","","complex"
"","","","","","animation","41","393363","0.0-41.0","1920x1080","","12264.5","47.88","img/314/3.5/2/bw/001.png","","","complex"
"","","","","","animation","42","396434","0.0-42.0","1920x1080","","3070.2000000000116","43.65","img/117/4/1.5/bw/001.png","","","complex"
"","","","","","animation","43","399034","0.0-43.0","1920x1080","","2599.100000000035","62.04","img/314/3.5/0.66667/bw/001.png","","","complex"
"","","","","","animation","44","401306","0.0-44.0","1920x1080","","2271.4000000000233","44.31","img/117/4/1/bw/001.png","","","complex"
"","","","","","animation","45","403907","0.0-45.0","1920x1080","","2599.1999999999534","16.80","img/238/4/2/bw/001.png","","","complex"
"","","","","","animation","46","408827","0.0-46.0","1920x1080","","4919.299999999988","31.75","img/314/3.5/0.5/bw/001.png","","","complex"
"","","","","","animation","47","415850","0.0-47.0","1920x1080","","7022.900000000023","33.47","img/314/4/1.5/bw/001.png","","","complex"
"","","","","","animation","48","419273","0.0-48.0","1920x1080","","3528.100000000035","26.32","img/238/3.5/2/bw/001.png","","","complex"
"","","","","","animation","49","422273","0.0-49.0","1920x1080","","2999.2999999999884","8.99","img/238/4.5/1/bw/001.png","","","complex"
"","","","","","animation","50","426257","0.0-50.0","1920x1080","","3982.8000000000466","18.92","img/238/3.5/1.5/bw/001.png","","","complex"
"","","","","","animation","51","429336","0.0-51.0","1920x1080","","3078.2000000000116","12.04","img/238/3.5/1/bw/001.png","","","complex"
"","","","","","animation","52","432520","0.0-52.0","1920x1080","","3183.399999999965","3.17","img/314/5.5/1.5/bw/001.png","","","complex"
"","","","","","animation","53","439952","0.0-53.0","1920x1080","","7430.900000000023","43","img/314/3.5/1/bw/001.png","","","complex"
"","","","","","animation","54","443391","0.0-54.0","1920x1080","","3438.7000000000116","3.44","img/314/5.5/1/bw/001.png","","","complex"
"","","","","","animation","55","447784","0.0-55.0","1920x1080","","4391.299999999988","97","img/314/2.5/0.5/bw/001.png","","","complex"
"","","","","","animation","56","450800","0.0-56.0","1920x1080","","3015","49.21","img/314/4/0.66667/bw/001.png","","","complex"
"","","","","","animation","57","454873","0.0-57.0","1920x1080","","4072.5999999999767","3.84","img/117/5.5/2/bw/001.png","","","complex"
"","","","","","animation","58","457591","0.0-58.0","1920x1080","","2717.399999999965","90.21","img/117/2.5/1/bw/001.png","","","complex"
"","","","","","animation","59","459664","0.0-59.0","1920x1080","","2071.3000000000466","54.76","img/238/4.5/1.5/bw/001.png","","","complex"
"","","","","","animation","60","466616","0.0-60.0","1920x1080","","6951.200000000012","11","img/117/5.5/0.5/bw/001.png","","","complex"
"","","","","","animation","61","472184","0.0-61.0","1920x1080","","5567","11.38","img/117/5.5/0.66667/bw/001.png","","","complex"
"","","","","","animation","62","474359","0.0-62.0","1920x1080","","2174.5999999999767","29.63","img/314/4/2/bw/001.png","","","complex"
"","","","","","animation","63","478677","0.0-63.0","1920x1080","","4423.399999999965","92.20","img/117/2.5/2/bw/001.png","","","complex"
"","","","","","animation","64","483533","0.0-64.0","1920x1080","","4854.900000000023","2","img/238/5.5/1/bw/001.png","","","complex"
"","","","","","animation","65","487037","0.0-65.0","1920x1080","","3503.2000000000116","99","img/117/2.5/1.5/bw/001.png","","","complex"
"","","","","","animation","66","491606","0.0-66.0","1920x1080","","4566.900000000023","0","img/238/5.5/2/bw/001.png","","","complex"
"","","","","","animation","67","498373","0.0-67.0","1920x1080","","6766.79999999993","24","img/117/4.5/1/bw/001.png","","","complex"
"","","","","","animation","68","503751","0.0-68.0","1920x1080","","5376.599999999977","54.23","img/117/4.5/0.66667/bw/001.png","","","complex"
"","","","","","animation","69","506869","0.0-69.0","1920x1080","","3117.5999999999767","16.80","img/238/5.5/0.5/bw/001.png","","","complex"
"","","","","","animation","70","508830","0.0-70.0","1920x1080","","1959.5","30.56","img/238/4/0.66667/bw/001.png","","","complex"
"","","","","","animation","71","512417","0.0-71.0","1920x1080","","3586.5","56.22","img/238/3.5/0.66667/bw/001.png","","","complex"
"","","","","","animation","72","515062","0.0-72.0","1920x1080","","2643.70000000007","65.61","img/117/4/0.66667/bw/001.png","","","complex"
"","","","","","animation","73","517350","0.0-73.0","1920x1080","","2287.899999999907","78.70","img/117/3.5/1/bw/001.png","","","complex"
"","","","","","animation","74","519230","0.0-74.0","1920x1080","","1878.5","88.10","img/117/3.5/0.5/bw/001.png","","","complex"
"","","","","","animation","75","522919","0.0-75.0","1920x1080","","3687.999999999942","5.42","img/314/5.5/0.66667/bw/001.png","","","complex"
"","","","","","animation","76","529405","0.0-76.0","1920x1080","","6485.600000000093","42.86","img/117/3.5/0.66667/bw/001.png","","","complex"
"","","","","","animation","77","533053","0.0-77.0","1920x1080","","3646.79999999993","84.39","img/314/2.5/1/bw/001.png","","","complex"
"","","","","","animation","78","535948","0.0-78.0","1920x1080","","2998.9000000000233","95","img/238/2.5/1/bw/001.png","","","complex"
"","","","","","animation","79","538678","0.0-79.0","1920x1080","","2730","11.77","img/314/5.5/0.5/bw/001.png","","","complex"
"","","","","","animation","80","543278","0.0-80.0","1920x1080","","4598.699999999953","5.42","img/238/3.5/0.5/bw/001.png","","","complex"
"","","","","","animation","81","546932","0.0-81.0","1920x1080","","3651.8000000000466","97","img/117/2.5/0.66667/bw/001.png","","","complex"
"","","","","","html-button-response","82","565757","0.0-82.0","1920x1080","","18823.599999999977","","<div class=""intro"">You are about to view a new series of animations.<br><br></div><div class=""intro"">You will evaluate them based on a different descriptor.<br><br></div><div class=""intro"">Move the slider to indicate how <strong style=""text-transform:capitalize"">RELAXING</strong> you find each animation.<br><br></div><div class=""intro"">0 = Least Relaxing<br></div><div class=""intro"">1 = Most Relaxing<br><br></div><div class=""intro"">Remember to use the <strong><em>entire range</em></strong> of the slider to make your ratings.<br></div><div class=""intro"">Please <strong><em>take your time</em></strong> and carefully consider each rating you make.<br><br></div>","0","",""
"","","","","","call-function","83","565757","0.0-83.0","1920x1080","","","","","","",""
"","","","","","animation","84","573661","0.0-84.0","1920x1080","","7903.100000000093","57.28","img/314/4/0.66667/bw/001.png","","","relaxing"
"","","","","","animation","85","578588","0.0-85.0","1920x1080","","4926.100000000093","14.68","img/238/2.5/0.66667/bw/001.png","","","relaxing"
"","","","","","animation","86","582668","0.0-86.0","1920x1080","","4079","72.49","img/117/4/2/bw/001.png","","","relaxing"
"","","","","","animation","87","589140","0.0-87.0","1920x1080","","6471","42.06","img/238/4/1/bw/001.png","","","relaxing"
"","","","","","animation","88","592028","0.0-88.0","1920x1080","","2886.5","25.53","img/238/3.5/0.66667/bw/001.png","","","relaxing"
"","","","","","animation","89","596345","0.0-89.0","1920x1080","","4423.70000000007","52.78","img/117/4.5/1/bw/001.png","","","relaxing"
"","","","","","animation","90","600865","0.0-90.0","1920x1080","","4518.900000000023","4","img/314/2.5/2/bw/001.png","","","relaxing"
"","","","","","animation","91","604505","0.0-91.0","1920x1080","","3638.600000000093","24.47","img/314/3.5/2/bw/001.png","","","relaxing"
"","","","","","animation","92","612073","0.0-92.0","1920x1080","","7567","97","img/117/5.5/1/bw/001.png","","","relaxing"
"","","","","","animation","93","615137","0.0-93.0","1920x1080","","3063.6999999999534","72.49","img/314/4/1.5/bw/001.png","","","relaxing"
"","","","","","animation","94","618681","0.0-94.0","1920x1080","","3542.899999999907","62.30","img/238/4.5/2/bw/001.png","","","relaxing"
"","","","","","animation","95","622409","0.0-95.0","1920x1080","","3727","100","img/238/5.5/0.66667/bw/001.png","","","relaxing"
"","","","","","animation","96","626420","0.0-96.0","1920x1080","","4010.5999999999767","92.86","img/238/5.5/1.5/bw/001.png","","","relaxing"
"","","","","","animation","97","633473","0.0-97.0","1920x1080","","7050.400000000023","52","img/314/4/1/bw/001.png","","","relaxing"
"","","","","","animation","98","638441","0.0-98.0","1920x1080","","4967.70000000007","33.86","img/314/3.5/1/bw/001.png","","","relaxing"
"","","","","","animation","99","642097","0.0-99.0","1920x1080","","3654.8000000000466","0","img/314/2.5/1/bw/001.png","","","relaxing"
"","","","","","animation","100","645257","0.0-100.0","1920x1080","","3158.9000000000233","96","img/117/5.5/2/bw/001.png","","","relaxing"
"","","","","","animation","101","647761","0.0-101.0","1920x1080","","2503.0999999999767","77.51","img/238/4.5/0.66667/bw/001.png","","","relaxing"
"","","","","","animation","102","649804","0.0-102.0","1920x1080","","2041.8000000000466","69.71","img/314/4.5/2/bw/001.png","","","relaxing"
"","","","","","animation","103","652237","0.0-103.0","1920x1080","","2432.5999999999767","3.70","img/238/2.5/1/bw/001.png","","","relaxing"
"","","","","","animation","104","658073","0.0-104.0","1920x1080","","5843.099999999977","78","img/314/5.5/0.66667/bw/001.png","","","relaxing"
"","","","","","animation","105","660674","0.0-105.0","1920x1080","","2599.0999999999767","93.65","img/117/5.5/1.5/bw/001.png","","","relaxing"
"","","","","","animation","106","663929","0.0-106.0","1920x1080","","3254.899999999907","80.29","img/238/4.5/1/bw/001.png","","","relaxing"
"","","","","","animation","107","667089","0.0-107.0","1920x1080","","3159","1.32","img/238/2.5/1.5/bw/001.png","","","relaxing"
"","","","","","animation","108","687074","0.0-108.0","1920x1080","","19983.300000000047","6","img/238/2.5/0.5/bw/001.png","","","relaxing"
"","","","","","animation","109","691170","0.0-109.0","1920x1080","","4095.1999999999534","96","img/314/5.5/1.5/bw/001.png","","","relaxing"
"","","","","","animation","110","697745","0.0-110.0","1920x1080","","6574.800000000047","1.98","img/117/2.5/1/bw/001.png","","","relaxing"
"","","","","","animation","111","701489","0.0-111.0","1920x1080","","3743.29999999993","43.12","img/314/4/0.5/bw/001.png","","","relaxing"
"","","","","","animation","112","703930","0.0-112.0","1920x1080","","2439.9000000000233","5.16","img/117/2.5/0.5/bw/001.png","","","relaxing"
"","","","","","animation","113","706363","0.0-113.0","1920x1080","","2432.20000000007","0","img/314/2.5/0.66667/bw/001.png","","","relaxing"
"","","","","","animation","114","715057","0.0-114.0","1920x1080","","8693.399999999907","64.29","img/117/4.5/0.5/bw/001.png","","","relaxing"
"","","","","","animation","115","718213","0.0-115.0","1920x1080","","3153.8000000000466","73.41","img/117/4.5/2/bw/001.png","","","relaxing"
"","","","","","animation","116","721429","0.0-116.0","1920x1080","","3215.5","83.47","img/314/4.5/1/bw/001.png","","","relaxing"
"","","","","","animation","117","723579","0.0-117.0","1920x1080","","2149.4000000000233","10.71","img/117/2.5/1.5/bw/001.png","","","relaxing"
"","","","","","animation","118","726306","0.0-118.0","1920x1080","","2725.6999999999534","35.05","img/238/3.5/1.5/bw/001.png","","","relaxing"
"","","","","","animation","119","733634","0.0-119.0","1920x1080","","7327.29999999993","35.45","img/314/4.5/0.5/bw/001.png","","","relaxing"
"","","","","","animation","120","737163","0.0-120.0","1920x1080","","3527.70000000007","4.10","img/314/2.5/0.5/bw/001.png","","","relaxing"
"","","","","","animation","121","745786","0.0-121.0","1920x1080","","8622.29999999993","58","img/117/4/0.5/bw/001.png","","","relaxing"
"","","","","","animation","122","748986","0.0-122.0","1920x1080","","3199","72.62","img/238/3.5/2/bw/001.png","","","relaxing"
"","","","","","animation","123","751274","0.0-123.0","1920x1080","","2287.0999999999767","86.90","img/117/4.5/0.66667/bw/001.png","","","relaxing"
"","","","","","animation","124","753646","0.0-124.0","1920x1080","","2371","76.46","img/238/4/0.66667/bw/001.png","","","relaxing"
"","","","","","animation","125","760602","0.0-125.0","1920x1080","","6955","10.71","img/238/2.5/2/bw/001.png","","","relaxing"
"","","","","","animation","126","764113","0.0-126.0","1920x1080","","3510.5999999999767","53.04","img/117/4/1/bw/001.png","","","relaxing"
"","","","","","animation","127","766817","0.0-127.0","1920x1080","","2703.5","98","img/314/5.5/1/bw/001.png","","","relaxing"
"","","","","","animation","128","768890","0.0-128.0","1920x1080","","2071.0999999999767","68.39","img/117/3.5/2/bw/001.png","","","relaxing"
"","","","","","animation","129","776313","0.0-129.0","1920x1080","","7422.599999999977","96","img/314/5.5/2/bw/001.png","","","relaxing"
"","","","","","animation","130","779096","0.0-130.0","1920x1080","","2783","89.95","img/117/5.5/0.5/bw/001.png","","","relaxing"
"","","","","","animation","131","782353","0.0-131.0","1920x1080","","3255.5","60.58","img/238/3.5/1/bw/001.png","","","relaxing"
"","","","","","animation","132","789845","0.0-132.0","1920x1080","","7491.20000000007","32.28","img/314/4/2/bw/001.png","","","relaxing"
"","","","","","animation","133","792369","0.0-133.0","1920x1080","","2522.5999999999767","88.49","img/314/5.5/0.5/bw/001.png","","","relaxing"
"","","","","","animation","134","798195","0.0-134.0","1920x1080","","5825.599999999977","17","img/117/2.5/0.66667/bw/001.png","","","relaxing"
"","","","","","animation","135","802880","0.0-135.0","1920x1080","","4684.400000000023","20.24","img/117/3.5/0.5/bw/001.png","","","relaxing"
"","","","","","animation","136","808601","0.0-136.0","1920x1080","","5719.099999999977","60.58","img/238/4/2/bw/001.png","","","relaxing"
"","","","","","animation","137","810963","0.0-137.0","1920x1080","","2361","40.74","img/314/3.5/0.5/bw/001.png","","","relaxing"
"","","","","","animation","138","817553","0.0-138.0","1920x1080","","6589.199999999953","84","img/117/5.5/0.66667/bw/001.png","","","relaxing"
"","","","","","animation","139","821353","0.0-139.0","1920x1080","","3798.8000000000466","65.61","img/117/4/0.66667/bw/001.png","","","relaxing"
"","","","","","animation","140","826212","0.0-140.0","1920x1080","","4858.300000000047","64.81","img/117/4.5/1.5/bw/001.png","","","relaxing"
"","","","","","animation","141","829185","0.0-141.0","1920x1080","","2970.6999999999534","52.65","img/314/4.5/0.66667/bw/001.png","","","relaxing"
"","","","","","animation","142","832249","0.0-142.0","1920x1080","","3062.79999999993","43.12","img/117/4/1.5/bw/001.png","","","relaxing"
"","","","","","animation","143","835873","0.0-143.0","1920x1080","","3623.3000000000466","67.33","img/238/4.5/1.5/bw/001.png","","","relaxing"
"","","","","","animation","144","840337","0.0-144.0","1920x1080","","4463","45.50","img/238/4.5/0.5/bw/001.png","","","relaxing"
"","","","","","animation","145","850061","0.0-145.0","1920x1080","","9723.899999999907","38.23","img/117/3.5/1.5/bw/001.png","","","relaxing"
"","","","","","animation","146","853937","0.0-146.0","1920x1080","","3874.4000000000233","24.74","img/314/3.5/0.66667/bw/001.png","","","relaxing"
"","","","","","animation","147","856864","0.0-147.0","1920x1080","","2926.6999999999534","97","img/238/5.5/1/bw/001.png","","","relaxing"
"","","","","","animation","148","859473","0.0-148.0","1920x1080","","2607.29999999993","0.93","img/117/2.5/2/bw/001.png","","","relaxing"
"","","","","","animation","149","865729","0.0-149.0","1920x1080","","6254.5","59","img/238/4/0.5/bw/001.png","","","relaxing"
"","","","","","animation","150","869321","0.0-150.0","1920x1080","","3591.0999999999767","1.32","img/314/2.5/1.5/bw/001.png","","","relaxing"
"","","","","","animation","151","876937","0.0-151.0","1920x1080","","7615.099999999977","100","img/238/5.5/2/bw/001.png","","","relaxing"
"","","","","","animation","152","882001","0.0-152.0","1920x1080","","5062.599999999977","82.28","img/314/4.5/1.5/bw/001.png","","","relaxing"
"","","","","","animation","153","885169","0.0-153.0","1920x1080","","3166.9000000000233","63.10","img/238/4/1.5/bw/001.png","","","relaxing"
"","","","","","animation","154","888664","0.0-154.0","1920x1080","","3494.6999999999534","91.93","img/238/5.5/0.5/bw/001.png","","","relaxing"
"","","","","","animation","155","896017","0.0-155.0","1920x1080","","7351.099999999977","33","img/117/3.5/1/bw/001.png","","","relaxing"
"","","","","","animation","156","907262","0.0-156.0","1920x1080","","11243.100000000093","20.24","img/314/3.5/1.5/bw/001.png","","","relaxing"
"","","","","","animation","157","911846","0.0-157.0","1920x1080","","4581.70000000007","12.30","img/238/3.5/0.5/bw/001.png","","","relaxing"
"","","","","","animation","158","914569","0.0-158.0","1920x1080","","2722.4000000000233","13.36","img/117/3.5/0.66667/bw/001.png","","","relaxing"
"","","","","","html-button-response","159","941778","0.0-159.0","1920x1080","","27207","","<div class=""intro"">You are about to view a new series of animations.<br><br></div><div class=""intro"">You will evaluate them based on a different descriptor.<br><br></div><div class=""intro"">Move the slider to indicate how <strong style=""text-transform:capitalize"">APPEALING</strong> you find each animation.<br><br></div><div class=""intro"">0 = Least Appealing<br></div><div class=""intro"">1 = Most Appealing<br><br></div><div class=""intro"">Remember to use the <strong><em>entire range</em></strong> of the slider to make your ratings.<br></div><div class=""intro"">Please <strong><em>take your time</em></strong> and carefully consider each rating you make.<br><br></div>","0","",""
"","","","","","call-function","160","941781","0.0-160.0","1920x1080","","","","","","",""
"","","","","","animation","161","945801","0.0-161.0","1920x1080","","4019.29999999993","12.83","img/314/3.5/1/bw/001.png","","","appealing"
"","","","","","animation","162","948146","0.0-162.0","1920x1080","","2343.4000000000233","2.25","img/238/2.5/1.5/bw/001.png","","","appealing"
"","","","","","animation","163","950553","0.0-163.0","1920x1080","","2406.8000000000466","14.95","img/314/3.5/2/bw/001.png","","","appealing"
"","","","","","animation","164","953537","0.0-164.0","1920x1080","","2982.9000000000233","9.13","img/117/3.5/0.5/bw/001.png","","","appealing"
"","","","","","animation","165","958629","0.0-165.0","1920x1080","","5090.900000000023","26.32","img/314/4/1.5/bw/001.png","","","appealing"
"","","","","","animation","166","961433","0.0-166.0","1920x1080","","2802.70000000007","17.46","img/117/3.5/2/bw/001.png","","","appealing"
"","","","","","animation","167","964137","0.0-167.0","1920x1080","","2703.1999999999534","76.46","img/314/5.5/0.5/bw/001.png","","","appealing"
"","","","","","animation","168","966145","0.0-168.0","1920x1080","","2007.5","22.49","img/238/3.5/0.66667/bw/001.png","","","appealing"
"","","","","","animation","169","968195","0.0-169.0","1920x1080","","2048.79999999993","10.19","img/314/3.5/0.66667/bw/001.png","","","appealing"
"","","","","","animation","170","970828","0.0-170.0","1920x1080","","2632.4000000000233","0.93","img/314/2.5/2/bw/001.png","","","appealing"
"","","","","","animation","171","974585","0.0-171.0","1920x1080","","3755.5","98","img/117/5.5/1.5/bw/001.png","","","appealing"
"","","","","","animation","172","978611","0.0-172.0","1920x1080","","4025.1999999999534","55","img/238/4/1.5/bw/001.png","","","appealing"
"","","","","","animation","173","980645","0.0-173.0","1920x1080","","2032.6999999999534","48.02","img/238/3.5/1/bw/001.png","","","appealing"
"","","","","","animation","174","987136","0.0-174.0","1920x1080","","6490.599999999977","51.46","img/314/4.5/0.66667/bw/001.png","","","appealing"
"","","","","","animation","175","991505","0.0-175.0","1920x1080","","4367.400000000023","9.13","img/238/2.5/0.5/bw/001.png","","","appealing"
"","","","","","animation","176","1003478","0.0-176.0","1920x1080","","11972.300000000047","31","img/238/4/1/bw/001.png","","","appealing"
"","","","","","animation","177","1019185","0.0-177.0","1920x1080","","15705.699999999953","25.53","img/238/4/0.66667/bw/001.png","","","appealing"
"","","","","","animation","178","1021633","0.0-178.0","1920x1080","","2446.5999999998603","16.27","img/117/4/0.5/bw/001.png","","","appealing"
"","","","","","animation","179","1026137","0.0-179.0","1920x1080","","4502.699999999953","12","img/238/3.5/0.5/bw/001.png","","","appealing"
"","","","","","animation","180","1029529","0.0-180.0","1920x1080","","3390.5","4.23","img/117/2.5/1/bw/001.png","","","appealing"
"","","","","","animation","181","1031729","0.0-181.0","1920x1080","","2199.5","81.61","img/314/5.5/1/bw/001.png","","","appealing"
"","","","","","animation","182","1034817","0.0-182.0","1920x1080","","3087.100000000093","64.15","img/117/4.5/1/bw/001.png","","","appealing"
"","","","","","animation","183","1038706","0.0-183.0","1920x1080","","3887.3000000000466","61.51","img/117/4.5/0.5/bw/001.png","","","appealing"
"","","","","","animation","184","1043429","0.0-184.0","1920x1080","","4722.199999999953","98","img/238/5.5/0.5/bw/001.png","","","appealing"
"","","","","","animation","185","1046201","0.0-185.0","1920x1080","","2770.6999999999534","8.33","img/238/2.5/2/bw/001.png","","","appealing"
"","","","","","animation","186","1048569","0.0-186.0","1920x1080","","2367","79.50","img/117/5.5/1/bw/001.png","","","appealing"
"","","","","","animation","187","1053379","0.0-187.0","1920x1080","","4808.5","3.97","img/117/2.5/2/bw/001.png","","","appealing"
"","","","","","animation","188","1056795","0.0-188.0","1920x1080","","3415.2999999998137","77.78","img/238/4.5/1/bw/001.png","","","appealing"
"","","","","","animation","189","1059865","0.0-189.0","1920x1080","","3068.6999999999534","47.35","img/117/3.5/0.66667/bw/001.png","","","appealing"
"","","","","","animation","190","1062096","0.0-190.0","1920x1080","","2229.6999999999534","68.92","img/238/4.5/1.5/bw/001.png","","","appealing"
"","","","","","animation","191","1080782","0.0-191.0","1920x1080","","18688.699999999953","100","img/117/4.5/1.5/bw/001.png","","","appealing"
"","","","","","animation","192","1100511","0.0-192.0","1920x1080","","19726.699999999953","78","img/314/4.5/2/bw/001.png","","","appealing"
"","","","","","animation","193","1132382","0.0-193.0","1920x1080","","31868.800000000047","14.29","img/117/3.5/1.5/bw/001.png","","","appealing"
"","","","","","animation","194","1140740","0.0-194.0","1920x1080","","8361.40000000014","4.50","img/117/2.5/1.5/bw/001.png","","","appealing"
"","","","","","animation","195","1146873","0.0-195.0","1920x1080","","6131.5","62.70","img/238/4.5/2/bw/001.png","","","appealing"
"","","","","","animation","196","1159954","0.0-196.0","1920x1080","","13079.699999999953","47.22","img/238/4.5/0.5/bw/001.png","","","appealing"
"","","","","","animation","197","1163131","0.0-197.0","1920x1080","","3176.5","35.98","img/238/4.5/0.66667/bw/001.png","","","appealing"
"","","","","","animation","198","1175787","0.0-198.0","1920x1080","","12654.5","8.99","img/314/2.5/0.5/bw/001.png","","","appealing"
"","","","","","animation","199","1185953","0.0-199.0","1920x1080","","10165","83.60","img/314/4.5/1.5/bw/001.png","","","appealing"
"","","","","","animation","200","1188978","0.0-200.0","1920x1080","","3022.6999999999534","20.24","img/238/2.5/1/bw/001.png","","","appealing"
"","","","","","animation","201","1192505","0.0-201.0","1920x1080","","3526.3000000000466","4.76","img/314/2.5/1.5/bw/001.png","","","appealing"
"","","","","","animation","202","1197367","0.0-202.0","1920x1080","","4864","64.29","img/314/4/0.5/bw/001.png","","","appealing"
"","","","","","animation","203","1216283","0.0-203.0","1920x1080","","18915.800000000047","90","img/238/5.5/1/bw/001.png","","","appealing"
"","","","","","animation","204","1218311","0.0-204.0","1920x1080","","2026.1999999999534","73.94","img/238/4/2/bw/001.png","","","appealing"
"","","","","","animation","205","1221742","0.0-205.0","1920x1080","","3425.899999999907","62","img/314/4/1/bw/001.png","","","appealing"
"","","","","","animation","206","1224933","0.0-206.0","1920x1080","","3190.0999999998603","87","img/117/5.5/0.5/bw/001.png","","","appealing"
"","","","","","animation","207","1231967","0.0-207.0","1920x1080","","7032.300000000047","62.04","img/117/4/1/bw/001.png","","","appealing"
"","","","","","animation","208","1238283","0.0-208.0","1920x1080","","6315.300000000047","87.30","img/238/5.5/1.5/bw/001.png","","","appealing"
"","","","","","animation","209","1248900","0.0-209.0","1920x1080","","10614.40000000014","68.39","img/238/4/0.5/bw/001.png","","","appealing"
"","","","","","animation","210","1252917","0.0-210.0","1920x1080","","4016.4000000001397","91.80","img/314/5.5/2/bw/001.png","","","appealing"
"","","","","","animation","211","1279738","0.0-211.0","1920x1080","","26822.800000000047","84","img/238/5.5/2/bw/001.png","","","appealing"
"","","","","","animation","212","1302379","0.0-212.0","1920x1080","","22638.800000000047","65.61","img/117/5.5/0.66667/bw/001.png","","","appealing"
"","","","","","animation","213","1321446","0.0-213.0","1920x1080","","19069.300000000047","72.75","img/117/4/2/bw/001.png","","","appealing"
"","","","","","animation","214","1325766","0.0-214.0","1920x1080","","4318.199999999953","45.11","img/314/4.5/0.5/bw/001.png","","","appealing"
"","","","","","animation","215","1335365","0.0-215.0","1920x1080","","9596.899999999907","80.29","img/314/5.5/0.66667/bw/001.png","","","appealing"
"","","","","","animation","216","1371941","0.0-216.0","1920x1080","","36572","81","img/117/5.5/2/bw/001.png","","","appealing"
"","","","","","animation","217","1374310","0.0-217.0","1920x1080","","2367.399999999907","63.62","img/117/4/1.5/bw/001.png","","","appealing"
"","","","","","animation","218","1378894","0.0-218.0","1920x1080","","4582.800000000047","44.84","img/117/4.5/0.66667/bw/001.png","","","appealing"
"","","","","","animation","219","1383998","0.0-219.0","1920x1080","","5103.199999999953","8.20","img/117/2.5/0.5/bw/001.png","","","appealing"
"","","","","","animation","220","1386592","0.0-220.0","1920x1080","","2591.7999999998137","23.02","img/314/3.5/0.5/bw/001.png","","","appealing"
"","","","","","animation","221","1390398","0.0-221.0","1920x1080","","3805.8000000000466","29.89","img/314/3.5/1.5/bw/001.png","","","appealing"
"","","","","","animation","222","1402575","0.0-222.0","1920x1080","","12174.800000000047","88.49","img/314/5.5/1.5/bw/001.png","","","appealing"
"","","","","","animation","223","1405862","0.0-223.0","1920x1080","","3286.2999999998137","84.92","img/238/5.5/0.66667/bw/001.png","","","appealing"
"","","","","","animation","224","1413175","0.0-224.0","1920x1080","","7311.699999999953","39","img/117/3.5/1/bw/001.png","","","appealing"
"","","","","","animation","225","1419494","0.0-225.0","1920x1080","","6317.59999999986","38.10","img/238/3.5/2/bw/001.png","","","appealing"
"","","","","","animation","226","1423625","0.0-226.0","1920x1080","","4130.199999999953","21.96","img/314/2.5/1/bw/001.png","","","appealing"
"","","","","","animation","227","1426782","0.0-227.0","1920x1080","","3155.100000000093","24.87","img/314/2.5/0.66667/bw/001.png","","","appealing"
"","","","","","animation","228","1430041","0.0-228.0","1920x1080","","3257.6999999999534","34.79","img/238/3.5/1.5/bw/001.png","","","appealing"
"","","","","","animation","229","1432782","0.0-229.0","1920x1080","","2740.2000000001863","11.11","img/314/4/0.66667/bw/001.png","","","appealing"
"","","","","","animation","230","1447846","0.0-230.0","1920x1080","","15062.600000000093","57","img/314/4/2/bw/001.png","","","appealing"
"","","","","","animation","231","1451941","0.0-231.0","1920x1080","","4093.399999999907","11","img/117/2.5/0.66667/bw/001.png","","","appealing"
"","","","","","animation","232","1456525","0.0-232.0","1920x1080","","4583","84.92","img/117/4.5/2/bw/001.png","","","appealing"
"","","","","","animation","233","1459142","0.0-233.0","1920x1080","","2615.3000000000466","21.30","img/117/4/0.66667/bw/001.png","","","appealing"
"","","","","","animation","234","1464846","0.0-234.0","1920x1080","","5703.90000000014","64","img/314/4.5/1/bw/001.png","","","appealing"
"","","","","","animation","235","1467398","0.0-235.0","1920x1080","","2550.5","10","img/238/2.5/0.66667/bw/001.png","","","appealing"
"","","","","","html-button-response","236","1488927","0.0-236.0","1920x1080","","21527.100000000093","","<div class=""intro"">You are about to view a new series of animations.<br><br></div><div class=""intro"">You will evaluate them based on a different descriptor.<br><br></div><div class=""intro"">Move the slider to indicate how <strong style=""text-transform:capitalize"">INTERESTING</strong> you find each animation.<br><br></div><div class=""intro"">0 = Least Interesting<br></div><div class=""intro"">1 = Most Interesting<br><br></div><div class=""intro"">Remember to use the <strong><em>entire range</em></strong> of the slider to make your ratings.<br></div><div class=""intro"">Please <strong><em>take your time</em></strong> and carefully consider each rating you make.<br><br></div>","0","",""
"","","","","","call-function","237","1488929","0.0-237.0","1920x1080","","","","","","",""
"","","","","","animation","238","1494875","0.0-238.0","1920x1080","","5945","24.21","img/117/5.5/0.66667/bw/001.png","","","interesting"
"","","","","","animation","239","1498998","0.0-239.0","1920x1080","","4122.40000000014","61.11","img/238/3.5/0.5/bw/001.png","","","interesting"
"","","","","","animation","240","1515278","0.0-240.0","1920x1080","","16278.600000000093","83","img/314/2.5/0.5/bw/001.png","","","interesting"
"","","","","","animation","241","1524225","0.0-241.0","1920x1080","","8945.299999999814","58.86","img/117/4/0.66667/bw/001.png","","","interesting"
"","","","","","animation","242","1530791","0.0-242.0","1920x1080","","6565.300000000047","79","img/238/2.5/2/bw/001.png","","","interesting"
"","","","","","animation","243","1534008","0.0-243.0","1920x1080","","3214.4000000001397","43.52","img/314/4.5/1.5/bw/001.png","","","interesting"
"","","","","","animation","244","1537774","0.0-244.0","1920x1080","","3765.0999999998603","5.69","img/117/5.5/2/bw/001.png","","","interesting"
"","","","","","animation","245","1541214","0.0-245.0","1920x1080","","3439.100000000093","20.63","img/117/4/1/bw/001.png","","","interesting"
"","","","","","animation","246","1543526","0.0-246.0","1920x1080","","2310.4000000001397","15.08","img/117/5.5/0.5/bw/001.png","","","interesting"
"","","","","","animation","247","1546175","0.0-247.0","1920x1080","","2647.899999999907","37.04","img/238/3.5/1.5/bw/001.png","","","interesting"
"","","","","","animation","248","1548908","0.0-248.0","1920x1080","","2730.8000000000466","57.01","img/117/3.5/1/bw/001.png","","","interesting"
"","","","","","animation","249","1551975","0.0-249.0","1920x1080","","3065.2999999998137","20.24","img/238/4/2/bw/001.png","","","interesting"
"","","","","","animation","250","1554674","0.0-250.0","1920x1080","","2698.4000000001397","31.35","img/117/4.5/1.5/bw/001.png","","","interesting"
"","","","","","animation","251","1558925","0.0-251.0","1920x1080","","4250.199999999953","7.54","img/238/5.5/0.66667/bw/001.png","","","interesting"
"","","","","","animation","252","1561414","0.0-252.0","1920x1080","","2486.100000000093","29.37","img/117/4/0.5/bw/001.png","","","interesting"
"","","","","","animation","253","1564291","0.0-253.0","1920x1080","","2876","75.00","img/117/2.5/2/bw/001.png","","","interesting"
"","","","","","animation","254","1566630","0.0-254.0","1920x1080","","2337.6999999999534","88","img/238/4.5/0.66667/bw/001.png","","","interesting"
"","","","","","animation","255","1569657","0.0-255.0","1920x1080","","3025.1999999999534","95","img/117/4.5/1/bw/001.png","","","interesting"
"","","","","","animation","256","1572662","0.0-256.0","1920x1080","","3002.899999999907","89.29","img/238/2.5/1/bw/001.png","","","interesting"
"","","","","","animation","257","1576041","0.0-257.0","1920x1080","","3378","71.96","img/238/4.5/0.5/bw/001.png","","","interesting"
"","","","","","animation","258","1580062","0.0-258.0","1920x1080","","4019.5","93","img/314/2.5/2/bw/001.png","","","interesting"
"","","","","","animation","259","1582581","0.0-259.0","1920x1080","","2518.3000000000466","39.68","img/117/5.5/1/bw/001.png","","","interesting"
"","","","","","animation","260","1585741","0.0-260.0","1920x1080","","3158.5","54.63","img/117/3.5/1.5/bw/001.png","","","interesting"
"","","","","","animation","261","1588677","0.0-261.0","1920x1080","","2934.8000000000466","82.14","img/117/2.5/1/bw/001.png","","","interesting"
"","","","","","animation","262","1593430","0.0-262.0","1920x1080","","4750.899999999907","93.39","img/117/3.5/2/bw/001.png","","","interesting"
"","","","","","animation","263","1597308","0.0-263.0","1920x1080","","3876.5","77.25","img/314/4.5/1/bw/001.png","","","interesting"
"","","","","","animation","264","1605814","0.0-264.0","1920x1080","","8505","37.30","img/314/5.5/1/bw/001.png","","","interesting"
"","","","","","animation","265","1609894","0.0-265.0","1920x1080","","4078.1999999999534","4.37","img/238/5.5/2/bw/001.png","","","interesting"
"","","","","","animation","266","1643230","0.0-266.0","1920x1080","","33334.89999999991","51","img/238/4/0.5/bw/001.png","","","interesting"
"","","","","","animation","267","1652591","0.0-267.0","1920x1080","","9359.5","14","img/314/5.5/0.66667/bw/001.png","","","interesting"
"","","","","","animation","268","1655808","0.0-268.0","1920x1080","","3215.3000000000466","23.81","img/314/4.5/2/bw/001.png","","","interesting"
"","","","","","animation","269","1663474","0.0-269.0","1920x1080","","7665.300000000047","66.80","img/314/3.5/1/bw/001.png","","","interesting"
"","","","","","animation","270","1673190","0.0-270.0","1920x1080","","9715","76.06","img/117/4.5/0.66667/bw/001.png","","","interesting"
"","","","","","animation","271","1678024","0.0-271.0","1920x1080","","4832.800000000047","85","img/238/2.5/1.5/bw/001.png","","","interesting"
"","","","","","animation","272","1680191","0.0-272.0","1920x1080","","2165.6999999999534","95","img/314/3.5/0.5/bw/001.png","","","interesting"
"","","","","","animation","273","1683007","0.0-273.0","1920x1080","","2813.1999999999534","80","img/314/3.5/1.5/bw/001.png","","","interesting"
"","","","","","animation","274","1684824","0.0-274.0","1920x1080","","1815.3000000000466","73","img/117/4/2/bw/001.png","","","interesting"
"","","","","","animation","275","1687307","0.0-275.0","1920x1080","","2481.8000000000466","13.36","img/238/5.5/1/bw/001.png","","","interesting"
"","","","","","animation","276","1690507","0.0-276.0","1920x1080","","3199.3000000000466","18.12","img/117/4.5/2/bw/001.png","","","interesting"
"","","","","","animation","277","1693693","0.0-277.0","1920x1080","","3184.6999999999534","45.63","img/117/3.5/0.5/bw/001.png","","","interesting"
"","","","","","animation","278","1696190","0.0-278.0","1920x1080","","2495.1999999999534","85.71","img/117/2.5/0.5/bw/001.png","","","interesting"
"","","","","","animation","279","1699257","0.0-279.0","1920x1080","","3065.4000000001397","6.08","img/314/5.5/2/bw/001.png","","","interesting"
"","","","","","animation","280","1701291","0.0-280.0","1920x1080","","2032.9000000001397","24.74","img/314/4.5/0.5/bw/001.png","","","interesting"
"","","","","","animation","281","1704925","0.0-281.0","1920x1080","","3633","17.86","img/238/4.5/1.5/bw/001.png","","","interesting"
"","","","","","animation","282","1706974","0.0-282.0","1920x1080","","2047","80.16","img/314/2.5/1.5/bw/001.png","","","interesting"
"","","","","","animation","283","1709817","0.0-283.0","1920x1080","","2841.899999999907","83.33","img/238/2.5/0.66667/bw/001.png","","","interesting"
"","","","","","animation","284","1740725","0.0-284.0","1920x1080","","30907.199999999953","44.84","img/238/4/1.5/bw/001.png","","","interesting"
"","","","","","animation","285","1744612","0.0-285.0","1920x1080","","3885.8000000000466","14.42","img/238/5.5/0.5/bw/001.png","","","interesting"
"","","","","","animation","286","1747298","0.0-286.0","1920x1080","","2684.4000000001397","22.49","img/238/4.5/2/bw/001.png","","","interesting"
"","","","","","animation","287","1753862","0.0-287.0","1920x1080","","6562.90000000014","8","img/238/5.5/1.5/bw/001.png","","","interesting"
"","","","","","animation","288","1757740","0.0-288.0","1920x1080","","3875.899999999907","83.86","img/314/2.5/0.66667/bw/001.png","","","interesting"
"","","","","","animation","289","1760309","0.0-289.0","1920x1080","","2567.6999999999534","92.59","img/238/3.5/2/bw/001.png","","","interesting"
"","","","","","animation","290","1763507","0.0-290.0","1920x1080","","3196.600000000093","87.04","img/314/4/0.5/bw/001.png","","","interesting"
"","","","","","animation","291","1766790","0.0-291.0","1920x1080","","3282.5","72.49","img/238/4/1/bw/001.png","","","interesting"
"","","","","","animation","292","1769277","0.0-292.0","1920x1080","","2485.600000000093","19.71","img/314/5.5/1.5/bw/001.png","","","interesting"
"","","","","","animation","293","1772157","0.0-293.0","1920x1080","","2878.3000000000466","78.70","img/117/3.5/0.66667/bw/001.png","","","interesting"
"","","","","","animation","294","1774845","0.0-294.0","1920x1080","","2687","63.49","img/314/4/0.66667/bw/001.png","","","interesting"
"","","","","","animation","295","1778061","0.0-295.0","1920x1080","","3215.0999999998603","81.61","img/238/2.5/0.5/bw/001.png","","","interesting"
"","","","","","animation","296","1780613","0.0-296.0","1920x1080","","2550.8000000000466","18.52","img/314/5.5/0.5/bw/001.png","","","interesting"
"","","","","","animation","297","1784525","0.0-297.0","1920x1080","","3910.399999999907","67.72","img/314/3.5/0.66667/bw/001.png","","","interesting"
"","","","","","animation","298","1786741","0.0-298.0","1920x1080","","2215","84.66","img/117/2.5/1.5/bw/001.png","","","interesting"
"","","","","","animation","299","1790572","0.0-299.0","1920x1080","","3830.1999999999534","62.57","img/117/4/1.5/bw/001.png","","","interesting"
"","","","","","animation","300","1793617","0.0-300.0","1920x1080","","3042.5","37.83","img/238/4.5/1/bw/001.png","","","interesting"
"","","","","","animation","301","1795829","0.0-301.0","1920x1080","","2177.1999999999534","50.79","img/117/4.5/0.5/bw/001.png","","","interesting"
"","","","","","animation","302","1798061","0.0-302.0","1920x1080","","2230.8000000000466","45.37","img/238/4/0.66667/bw/001.png","","","interesting"
"","","","","","animation","303","1800423","0.0-303.0","1920x1080","","2361.5","79.23","img/117/2.5/0.66667/bw/001.png","","","interesting"
"","","","","","animation","304","1828983","0.0-304.0","1920x1080","","28558.5","32.54","img/314/4/2/bw/001.png","","","interesting"
"","","","","","animation","305","1833446","0.0-305.0","1920x1080","","4461.300000000047","43.78","img/238/3.5/0.66667/bw/001.png","","","interesting"
"","","","","","animation","306","1836063","0.0-306.0","1920x1080","","2615.100000000093","34.79","img/314/4.5/0.66667/bw/001.png","","","interesting"
"","","","","","animation","307","1839360","0.0-307.0","1920x1080","","3296.600000000093","10.98","img/117/5.5/1.5/bw/001.png","","","interesting"
"","","","","","animation","308","1842757","0.0-308.0","1920x1080","","3394.100000000093","83.20","img/314/2.5/1/bw/001.png","","","interesting"
"","","","","","animation","309","1846539","0.0-309.0","1920x1080","","3774.8000000000466","67.06","img/314/4/1.5/bw/001.png","","","interesting"
"","","","","","animation","310","1848541","0.0-310.0","1920x1080","","1999.5","72.88","img/238/3.5/1/bw/001.png","","","interesting"
"","","","","","animation","311","1851225","0.0-311.0","1920x1080","","2682.8000000000466","73.15","img/314/4/1/bw/001.png","","","interesting"
"","","","","","animation","312","1854213","0.0-312.0","1920x1080","","2987","81.08","img/314/3.5/2/bw/001.png","","","interesting"
"","","","","","html-button-response","313","1874062","0.0-313.0","1920x1080","","19846.699999999953","","<div class=""intro"">You are about to view a new series of animations.<br><br></div><div class=""intro"">You will evaluate them based on a different descriptor.<br><br></div><div class=""intro"">Move the slider to indicate how <strong style=""text-transform:capitalize"">NATURAL</strong> you find each animation.<br><br></div><div class=""intro"">0 = Least Natural<br></div><div class=""intro"">1 = Most Natural<br><br></div><div class=""intro"">Remember to use the <strong><em>entire range</em></strong> of the slider to make your ratings.<br></div><div class=""intro"">Please <strong><em>take your time</em></strong> and carefully consider each rating you make.<br><br></div>","0","",""
"","","","","","call-function","314","1874064","0.0-314.0","1920x1080","","","","","","",""
"","","","","","animation","315","1898481","0.0-315.0","1920x1080","","24415.90000000014","19","img/238/2.5/0.66667/bw/001.png","","","natural"
"","","","","","animation","316","1909310","0.0-316.0","1920x1080","","10827.699999999953","77.65","img/117/4.5/1.5/bw/001.png","","","natural"
"","","","","","animation","317","1915464","0.0-317.0","1920x1080","","6153.100000000093","55.16","img/314/3.5/0.5/bw/001.png","","","natural"
"","","","","","animation","318","1930666","0.0-318.0","1920x1080","","15201","62","img/314/4.5/0.66667/bw/001.png","","","natural"
"","","","","","animation","319","1937544","0.0-319.0","1920x1080","","6876.100000000093","7.80","img/238/2.5/0.5/bw/001.png","","","natural"
"","","","","","animation","320","1952431","0.0-320.0","1920x1080","","14884.199999999953","59.26","img/314/3.5/1.5/bw/001.png","","","natural"
"","","","","","animation","321","1993050","0.0-321.0","1920x1080","","40617","25.79","img/314/3.5/1/bw/001.png","","","natural"
"","","","","","animation","322","2004693","0.0-322.0","1920x1080","","11641.90000000014","39.42","img/314/4/1.5/bw/001.png","","","natural"
"","","","","","animation","323","2022614","0.0-323.0","1920x1080","","17919.699999999953","45.90","img/314/3.5/2/bw/001.png","","","natural"
"","","","","","animation","324","2026590","0.0-324.0","1920x1080","","3974.3000000000466","20.50","img/117/2.5/0.5/bw/001.png","","","natural"
"","","","","","animation","325","2032574","0.0-325.0","1920x1080","","5983","27.65","img/117/2.5/1.5/bw/001.png","","","natural"
"","","","","","animation","326","2036367","0.0-326.0","1920x1080","","3789.899999999907","7.54","img/117/3.5/2/bw/001.png","","","natural"
"","","","","","animation","327","2042567","0.0-327.0","1920x1080","","6197.699999999953","87.43","img/314/5.5/1.5/bw/001.png","","","natural"
"","","","","","animation","328","2045263","0.0-328.0","1920x1080","","2694","71.30","img/117/4.5/0.5/bw/001.png","","","natural"
"","","","","","animation","329","2049550","0.0-329.0","1920x1080","","4285.90000000014","95","img/314/5.5/1/bw/001.png","","","natural"
"","","","","","animation","330","2052356","0.0-330.0","1920x1080","","2803.7000000001863","90.34","img/117/5.5/1.5/bw/001.png","","","natural"
"","","","","","animation","331","2055309","0.0-331.0","1920x1080","","2951.6999999999534","73.54","img/314/4/0.66667/bw/001.png","","","natural"
"","","","","","animation","332","2058550","0.0-332.0","1920x1080","","3239.899999999907","90.08","img/238/5.5/1/bw/001.png","","","natural"
"","","","","","animation","333","2060855","0.0-333.0","1920x1080","","2303","66.27","img/117/4/0.66667/bw/001.png","","","natural"
"","","","","","animation","334","2063555","0.0-334.0","1920x1080","","2698.8000000000466","8.73","img/314/2.5/0.66667/bw/001.png","","","natural"
"","","","","","animation","335","2078249","0.0-335.0","1920x1080","","14692.69999999972","72.49","img/238/4/1.5/bw/001.png","","","natural"
"","","","","","animation","336","2103485","0.0-336.0","1920x1080","","25228.100000000326","32.28","img/238/3.5/2/bw/001.png","","","natural"
"","","","","","animation","337","2105961","0.0-337.0","1920x1080","","2474.5999999996275","15.21","img/238/2.5/1.5/bw/001.png","","","natural"
"","","","","","animation","338","2108860","0.0-338.0","1920x1080","","2897.6999999997206","85.32","img/238/5.5/2/bw/001.png","","","natural"
"","","","","","animation","339","2111778","0.0-339.0","1920x1080","","2916.100000000093","58.07","img/314/4.5/1/bw/001.png","","","natural"
"","","","","","animation","340","2113898","0.0-340.0","1920x1080","","2119","15.21","img/314/2.5/0.5/bw/001.png","","","natural"
"","","","","","animation","341","2116130","0.0-341.0","1920x1080","","2229.600000000093","22.09","img/117/3.5/1/bw/001.png","","","natural"
"","","","","","animation","342","2118661","0.0-342.0","1920x1080","","2530.2000000001863","44.44","img/314/4/2/bw/001.png","","","natural"
"","","","","","animation","343","2121277","0.0-343.0","1920x1080","","2615.399999999907","2.38","img/314/2.5/1/bw/001.png","","","natural"
"","","","","","animation","344","2124068","0.0-344.0","1920x1080","","2789.7000000001863","94","img/238/5.5/1.5/bw/001.png","","","natural"
"","","","","","animation","345","2125978","0.0-345.0","1920x1080","","1909.2000000001863","74.60","img/238/3.5/0.5/bw/001.png","","","natural"
"","","","","","animation","346","2128732","0.0-346.0","1920x1080","","2752.399999999907","82.54","img/238/4.5/1.5/bw/001.png","","","natural"
"","","","","","animation","347","2131378","0.0-347.0","1920x1080","","2644.8000000002794","94.05","img/238/5.5/0.66667/bw/001.png","","","natural"
"","","","","","animation","348","2134260","0.0-348.0","1920x1080","","2880.5","58","img/117/4/0.5/bw/001.png","","","natural"
"","","","","","animation","349","2159044","0.0-349.0","1920x1080","","24774","43.78","img/117/4.5/2/bw/001.png","","","natural"
"","","","","","animation","350","2162526","0.0-350.0","1920x1080","","3480.5","52.91","img/314/4.5/2/bw/001.png","","","natural"
"","","","","","animation","351","2172643","0.0-351.0","1920x1080","","10115.899999999907","88.49","img/314/5.5/0.66667/bw/001.png","","","natural"
"","","","","","animation","352","2175325","0.0-352.0","1920x1080","","2680.399999999907","94.05","img/117/5.5/0.66667/bw/001.png","","","natural"
"","","","","","animation","353","2179495","0.0-353.0","1920x1080","","4168.899999999907","24.34","img/117/3.5/0.66667/bw/001.png","","","natural"
"","","","","","animation","354","2182072","0.0-354.0","1920x1080","","2575","93.39","img/238/5.5/0.5/bw/001.png","","","natural"
"","","","","","animation","355","2184184","0.0-355.0","1920x1080","","2111.2999999998137","80.29","img/314/4.5/1.5/bw/001.png","","","natural"
"","","","","","animation","356","2186522","0.0-356.0","1920x1080","","2336.5","3.04","img/314/2.5/2/bw/001.png","","","natural"
"","","","","","animation","357","2190118","0.0-357.0","1920x1080","","3594.7999999998137","0.93","img/117/2.5/2/bw/001.png","","","natural"
"","","","","","animation","358","2202467","0.0-358.0","1920x1080","","12348","39.55","img/314/4/1/bw/001.png","","","natural"
"","","","","","animation","359","2211163","0.0-359.0","1920x1080","","8694.100000000093","33.60","img/117/4/1.5/bw/001.png","","","natural"
"","","","","","animation","360","2214951","0.0-360.0","1920x1080","","3786.600000000093","60.71","img/314/4.5/0.5/bw/001.png","","","natural"
"","","","","","animation","361","2219217","0.0-361.0","1920x1080","","4256.799999999814","57.67","img/238/3.5/0.66667/bw/001.png","","","natural"
"","","","","","animation","362","2223442","0.0-362.0","1920x1080","","4221.300000000279","69.44","img/238/3.5/1.5/bw/001.png","","","natural"
"","","","","","animation","363","2227843","0.0-363.0","1920x1080","","4399.200000000186","72","img/238/4.5/2/bw/001.png","","","natural"
"","","","","","animation","364","2230893","0.0-364.0","1920x1080","","3048.4000000003725","4.50","img/117/2.5/1/bw/001.png","","","natural"
"","","","","","animation","365","2234676","0.0-365.0","1920x1080","","3781.899999999907","89.81","img/314/5.5/2/bw/001.png","","","natural"
"","","","","","animation","366","2237809","0.0-366.0","1920x1080","","3132","79.23","img/238/4.5/0.66667/bw/001.png","","","natural"
"","","","","","animation","367","2240580","0.0-367.0","1920x1080","","2768.399999999907","7.54","img/314/2.5/1.5/bw/001.png","","","natural"
"","","","","","animation","368","2243476","0.0-368.0","1920x1080","","2894.7000000001863","66","img/117/4.5/0.66667/bw/001.png","","","natural"
"","","","","","animation","369","2249529","0.0-369.0","1920x1080","","6052.100000000093","2","img/238/2.5/1/bw/001.png","","","natural"
"","","","","","animation","370","2254377","0.0-370.0","1920x1080","","4846.5","57","img/117/4.5/1/bw/001.png","","","natural"
"","","","","","animation","371","2260209","0.0-371.0","1920x1080","","5830.199999999721","55","img/117/4/2/bw/001.png","","","natural"
"","","","","","animation","372","2268593","0.0-372.0","1920x1080","","8382.399999999907","87.83","img/117/5.5/0.5/bw/001.png","","","natural"
"","","","","","animation","373","2275345","0.0-373.0","1920x1080","","6751.399999999907","50.66","img/314/3.5/0.66667/bw/001.png","","","natural"
"","","","","","animation","374","2279883","0.0-374.0","1920x1080","","4529","14.42","img/238/2.5/2/bw/001.png","","","natural"
"","","","","","animation","375","2284066","0.0-375.0","1920x1080","","4181.700000000186","55","img/117/3.5/1.5/bw/001.png","","","natural"
"","","","","","animation","376","2286249","0.0-376.0","1920x1080","","2181.8000000002794","65.08","img/238/4/2/bw/001.png","","","natural"
"","","","","","animation","377","2311982","0.0-377.0","1920x1080","","25731.399999999907","61.11","img/238/4/1/bw/001.png","","","natural"
"","","","","","animation","378","2318799","0.0-378.0","1920x1080","","6815.5","83","img/117/5.5/1/bw/001.png","","","natural"
"","","","","","animation","379","2325504","0.0-379.0","1920x1080","","6701.899999999907","82","img/117/4/1/bw/001.png","","","natural"
"","","","","","animation","380","2334810","0.0-380.0","1920x1080","","9301.5","42.86","img/238/4/0.5/bw/001.png","","","natural"
"","","","","","animation","381","2338244","0.0-381.0","1920x1080","","3426.600000000093","89","img/117/5.5/2/bw/001.png","","","natural"
"","","","","","animation","382","2341775","0.0-382.0","1920x1080","","3529.7000000001863","57.41","img/117/3.5/0.5/bw/001.png","","","natural"
"","","","","","animation","383","2344018","0.0-383.0","1920x1080","","2242","62.96","img/314/4/0.5/bw/001.png","","","natural"
"","","","","","animation","384","2383889","0.0-384.0","1920x1080","","39869.10000000009","48.28","img/238/3.5/1/bw/001.png","","","natural"
"","","","","","animation","385","2387623","0.0-385.0","1920x1080","","3732.2999999998137","59.52","img/238/4.5/0.5/bw/001.png","","","natural"
"","","","","","animation","386","2389882","0.0-386.0","1920x1080","","2258.5","10.19","img/117/2.5/0.66667/bw/001.png","","","natural"
"","","","","","animation","387","2393207","0.0-387.0","1920x1080","","3323.2000000001863","93.25","img/314/5.5/0.5/bw/001.png","","","natural"
"","","","","","animation","388","2395573","0.0-388.0","1920x1080","","2363.2999999998137","67.06","img/238/4/0.66667/bw/001.png","","","natural"
"","","","","","animation","389","2399091","0.0-389.0","1920x1080","","3515.1999999997206","77.38","img/238/4.5/1/bw/001.png","","","natural"
"","","","","","html-button-response","390","2417167","0.0-390.0","1920x1080","","18074.69999999972","","<strong>Study Debriefing</strong><br><p class=""debrief""><strong>Background:</strong> The patterns you rated are called <em>fractals</em>. The term fractal describes a class of irregular curves or shapes for which any suitably chosen part is similar in shape to a given larger or smaller part when magnified or reduced to the same size. Fractal properties are found throughout the natural and manmade world. The series of animations you saw today displayed animated fractal patterns of a varying complexity.</p><p class=""debrief""><strong>Purpose of this study:</strong> We hope to better understand how the perception of static fractals differs from the perception of animated fractals, and how the speed of the animated patterns influences people&apos;s perception of them. Fractals allow us to study the perception of aesthetic properties (e.g. the perceived level of beauty in an image) without using recognizable content, which makes them an excellent tool for studying abstract aesthetic judgement.</p><p class=""debrief""><strong>Your part:</strong> Your participation has helped us to further understand how humans perceive these patterns across different levels of speed and complexity. This research with allow us to better understand how the visual system and brain process our ever-changing visual environments.<p class=""debrief""><strong>Feedback and Further information:</strong> If you have additional questions about this study, please feel free to ask the researcher, Nathan Gonzales-Hess at nhess @ uoregon.edu. If you have any questions concerning your rights as a research participant, please contact Research Compliance Services, 5237 University of Oregon, Eugene, OR 97403, 541-346-2510, or email researchCompliance @ uoregon.edu. You can also email the Human Subjects Coordinator for psychology and linguistics research at hscoord @ uoregon.edu. ","0","",""
"","","","","","html-button-response","391","2419351","0.0-391.0","1920x1080","","2178.9000000003725","","Thank you for participating in this study. <br>Please click below to finish the experiment and submit your responses.<br><br>","0","",""
"true","","","","","fullscreen","392","2420355","0.0-392.0","1920x1080","16:8 16/5/2022","","","","","",""
