"success","timeout","failed_images","failed_audio","failed_video","trial_type","trial_index","time_elapsed","internal_node_id","resolution","timeStamp","rt","response","stimulus","button_pressed","value","descriptor"
"true","false","[]","[]","[]","preload","0","14565","0.0-0.0","1920x1080","","","","","","",""
"true","false","[]","[]","[]","preload","1","30961","0.0-1.0","1920x1080","","","","","","",""
"true","false","[]","[]","[]","preload","2","46935","0.0-2.0","1920x1080","","","","","","",""
"true","","","","","fullscreen","3","73736","0.0-3.0","1920x1080","15:30 26/5/2022","","","","","",""
"","","","","","survey-html-form","4","79836","0.0-4.0","1920x1080","","6097.5","{""age"":""19"",""gender"":""Male""}","","","",""
"","","","","","html-button-response","5","108908","0.0-5.0","1920x1080","","29070.69999998808","","<div class=""complex"">You are going to see a series of animations.<br><br></div><div class=""complex"">Move the slider to indicate how <strong style=""text-transform:capitalize"">COMPLEX</strong> you find each animation.<br><br></div><div class=""complex"">0 = Least Complex<br></div><div class=""complex"">1 = Most Complex<br><br></div><div class=""complex"">Remember to use the <strong><em>entire range</em></strong> of the slider to make your ratings.<br></div><div class=""complex"">Please <strong><em>take your time</em></strong> and carefully consider each rating you make.<br><br></div><div class=""complex"">The study has five sections and will take about 45 minutes to complete.<br><br></div>","0","",""
"","","","","","call-function","6","108909","0.0-6.0","1920x1080","","","","","","",""
"","","","","","animation","7","117916","0.0-7.0","1920x1080","","9005","69.84","img/117/3.5/0.5/bw/001.png","","","complex"
"","","","","","animation","8","122404","0.0-8.0","1920x1080","","4486.5","34.52","img/238/3.5/1.5/bw/001.png","","","complex"
"","","","","","animation","9","126091","0.0-9.0","1920x1080","","3686.599999964237","4","img/314/5.5/0.5/bw/001.png","","","complex"
"","","","","","animation","10","129612","0.0-10.0","1920x1080","","3519.399999976158","91","img/117/3.5/2/bw/001.png","","","complex"
"","","","","","animation","11","134396","0.0-11.0","1920x1080","","4782.900000035763","4.63","img/238/5.5/2/bw/001.png","","","complex"
"","","","","","animation","12","136668","0.0-12.0","1920x1080","","2271.199999988079","49.47","img/238/4/2/bw/001.png","","","complex"
"","","","","","animation","13","138620","0.0-13.0","1920x1080","","1951","27.91","img/117/5.5/0.5/bw/001.png","","","complex"
"","","","","","animation","14","141292","0.0-14.0","1920x1080","","2671","100","img/238/2.5/1/bw/001.png","","","complex"
"","","","","","animation","15","144260","0.0-15.0","1920x1080","","2967.100000023842","100","img/314/2.5/1/bw/001.png","","","complex"
"","","","","","animation","16","146996","0.0-16.0","1920x1080","","2735.5","100","img/314/2.5/2/bw/001.png","","","complex"
"","","","","","animation","17","150292","0.0-17.0","1920x1080","","3294.7999999523163","100","img/117/2.5/0.5/bw/001.png","","","complex"
"","","","","","animation","18","153732","0.0-18.0","1920x1080","","3439.599999964237","66","img/117/3.5/0.66667/bw/001.png","","","complex"
"","","","","","animation","19","155876","0.0-19.0","1920x1080","","2142.7999999523163","43.52","img/117/4/2/bw/001.png","","","complex"
"","","","","","animation","20","158020","0.0-20.0","1920x1080","","2143.5","17","img/117/4.5/0.66667/bw/001.png","","","complex"
"","","","","","animation","21","160380","0.0-21.0","1920x1080","","2358.900000035763","57.94","img/314/4/2/bw/001.png","","","complex"
"","","","","","animation","22","164196","0.0-22.0","1920x1080","","3815.5","71","img/117/4/0.66667/bw/001.png","","","complex"
"","","","","","animation","23","168244","0.0-23.0","1920x1080","","4047","8.60","img/314/5.5/1.5/bw/001.png","","","complex"
"","","","","","animation","24","171228","0.0-24.0","1920x1080","","2983.399999976158","33.47","img/314/4.5/0.66667/bw/001.png","","","complex"
"","","","","","animation","25","174812","0.0-25.0","1920x1080","","3583.099999964237","18.25","img/117/5.5/1.5/bw/001.png","","","complex"
"","","","","","animation","26","177244","0.0-26.0","1920x1080","","2431.100000023842","5.42","img/238/5.5/1/bw/001.png","","","complex"
"","","","","","animation","27","179325","0.0-27.0","1920x1080","","2080.600000023842","35.58","img/314/4.5/1/bw/001.png","","","complex"
"","","","","","animation","28","181996","0.0-28.0","1920x1080","","2670.300000011921","73.81","img/117/3.5/1/bw/001.png","","","complex"
"","","","","","animation","29","183908","0.0-29.0","1920x1080","","1911.3999999761581","57.67","img/117/4.5/0.5/bw/001.png","","","complex"
"","","","","","animation","30","186044","0.0-30.0","1920x1080","","2134.899999976158","68.78","img/117/4/0.5/bw/001.png","","","complex"
"","","","","","animation","31","187900","0.0-31.0","1920x1080","","1855.6000000238419","79.10","img/238/3.5/1/bw/001.png","","","complex"
"","","","","","animation","32","190317","0.0-32.0","1920x1080","","2415.599999964237","94.05","img/314/2.5/0.5/bw/001.png","","","complex"
"","","","","","animation","33","192973","0.0-33.0","1920x1080","","2654.800000011921","18.12","img/238/5.5/0.5/bw/001.png","","","complex"
"","","","","","animation","34","194925","0.0-34.0","1920x1080","","1951.9000000357628","34.52","img/238/4.5/2/bw/001.png","","","complex"
"","","","","","animation","35","197380","0.0-35.0","1920x1080","","2453.899999976158","12","img/117/5.5/2/bw/001.png","","","complex"
"","","","","","animation","36","199709","0.0-36.0","1920x1080","","2328.400000035763","37.70","img/314/4/1/bw/001.png","","","complex"
"","","","","","animation","37","202485","0.0-37.0","1920x1080","","2774.599999964237","24.21","img/238/4.5/1/bw/001.png","","","complex"
"","","","","","animation","38","206172","0.0-38.0","1920x1080","","3687","95","img/117/2.5/1.5/bw/001.png","","","complex"
"","","","","","animation","39","209196","0.0-39.0","1920x1080","","3022.899999976158","36.90","img/238/4/1.5/bw/001.png","","","complex"
"","","","","","animation","40","211228","0.0-40.0","1920x1080","","2031.0999999642372","17.20","img/117/5.5/1/bw/001.png","","","complex"
"","","","","","animation","41","212837","0.0-41.0","1920x1080","","1607.4000000357628","32.28","img/314/4.5/2/bw/001.png","","","complex"
"","","","","","animation","42","215359","0.0-42.0","1920x1080","","2521.399999976158","99","img/238/2.5/2/bw/001.png","","","complex"
"","","","","","animation","43","217036","0.0-43.0","1920x1080","","1676.800000011921","33.20","img/117/4.5/1.5/bw/001.png","","","complex"
"","","","","","animation","44","221517","0.0-44.0","1920x1080","","4479.5","25.13","img/238/4.5/1.5/bw/001.png","","","complex"
"","","","","","animation","45","223604","0.0-45.0","1920x1080","","2086.899999976158","99","img/117/2.5/0.66667/bw/001.png","","","complex"
"","","","","","animation","46","225501","0.0-46.0","1920x1080","","1895.4000000357628","60.58","img/238/4/1/bw/001.png","","","complex"
"","","","","","animation","47","228004","0.0-47.0","1920x1080","","2503.300000011921","39.29","img/117/4.5/1/bw/001.png","","","complex"
"","","","","","animation","48","230133","0.0-48.0","1920x1080","","2127.5","70.90","img/238/3.5/0.66667/bw/001.png","","","complex"
"","","","","","animation","49","233909","0.0-49.0","1920x1080","","3776.099999964237","74.74","img/314/4/0.5/bw/001.png","","","complex"
"","","","","","animation","50","236893","0.0-50.0","1920x1080","","2982.599999964237","100","img/238/2.5/1.5/bw/001.png","","","complex"
"","","","","","animation","51","238660","0.0-51.0","1920x1080","","1766.199999988079","63.23","img/314/4/0.66667/bw/001.png","","","complex"
"","","","","","animation","52","240212","0.0-52.0","1920x1080","","1551.199999988079","38.36","img/117/5.5/0.66667/bw/001.png","","","complex"
"","","","","","animation","53","242333","0.0-53.0","1920x1080","","2119.5","67.46","img/314/3.5/0.66667/bw/001.png","","","complex"
"","","","","","animation","54","244717","0.0-54.0","1920x1080","","2383.100000023842","77.12","img/238/3.5/0.5/bw/001.png","","","complex"
"","","","","","animation","55","247310","0.0-55.0","1920x1080","","2592.400000035763","100.00","img/238/2.5/0.66667/bw/001.png","","","complex"
"","","","","","animation","56","249364","0.0-56.0","1920x1080","","2053.899999976158","65.61","img/117/4/1/bw/001.png","","","complex"
"","","","","","animation","57","251343","0.0-57.0","1920x1080","","1977.699999988079","33.99","img/314/4.5/0.5/bw/001.png","","","complex"
"","","","","","animation","58","254516","0.0-58.0","1920x1080","","3173","79","img/314/3.5/1/bw/001.png","","","complex"
"","","","","","animation","59","256573","0.0-59.0","1920x1080","","2055.2999999523163","31.61","img/238/4.5/0.5/bw/001.png","","","complex"
"","","","","","animation","60","258926","0.0-60.0","1920x1080","","2352.300000011921","102.65","img/238/2.5/0.5/bw/001.png","","","complex"
"","","","","","animation","61","261493","0.0-61.0","1920x1080","","2566.199999988079","100","img/117/2.5/1/bw/001.png","","","complex"
"","","","","","animation","62","263405","0.0-62.0","1920x1080","","1910.5","25","img/314/4.5/1.5/bw/001.png","","","complex"
"","","","","","animation","63","266100","0.0-63.0","1920x1080","","2694.900000035763","15","img/238/4.5/0.66667/bw/001.png","","","complex"
"","","","","","animation","64","269526","0.0-64.0","1920x1080","","3425.199999988079","93.39","img/314/2.5/0.66667/bw/001.png","","","complex"
"","","","","","animation","65","272244","0.0-65.0","1920x1080","","2716.899999976158","76.72","img/314/3.5/1.5/bw/001.png","","","complex"
"","","","","","animation","66","273894","0.0-66.0","1920x1080","","1648.699999988079","100","img/314/2.5/1.5/bw/001.png","","","complex"
"","","","","","animation","67","276412","0.0-67.0","1920x1080","","2518.099999964237","0","img/238/5.5/1.5/bw/001.png","","","complex"
"","","","","","animation","68","278860","0.0-68.0","1920x1080","","2446.599999964237","63.76","img/117/3.5/1.5/bw/001.png","","","complex"
"","","","","","animation","69","280900","0.0-69.0","1920x1080","","2039.8999999761581","16.80","img/314/5.5/1/bw/001.png","","","complex"
"","","","","","animation","70","283412","0.0-70.0","1920x1080","","2511","59.92","img/238/3.5/2/bw/001.png","","","complex"
"","","","","","animation","71","285268","0.0-71.0","1920x1080","","1855.300000011921","67.72","img/314/4/1.5/bw/001.png","","","complex"
"","","","","","animation","72","286964","0.0-72.0","1920x1080","","1695","78.31","img/117/4/1.5/bw/001.png","","","complex"
"","","","","","animation","73","289693","0.0-73.0","1920x1080","","2727.599999964237","89.68","img/238/4/0.5/bw/001.png","","","complex"
"","","","","","animation","74","292884","0.0-74.0","1920x1080","","3190.800000011921","5.56","img/314/5.5/0.66667/bw/001.png","","","complex"
"","","","","","animation","75","295796","0.0-75.0","1920x1080","","2911.199999988079","62.43","img/314/3.5/2/bw/001.png","","","complex"
"","","","","","animation","76","298676","0.0-76.0","1920x1080","","2879.199999988079","34.39","img/117/4.5/2/bw/001.png","","","complex"
"","","","","","animation","77","300317","0.0-77.0","1920x1080","","1638.3999999761581","79.76","img/314/3.5/0.5/bw/001.png","","","complex"
"","","","","","animation","78","302375","0.0-78.0","1920x1080","","2057.800000011921","6.75","img/314/5.5/2/bw/001.png","","","complex"
"","","","","","animation","79","305316","0.0-79.0","1920x1080","","2940.300000011921","0.79","img/238/5.5/0.66667/bw/001.png","","","complex"
"","","","","","animation","80","307300","0.0-80.0","1920x1080","","1983.3999999761581","100","img/117/2.5/2/bw/001.png","","","complex"
"","","","","","animation","81","309084","0.0-81.0","1920x1080","","1783.0999999642372","62.43","img/238/4/0.66667/bw/001.png","","","complex"
"","","","","","html-button-response","82","327670","0.0-82.0","1920x1080","","18583.5","","<div class=""intro"">You are about to view a new series of animations.<br><br></div><div class=""intro"">You will evaluate them based on a different descriptor.<br><br></div><div class=""intro"">Move the slider to indicate how <strong style=""text-transform:capitalize"">NATURAL</strong> you find each animation.<br><br></div><div class=""intro"">0 = Least Natural<br></div><div class=""intro"">1 = Most Natural<br><br></div><div class=""intro"">Remember to use the <strong><em>entire range</em></strong> of the slider to make your ratings.<br></div><div class=""intro"">Please <strong><em>take your time</em></strong> and carefully consider each rating you make.<br><br></div>","0","",""
"","","","","","call-function","83","327670","0.0-83.0","1920x1080","","","","","","",""
"","","","","","animation","84","335581","0.0-84.0","1920x1080","","7909.900000035763","51.98","img/238/3.5/2/bw/001.png","","","natural"
"","","","","","animation","85","340360","0.0-85.0","1920x1080","","4777.899999976158","70.24","img/238/5.5/0.5/bw/001.png","","","natural"
"","","","","","animation","86","343621","0.0-86.0","1920x1080","","3260.600000023842","23.81","img/117/4/0.66667/bw/001.png","","","natural"
"","","","","","animation","87","347797","0.0-87.0","1920x1080","","4174.400000035763","88.23","img/238/2.5/2/bw/001.png","","","natural"
"","","","","","animation","88","350861","0.0-88.0","1920x1080","","3063.300000011921","32.41","img/314/4/0.66667/bw/001.png","","","natural"
"","","","","","animation","89","353317","0.0-89.0","1920x1080","","2455.199999988079","18.78","img/238/4.5/1.5/bw/001.png","","","natural"
"","","","","","animation","90","355965","0.0-90.0","1920x1080","","2647.5","39.02","img/117/4/1/bw/001.png","","","natural"
"","","","","","animation","91","358749","0.0-91.0","1920x1080","","2783.399999976158","89.29","img/117/2.5/0.66667/bw/001.png","","","natural"
"","","","","","animation","92","361765","0.0-92.0","1920x1080","","3015.2999999523163","87.30","img/314/5.5/1.5/bw/001.png","","","natural"
"","","","","","animation","93","365917","0.0-93.0","1920x1080","","4151.299999952316","23.81","img/117/4/0.5/bw/001.png","","","natural"
"","","","","","animation","94","369261","0.0-94.0","1920x1080","","3342.7000000476837","11.24","img/314/4/2/bw/001.png","","","natural"
"","","","","","animation","95","371677","0.0-95.0","1920x1080","","2416","91.67","img/314/5.5/2/bw/001.png","","","natural"
"","","","","","animation","96","374044","0.0-96.0","1920x1080","","2366","20.24","img/117/4.5/1/bw/001.png","","","natural"
"","","","","","animation","97","380101","0.0-97.0","1920x1080","","6055.599999964237","98","img/238/2.5/0.66667/bw/001.png","","","natural"
"","","","","","animation","98","382804","0.0-98.0","1920x1080","","2703","82.94","img/238/5.5/0.66667/bw/001.png","","","natural"
"","","","","","animation","99","386061","0.0-99.0","1920x1080","","3255.5","24.07","img/117/4/1.5/bw/001.png","","","natural"
"","","","","","animation","100","391876","0.0-100.0","1920x1080","","5814.5","50","img/238/3.5/1/bw/001.png","","","natural"
"","","","","","animation","101","393637","0.0-101.0","1920x1080","","1759.8999999761581","71.96","img/117/5.5/1/bw/001.png","","","natural"
"","","","","","animation","102","395694","0.0-102.0","1920x1080","","2056.199999988079","33.33","img/314/4.5/0.5/bw/001.png","","","natural"
"","","","","","animation","103","398117","0.0-103.0","1920x1080","","2422.199999988079","30.82","img/238/3.5/0.66667/bw/001.png","","","natural"
"","","","","","animation","104","399685","0.0-104.0","1920x1080","","1567.0999999642372","29.10","img/314/4/0.5/bw/001.png","","","natural"
"","","","","","animation","105","401517","0.0-105.0","1920x1080","","1831.2999999523163","67.59","img/314/5.5/0.5/bw/001.png","","","natural"
"","","","","","animation","106","403942","0.0-106.0","1920x1080","","2424.800000011921","24","img/238/4.5/0.5/bw/001.png","","","natural"
"","","","","","animation","107","407605","0.0-107.0","1920x1080","","3661.7000000476837","14.02","img/238/4/2/bw/001.png","","","natural"
"","","","","","animation","108","409805","0.0-108.0","1920x1080","","2198.199999988079","7.94","img/238/4.5/2/bw/001.png","","","natural"
"","","","","","animation","109","415037","0.0-109.0","1920x1080","","5230.899999976158","45.90","img/117/5.5/2/bw/001.png","","","natural"
"","","","","","animation","110","418605","0.0-110.0","1920x1080","","3567.199999988079","87.57","img/314/2.5/2/bw/001.png","","","natural"
"","","","","","animation","111","422453","0.0-111.0","1920x1080","","3847.300000011921","89.68","img/314/5.5/1/bw/001.png","","","natural"
"","","","","","animation","112","425269","0.0-112.0","1920x1080","","2815.2000000476837","19.97","img/117/4.5/2/bw/001.png","","","natural"
"","","","","","animation","113","428901","0.0-113.0","1920x1080","","3631.100000023842","18.78","img/117/4.5/0.5/bw/001.png","","","natural"
"","","","","","animation","114","431676","0.0-114.0","1920x1080","","2774.699999988079","17.20","img/238/4/1.5/bw/001.png","","","natural"
"","","","","","animation","115","435509","0.0-115.0","1920x1080","","3831.900000035763","57.28","img/314/3.5/2/bw/001.png","","","natural"
"","","","","","animation","116","437701","0.0-116.0","1920x1080","","2191.100000023842","93.25","img/117/2.5/2/bw/001.png","","","natural"
"","","","","","animation","117","439596","0.0-117.0","1920x1080","","1895","90.61","img/314/2.5/1.5/bw/001.png","","","natural"
"","","","","","animation","118","441837","0.0-118.0","1920x1080","","2239.5","91.01","img/117/2.5/0.5/bw/001.png","","","natural"
"","","","","","animation","119","445868","0.0-119.0","1920x1080","","4031","34.79","img/238/4.5/0.66667/bw/001.png","","","natural"
"","","","","","animation","120","448793","0.0-120.0","1920x1080","","2923.600000023842","33.73","img/238/4/1/bw/001.png","","","natural"
"","","","","","animation","121","452580","0.0-121.0","1920x1080","","3786.699999988079","61.64","img/314/3.5/1.5/bw/001.png","","","natural"
"","","","","","animation","122","455164","0.0-122.0","1920x1080","","2582.800000011921","70.90","img/117/3.5/2/bw/001.png","","","natural"
"","","","","","animation","123","458005","0.0-123.0","1920x1080","","2839.399999976158","100","img/238/5.5/1.5/bw/001.png","","","natural"
"","","","","","animation","124","461028","0.0-124.0","1920x1080","","3022.600000023842","24.21","img/117/4.5/1.5/bw/001.png","","","natural"
"","","","","","animation","125","464176","0.0-125.0","1920x1080","","3147","100","img/314/2.5/0.66667/bw/001.png","","","natural"
"","","","","","animation","126","467180","0.0-126.0","1920x1080","","3003.300000011921","20.50","img/314/4/1.5/bw/001.png","","","natural"
"","","","","","animation","127","469853","0.0-127.0","1920x1080","","2671.5","42.20","img/314/3.5/0.66667/bw/001.png","","","natural"
"","","","","","animation","128","473452","0.0-128.0","1920x1080","","3598.900000035763","57.54","img/314/3.5/0.5/bw/001.png","","","natural"
"","","","","","animation","129","475228","0.0-129.0","1920x1080","","1774.9000000357628","98","img/117/2.5/1.5/bw/001.png","","","natural"
"","","","","","animation","130","477605","0.0-130.0","1920x1080","","2375.5","90.08","img/238/2.5/1.5/bw/001.png","","","natural"
"","","","","","animation","131","480349","0.0-131.0","1920x1080","","2743.100000023842","100","img/238/2.5/1/bw/001.png","","","natural"
"","","","","","animation","132","482276","0.0-132.0","1920x1080","","1926.7000000476837","94","img/314/2.5/1/bw/001.png","","","natural"
"","","","","","animation","133","484821","0.0-133.0","1920x1080","","2543.600000023842","22.22","img/238/4/0.66667/bw/001.png","","","natural"
"","","","","","animation","134","489237","0.0-134.0","1920x1080","","4415.099999964237","94.18","img/314/5.5/0.66667/bw/001.png","","","natural"
"","","","","","animation","135","491533","0.0-135.0","1920x1080","","2294.800000011921","25.66","img/117/4/2/bw/001.png","","","natural"
"","","","","","animation","136","494237","0.0-136.0","1920x1080","","2703.100000023842","12.43","img/238/3.5/1.5/bw/001.png","","","natural"
"","","","","","animation","137","496228","0.0-137.0","1920x1080","","1990.800000011921","8.60","img/314/4.5/2/bw/001.png","","","natural"
"","","","","","animation","138","498510","0.0-138.0","1920x1080","","2280.600000023842","17.86","img/238/4.5/1/bw/001.png","","","natural"
"","","","","","animation","139","501393","0.0-139.0","1920x1080","","2882.5","63.76","img/238/4/0.5/bw/001.png","","","natural"
"","","","","","animation","140","504933","0.0-140.0","1920x1080","","3539.100000023842","71.69","img/314/3.5/1/bw/001.png","","","natural"
"","","","","","animation","141","507237","0.0-141.0","1920x1080","","2302.899999976158","71.96","img/117/3.5/1.5/bw/001.png","","","natural"
"","","","","","animation","142","511794","0.0-142.0","1920x1080","","4555.600000023842","40","img/314/4.5/0.66667/bw/001.png","","","natural"
"","","","","","animation","143","514962","0.0-143.0","1920x1080","","3167.199999988079","50.00","img/117/3.5/0.5/bw/001.png","","","natural"
"","","","","","animation","144","516477","0.0-144.0","1920x1080","","1513.8999999761581","62.30","img/117/3.5/0.66667/bw/001.png","","","natural"
"","","","","","animation","145","518749","0.0-145.0","1920x1080","","2271.5","85.71","img/117/5.5/0.66667/bw/001.png","","","natural"
"","","","","","animation","146","520965","0.0-146.0","1920x1080","","2214.7999999523163","98","img/238/5.5/2/bw/001.png","","","natural"
"","","","","","animation","147","523165","0.0-147.0","1920x1080","","2199.099999964237","100","img/314/2.5/0.5/bw/001.png","","","natural"
"","","","","","animation","148","526110","0.0-148.0","1920x1080","","2944.5","34.79","img/117/4.5/0.66667/bw/001.png","","","natural"
"","","","","","animation","149","528777","0.0-149.0","1920x1080","","2665.899999976158","97","img/117/2.5/1/bw/001.png","","","natural"
"","","","","","animation","150","531594","0.0-150.0","1920x1080","","2815.599999964237","73.81","img/238/3.5/0.5/bw/001.png","","","natural"
"","","","","","animation","151","533381","0.0-151.0","1920x1080","","1786.6000000238419","40.74","img/314/4.5/1.5/bw/001.png","","","natural"
"","","","","","animation","152","535829","0.0-152.0","1920x1080","","2446.300000011921","76","img/314/4/1/bw/001.png","","","natural"
"","","","","","animation","153","537717","0.0-153.0","1920x1080","","1887.5","95","img/238/2.5/0.5/bw/001.png","","","natural"
"","","","","","animation","154","540144","0.0-154.0","1920x1080","","2426","92.20","img/238/5.5/1/bw/001.png","","","natural"
"","","","","","animation","155","542565","0.0-155.0","1920x1080","","2420.100000023842","87.17","img/117/5.5/1.5/bw/001.png","","","natural"
"","","","","","animation","156","545610","0.0-156.0","1920x1080","","3044.5","100","img/117/3.5/1/bw/001.png","","","natural"
"","","","","","animation","157","548645","0.0-157.0","1920x1080","","3033.100000023842","89.81","img/117/5.5/0.5/bw/001.png","","","natural"
"","","","","","animation","158","554549","0.0-158.0","1920x1080","","5903.400000035763","35.71","img/314/4.5/1/bw/001.png","","","natural"
"","","","","","html-button-response","159","573302","0.0-159.0","1920x1080","","18751.30000001192","","<div class=""intro"">You are about to view a new series of animations.<br><br></div><div class=""intro"">You will evaluate them based on a different descriptor.<br><br></div><div class=""intro"">Move the slider to indicate how <strong style=""text-transform:capitalize"">INTERESTING</strong> you find each animation.<br><br></div><div class=""intro"">0 = Least Interesting<br></div><div class=""intro"">1 = Most Interesting<br><br></div><div class=""intro"">Remember to use the <strong><em>entire range</em></strong> of the slider to make your ratings.<br></div><div class=""intro"">Please <strong><em>take your time</em></strong> and carefully consider each rating you make.<br><br></div>","0","",""
"","","","","","call-function","160","573302","0.0-160.0","1920x1080","","","","","","",""
"","","","","","animation","161","577133","0.0-161.0","1920x1080","","3830.199999988079","59.26","img/314/4/0.5/bw/001.png","","","interesting"
"","","","","","animation","162","579726","0.0-162.0","1920x1080","","2592.599999964237","99","img/314/2.5/1/bw/001.png","","","interesting"
"","","","","","animation","163","582645","0.0-163.0","1920x1080","","2917.800000011921","41.67","img/238/4.5/0.66667/bw/001.png","","","interesting"
"","","","","","animation","164","584977","0.0-164.0","1920x1080","","2330.699999988079","42.86","img/117/4.5/0.66667/bw/001.png","","","interesting"
"","","","","","animation","165","586885","0.0-165.0","1920x1080","","1907.699999988079","97","img/238/2.5/0.66667/bw/001.png","","","interesting"
"","","","","","animation","166","589111","0.0-166.0","1920x1080","","2224.399999976158","100","img/314/2.5/1.5/bw/001.png","","","interesting"
"","","","","","animation","167","592437","0.0-167.0","1920x1080","","3325.899999976158","76.85","img/238/5.5/1/bw/001.png","","","interesting"
"","","","","","animation","168","594944","0.0-168.0","1920x1080","","2505.400000035763","32.67","img/314/4.5/0.66667/bw/001.png","","","interesting"
"","","","","","animation","169","599981","0.0-169.0","1920x1080","","5036.600000023842","92.20","img/238/5.5/1.5/bw/001.png","","","interesting"
"","","","","","animation","170","602678","0.0-170.0","1920x1080","","2695.800000011921","89.29","img/117/5.5/1.5/bw/001.png","","","interesting"
"","","","","","animation","171","605112","0.0-171.0","1920x1080","","2432.5","92.72","img/117/5.5/1/bw/001.png","","","interesting"
"","","","","","animation","172","606997","0.0-172.0","1920x1080","","1882.2999999523163","42.86","img/117/4.5/2/bw/001.png","","","interesting"
"","","","","","animation","173","609177","0.0-173.0","1920x1080","","2179.099999964237","73.54","img/314/4/2/bw/001.png","","","interesting"
"","","","","","animation","174","611845","0.0-174.0","1920x1080","","2666.800000011921","87.30","img/314/4/1/bw/001.png","","","interesting"
"","","","","","animation","175","614365","0.0-175.0","1920x1080","","2519.199999988079","98","img/238/2.5/2/bw/001.png","","","interesting"
"","","","","","animation","176","616561","0.0-176.0","1920x1080","","2194.600000023842","85.58","img/117/3.5/1/bw/001.png","","","interesting"
"","","","","","animation","177","618997","0.0-177.0","1920x1080","","2435.5","31.88","img/314/4.5/1/bw/001.png","","","interesting"
"","","","","","animation","178","625182","0.0-178.0","1920x1080","","6183.399999976158","79.10","img/238/5.5/0.5/bw/001.png","","","interesting"
"","","","","","animation","179","627861","0.0-179.0","1920x1080","","2676","100","img/117/2.5/1.5/bw/001.png","","","interesting"
"","","","","","animation","180","633070","0.0-180.0","1920x1080","","5207.699999988079","65","img/117/5.5/0.66667/bw/001.png","","","interesting"
"","","","","","animation","181","635734","0.0-181.0","1920x1080","","2662.899999976158","78.17","img/117/4/1.5/bw/001.png","","","interesting"
"","","","","","animation","182","637596","0.0-182.0","1920x1080","","1861.2999999523163","95","img/314/3.5/0.66667/bw/001.png","","","interesting"
"","","","","","animation","183","640654","0.0-183.0","1920x1080","","3026.899999976158","37.43","img/314/4.5/2/bw/001.png","","","interesting"
"","","","","","animation","184","645470","0.0-184.0","1920x1080","","4815","73.68","img/314/4.5/0.5/bw/001.png","","","interesting"
"","","","","","animation","185","647438","0.0-185.0","1920x1080","","1967.300000011921","87.30","img/117/3.5/0.66667/bw/001.png","","","interesting"
"","","","","","animation","186","649318","0.0-186.0","1920x1080","","1878.8999999761581","93.39","img/117/4/1/bw/001.png","","","interesting"
"","","","","","animation","187","654581","0.0-187.0","1920x1080","","5262.699999988079","65","img/117/4.5/0.5/bw/001.png","","","interesting"
"","","","","","animation","188","662366","0.0-188.0","1920x1080","","7783.400000035763","35.98","img/314/5.5/2/bw/001.png","","","interesting"
"","","","","","animation","189","665278","0.0-189.0","1920x1080","","2910.899999976158","13.76","img/314/4/0.66667/bw/001.png","","","interesting"
"","","","","","animation","190","669029","0.0-190.0","1920x1080","","3750.599999964237","75.13","img/117/4/0.66667/bw/001.png","","","interesting"
"","","","","","animation","191","671778","0.0-191.0","1920x1080","","2747.599999964237","100","img/314/2.5/0.5/bw/001.png","","","interesting"
"","","","","","animation","192","674245","0.0-192.0","1920x1080","","2466.300000011921","84.26","img/238/3.5/0.66667/bw/001.png","","","interesting"
"","","","","","animation","193","676254","0.0-193.0","1920x1080","","2007.5","94.58","img/314/2.5/2/bw/001.png","","","interesting"
"","","","","","animation","194","678686","0.0-194.0","1920x1080","","2430.800000011921","98","img/314/2.5/0.66667/bw/001.png","","","interesting"
"","","","","","animation","195","681118","0.0-195.0","1920x1080","","2431","26.85","img/238/4/2/bw/001.png","","","interesting"
"","","","","","animation","196","691318","0.0-196.0","1920x1080","","10199","26.32","img/238/4/0.66667/bw/001.png","","","interesting"
"","","","","","animation","197","694734","0.0-197.0","1920x1080","","3415.2999999523163","70.90","img/238/5.5/0.66667/bw/001.png","","","interesting"
"","","","","","animation","198","697311","0.0-198.0","1920x1080","","2576.699999988079","96","img/117/2.5/2/bw/001.png","","","interesting"
"","","","","","animation","199","701918","0.0-199.0","1920x1080","","4605.199999988079","88.10","img/238/5.5/2/bw/001.png","","","interesting"
"","","","","","animation","200","703997","0.0-200.0","1920x1080","","2078.399999976158","84.13","img/314/5.5/1/bw/001.png","","","interesting"
"","","","","","animation","201","706045","0.0-201.0","1920x1080","","2047","34.39","img/117/4.5/1/bw/001.png","","","interesting"
"","","","","","animation","202","708712","0.0-202.0","1920x1080","","2665.399999976158","28.31","img/238/4.5/1.5/bw/001.png","","","interesting"
"","","","","","animation","203","711382","0.0-203.0","1920x1080","","2669","20.50","img/238/4.5/1/bw/001.png","","","interesting"
"","","","","","animation","204","714178","0.0-204.0","1920x1080","","2795.300000011921","72.62","img/314/3.5/1/bw/001.png","","","interesting"
"","","","","","animation","205","719645","0.0-205.0","1920x1080","","5466.600000023842","50.26","img/238/4.5/0.5/bw/001.png","","","interesting"
"","","","","","animation","206","722095","0.0-206.0","1920x1080","","2448.600000023842","32.67","img/117/5.5/0.5/bw/001.png","","","interesting"
"","","","","","animation","207","724528","0.0-207.0","1920x1080","","2432.2000000476837","72.22","img/117/3.5/0.5/bw/001.png","","","interesting"
"","","","","","animation","208","726844","0.0-208.0","1920x1080","","2315.399999976158","83.99","img/238/3.5/2/bw/001.png","","","interesting"
"","","","","","animation","209","728766","0.0-209.0","1920x1080","","1920","85.45","img/238/3.5/1/bw/001.png","","","interesting"
"","","","","","animation","210","732319","0.0-210.0","1920x1080","","3551.099999964237","95","img/238/2.5/1.5/bw/001.png","","","interesting"
"","","","","","animation","211","734645","0.0-211.0","1920x1080","","2325.899999976158","100","img/117/2.5/0.5/bw/001.png","","","interesting"
"","","","","","animation","212","737855","0.0-212.0","1920x1080","","3208.199999988079","100","img/117/2.5/0.66667/bw/001.png","","","interesting"
"","","","","","animation","213","740612","0.0-213.0","1920x1080","","2756.300000011921","100","img/238/2.5/0.5/bw/001.png","","","interesting"
"","","","","","animation","214","742903","0.0-214.0","1920x1080","","2289.099999964237","91.14","img/238/3.5/0.5/bw/001.png","","","interesting"
"","","","","","animation","215","745695","0.0-215.0","1920x1080","","2791.600000023842","100","img/238/2.5/1/bw/001.png","","","interesting"
"","","","","","animation","216","748045","0.0-216.0","1920x1080","","2349","61.64","img/117/4/2/bw/001.png","","","interesting"
"","","","","","animation","217","750519","0.0-217.0","1920x1080","","2472.199999988079","78.84","img/314/5.5/1.5/bw/001.png","","","interesting"
"","","","","","animation","218","753512","0.0-218.0","1920x1080","","2991.899999976158","85.85","img/314/5.5/0.66667/bw/001.png","","","interesting"
"","","","","","animation","219","757445","0.0-219.0","1920x1080","","3932","94","img/117/3.5/1.5/bw/001.png","","","interesting"
"","","","","","animation","220","762129","0.0-220.0","1920x1080","","4682.099999964237","68.25","img/314/5.5/0.5/bw/001.png","","","interesting"
"","","","","","animation","221","765346","0.0-221.0","1920x1080","","3215.5","86.38","img/238/3.5/1.5/bw/001.png","","","interesting"
"","","","","","animation","222","767696","0.0-222.0","1920x1080","","2348.800000011921","26.06","img/117/5.5/2/bw/001.png","","","interesting"
"","","","","","animation","223","772030","0.0-223.0","1920x1080","","4333.699999988079","50.26","img/238/4/0.5/bw/001.png","","","interesting"
"","","","","","animation","224","773929","0.0-224.0","1920x1080","","1897.699999988079","67.33","img/117/4/0.5/bw/001.png","","","interesting"
"","","","","","animation","225","777671","0.0-225.0","1920x1080","","3740.699999988079","84","img/314/3.5/1.5/bw/001.png","","","interesting"
"","","","","","animation","226","779913","0.0-226.0","1920x1080","","2240.899999976158","71.30","img/314/4.5/1.5/bw/001.png","","","interesting"
"","","","","","animation","227","782179","0.0-227.0","1920x1080","","2265.599999964237","80.29","img/314/3.5/0.5/bw/001.png","","","interesting"
"","","","","","animation","228","789182","0.0-228.0","1920x1080","","7002.099999964237","73.54","img/238/4/1.5/bw/001.png","","","interesting"
"","","","","","animation","229","791702","0.0-229.0","1920x1080","","2518.5","27.38","img/117/4.5/1.5/bw/001.png","","","interesting"
"","","","","","animation","230","794087","0.0-230.0","1920x1080","","2380.5","66.40","img/314/4/1.5/bw/001.png","","","interesting"
"","","","","","animation","231","796214","0.0-231.0","1920x1080","","2126.300000011921","37.04","img/238/4.5/2/bw/001.png","","","interesting"
"","","","","","animation","232","798414","0.0-232.0","1920x1080","","2198.7000000476837","99","img/117/2.5/1/bw/001.png","","","interesting"
"","","","","","animation","233","800662","0.0-233.0","1920x1080","","2246.600000023842","91.53","img/314/3.5/2/bw/001.png","","","interesting"
"","","","","","animation","234","802662","0.0-234.0","1920x1080","","1998.8999999761581","90.34","img/117/3.5/2/bw/001.png","","","interesting"
"","","","","","animation","235","805263","0.0-235.0","1920x1080","","2599.400000035763","80.03","img/238/4/1/bw/001.png","","","interesting"
"","","","","","html-button-response","236","824096","0.0-236.0","1920x1080","","18831.899999976158","","<div class=""intro"">You are about to view a new series of animations.<br><br></div><div class=""intro"">You will evaluate them based on a different descriptor.<br><br></div><div class=""intro"">Move the slider to indicate how <strong style=""text-transform:capitalize"">APPEALING</strong> you find each animation.<br><br></div><div class=""intro"">0 = Least Appealing<br></div><div class=""intro"">1 = Most Appealing<br><br></div><div class=""intro"">Remember to use the <strong><em>entire range</em></strong> of the slider to make your ratings.<br></div><div class=""intro"">Please <strong><em>take your time</em></strong> and carefully consider each rating you make.<br><br></div>","0","",""
"","","","","","call-function","237","824096","0.0-237.0","1920x1080","","","","","","",""
"","","","","","animation","238","828598","0.0-238.0","1920x1080","","4501.700000047684","9","img/238/5.5/2/bw/001.png","","","appealing"
"","","","","","animation","239","830703","0.0-239.0","1920x1080","","2103.199999988079","65.34","img/314/4/0.5/bw/001.png","","","appealing"
"","","","","","animation","240","832767","0.0-240.0","1920x1080","","2062.899999976158","14.29","img/314/5.5/2/bw/001.png","","","appealing"
"","","","","","animation","241","835649","0.0-241.0","1920x1080","","2881.099999964237","7.01","img/238/5.5/0.5/bw/001.png","","","appealing"
"","","","","","animation","242","837503","0.0-242.0","1920x1080","","1852.300000011921","75.40","img/314/3.5/1/bw/001.png","","","appealing"
"","","","","","animation","243","839662","0.0-243.0","1920x1080","","2158.7000000476837","73.02","img/117/4.5/0.5/bw/001.png","","","appealing"
"","","","","","animation","244","841646","0.0-244.0","1920x1080","","1982.5","84.79","img/238/3.5/0.66667/bw/001.png","","","appealing"
"","","","","","animation","245","844446","0.0-245.0","1920x1080","","2799.5","81.48","img/238/4/1.5/bw/001.png","","","appealing"
"","","","","","animation","246","848383","0.0-246.0","1920x1080","","3934.800000011921","86","img/314/4/1/bw/001.png","","","appealing"
"","","","","","animation","247","851030","0.0-247.0","1920x1080","","2645.900000035763","7.01","img/117/5.5/2/bw/001.png","","","appealing"
"","","","","","animation","248","852797","0.0-248.0","1920x1080","","1764.7000000476837","54.23","img/238/4/2/bw/001.png","","","appealing"
"","","","","","animation","249","855135","0.0-249.0","1920x1080","","2336.900000035763","100","img/314/2.5/2/bw/001.png","","","appealing"
"","","","","","animation","250","857247","0.0-250.0","1920x1080","","2110.399999976158","78.17","img/314/4.5/2/bw/001.png","","","appealing"
"","","","","","animation","251","859103","0.0-251.0","1920x1080","","1855.5","62.96","img/238/4.5/0.66667/bw/001.png","","","appealing"
"","","","","","animation","252","862319","0.0-252.0","1920x1080","","3215","99","img/117/2.5/2/bw/001.png","","","appealing"
"","","","","","animation","253","864751","0.0-253.0","1920x1080","","2430.900000035763","100","img/314/2.5/0.66667/bw/001.png","","","appealing"
"","","","","","animation","254","866535","0.0-254.0","1920x1080","","1782.7000000476837","61.90","img/314/4/0.66667/bw/001.png","","","appealing"
"","","","","","animation","255","868196","0.0-255.0","1920x1080","","1660.3999999761581","79.76","img/314/3.5/0.5/bw/001.png","","","appealing"
"","","","","","animation","256","870046","0.0-256.0","1920x1080","","1849.1000000238419","14.95","img/238/5.5/0.66667/bw/001.png","","","appealing"
"","","","","","animation","257","873730","0.0-257.0","1920x1080","","3682.600000023842","38.62","img/238/4.5/1/bw/001.png","","","appealing"
"","","","","","animation","258","876951","0.0-258.0","1920x1080","","3219.399999976158","81","img/117/3.5/1.5/bw/001.png","","","appealing"
"","","","","","animation","259","878913","0.0-259.0","1920x1080","","1961.4000000357628","82.14","img/117/3.5/2/bw/001.png","","","appealing"
"","","","","","animation","260","880999","0.0-260.0","1920x1080","","2084.400000035763","60.45","img/117/4.5/2/bw/001.png","","","appealing"
"","","","","","animation","261","883047","0.0-261.0","1920x1080","","2047.0999999642372","100","img/314/2.5/1.5/bw/001.png","","","appealing"
"","","","","","animation","262","888247","0.0-262.0","1920x1080","","5199","53","img/117/4.5/1.5/bw/001.png","","","appealing"
"","","","","","animation","263","892280","0.0-263.0","1920x1080","","4032","100","img/117/2.5/0.66667/bw/001.png","","","appealing"
"","","","","","animation","264","894447","0.0-264.0","1920x1080","","2164.5","81.35","img/117/3.5/1/bw/001.png","","","appealing"
"","","","","","animation","265","896863","0.0-265.0","1920x1080","","2415.699999988079","70.90","img/117/3.5/0.66667/bw/001.png","","","appealing"
"","","","","","animation","266","899183","0.0-266.0","1920x1080","","2318.300000011921","26.85","img/117/5.5/0.66667/bw/001.png","","","appealing"
"","","","","","animation","267","901631","0.0-267.0","1920x1080","","2447.099999964237","57.94","img/314/3.5/0.66667/bw/001.png","","","appealing"
"","","","","","animation","268","903997","0.0-268.0","1920x1080","","2365","62.43","img/238/4/0.66667/bw/001.png","","","appealing"
"","","","","","animation","269","906628","0.0-269.0","1920x1080","","2630.300000011921","65.87","img/238/4/1/bw/001.png","","","appealing"
"","","","","","animation","270","909215","0.0-270.0","1920x1080","","2585.300000011921","70.77","img/117/4/1.5/bw/001.png","","","appealing"
"","","","","","animation","271","911135","0.0-271.0","1920x1080","","1918.699999988079","14.68","img/314/5.5/0.66667/bw/001.png","","","appealing"
"","","","","","animation","272","913303","0.0-272.0","1920x1080","","2167.5","100","img/314/2.5/0.5/bw/001.png","","","appealing"
"","","","","","animation","273","915113","0.0-273.0","1920x1080","","1809.300000011921","90.34","img/238/3.5/1/bw/001.png","","","appealing"
"","","","","","animation","274","917146","0.0-274.0","1920x1080","","2032.0999999642372","87.57","img/238/3.5/2/bw/001.png","","","appealing"
"","","","","","animation","275","919421","0.0-275.0","1920x1080","","2273.5","73.02","img/238/4.5/2/bw/001.png","","","appealing"
"","","","","","animation","276","921630","0.0-276.0","1920x1080","","2204.5","69.05","img/314/4.5/0.66667/bw/001.png","","","appealing"
"","","","","","animation","277","923966","0.0-277.0","1920x1080","","2335.699999988079","85.05","img/314/3.5/2/bw/001.png","","","appealing"
"","","","","","animation","278","926413","0.0-278.0","1920x1080","","2445.5","87.70","img/117/4/1/bw/001.png","","","appealing"
"","","","","","animation","279","929413","0.0-279.0","1920x1080","","2998.899999976158","54.10","img/117/4.5/1/bw/001.png","","","appealing"
"","","","","","animation","280","931629","0.0-280.0","1920x1080","","2215.2999999523163","30.95","img/238/5.5/1/bw/001.png","","","appealing"
"","","","","","animation","281","933814","0.0-281.0","1920x1080","","2184","100","img/238/2.5/1/bw/001.png","","","appealing"
"","","","","","animation","282","936087","0.0-282.0","1920x1080","","2271.300000011921","100","img/238/2.5/0.66667/bw/001.png","","","appealing"
"","","","","","animation","283","938119","0.0-283.0","1920x1080","","2030.5","100","img/117/2.5/1/bw/001.png","","","appealing"
"","","","","","animation","284","939858","0.0-284.0","1920x1080","","1738.699999988079","79.76","img/117/3.5/0.5/bw/001.png","","","appealing"
"","","","","","animation","285","941705","0.0-285.0","1920x1080","","1845.6000000238419","75.53","img/117/4/2/bw/001.png","","","appealing"
"","","","","","animation","286","943813","0.0-286.0","1920x1080","","2106.600000023842","100","img/314/2.5/1/bw/001.png","","","appealing"
"","","","","","animation","287","945687","0.0-287.0","1920x1080","","1872.6000000238419","77.65","img/117/4/0.5/bw/001.png","","","appealing"
"","","","","","animation","288","947487","0.0-288.0","1920x1080","","1798.7999999523163","85.85","img/314/3.5/1.5/bw/001.png","","","appealing"
"","","","","","animation","289","950351","0.0-289.0","1920x1080","","2863.100000023842","93.39","img/238/3.5/0.5/bw/001.png","","","appealing"
"","","","","","animation","290","952135","0.0-290.0","1920x1080","","1780.6000000238419","24.21","img/238/5.5/1.5/bw/001.png","","","appealing"
"","","","","","animation","291","954093","0.0-291.0","1920x1080","","1957.800000011921","100","img/117/2.5/0.5/bw/001.png","","","appealing"
"","","","","","animation","292","955998","0.0-292.0","1920x1080","","1903.5999999642372","96","img/238/3.5/1.5/bw/001.png","","","appealing"
"","","","","","animation","293","958113","0.0-293.0","1920x1080","","2114","23.81","img/314/5.5/0.5/bw/001.png","","","appealing"
"","","","","","animation","294","960703","0.0-294.0","1920x1080","","2589","100","img/117/2.5/1.5/bw/001.png","","","appealing"
"","","","","","animation","295","963080","0.0-295.0","1920x1080","","2374.699999988079","36.64","img/314/4.5/1/bw/001.png","","","appealing"
"","","","","","animation","296","964880","0.0-296.0","1920x1080","","1799","100","img/238/2.5/2/bw/001.png","","","appealing"
"","","","","","animation","297","967863","0.0-297.0","1920x1080","","2981.800000011921","47.35","img/117/4.5/0.66667/bw/001.png","","","appealing"
"","","","","","animation","298","970982","0.0-298.0","1920x1080","","3118.5","12.17","img/117/5.5/1.5/bw/001.png","","","appealing"
"","","","","","animation","299","973182","0.0-299.0","1920x1080","","2199.099999964237","100","img/238/2.5/1.5/bw/001.png","","","appealing"
"","","","","","animation","300","975180","0.0-300.0","1920x1080","","1996.2999999523163","0","img/314/5.5/1/bw/001.png","","","appealing"
"","","","","","animation","301","977180","0.0-301.0","1920x1080","","1999","4.63","img/314/5.5/1.5/bw/001.png","","","appealing"
"","","","","","animation","302","978980","0.0-302.0","1920x1080","","1799.1000000238419","38.89","img/314/4.5/0.5/bw/001.png","","","appealing"
"","","","","","animation","303","980681","0.0-303.0","1920x1080","","1700.300000011921","22.22","img/238/4.5/1.5/bw/001.png","","","appealing"
"","","","","","animation","304","983350","0.0-304.0","1920x1080","","2668.100000023842","38.23","img/238/4.5/0.5/bw/001.png","","","appealing"
"","","","","","animation","305","987055","0.0-305.0","1920x1080","","3703.100000023842","100","img/238/2.5/0.5/bw/001.png","","","appealing"
"","","","","","animation","306","990572","0.0-306.0","1920x1080","","3515.699999988079","23.15","img/117/5.5/0.5/bw/001.png","","","appealing"
"","","","","","animation","307","993880","0.0-307.0","1920x1080","","3305.7000000476837","42.99","img/314/4.5/1.5/bw/001.png","","","appealing"
"","","","","","animation","308","995853","0.0-308.0","1920x1080","","1972.6000000238419","68.92","img/314/4/2/bw/001.png","","","appealing"
"","","","","","animation","309","997980","0.0-309.0","1920x1080","","2125.5","31","img/117/5.5/1/bw/001.png","","","appealing"
"","","","","","animation","310","999918","0.0-310.0","1920x1080","","1937.199999988079","62.96","img/314/4/1.5/bw/001.png","","","appealing"
"","","","","","animation","311","1002998","0.0-311.0","1920x1080","","3076.699999988079","69.58","img/117/4/0.66667/bw/001.png","","","appealing"
"","","","","","animation","312","1006082","0.0-312.0","1920x1080","","3082.100000023842","73.68","img/238/4/0.5/bw/001.png","","","appealing"
"","","","","","html-button-response","313","1024813","0.0-313.0","1920x1080","","18728.899999976158","","<div class=""intro"">You are about to view a new series of animations.<br><br></div><div class=""intro"">You will evaluate them based on a different descriptor.<br><br></div><div class=""intro"">Move the slider to indicate how <strong style=""text-transform:capitalize"">RELAXING</strong> you find each animation.<br><br></div><div class=""intro"">0 = Least Relaxing<br></div><div class=""intro"">1 = Most Relaxing<br><br></div><div class=""intro"">Remember to use the <strong><em>entire range</em></strong> of the slider to make your ratings.<br></div><div class=""intro"">Please <strong><em>take your time</em></strong> and carefully consider each rating you make.<br><br></div>","0","",""
"","","","","","call-function","314","1024813","0.0-314.0","1920x1080","","","","","","",""
"","","","","","animation","315","1029080","0.0-315.0","1920x1080","","4265.899999976158","68.92","img/314/5.5/1.5/bw/001.png","","","relaxing"
"","","","","","animation","316","1031983","0.0-316.0","1920x1080","","2899.899999976158","27.12","img/117/3.5/1.5/bw/001.png","","","relaxing"
"","","","","","animation","317","1034081","0.0-317.0","1920x1080","","2096.900000035763","79.37","img/314/5.5/2/bw/001.png","","","relaxing"
"","","","","","animation","318","1037504","0.0-318.0","1920x1080","","3421.300000011921","69.44","img/238/5.5/1.5/bw/001.png","","","relaxing"
"","","","","","animation","319","1039064","0.0-319.0","1920x1080","","1558.8999999761581","38.62","img/117/4.5/1/bw/001.png","","","relaxing"
"","","","","","animation","320","1041392","0.0-320.0","1920x1080","","2326.900000035763","15.61","img/117/4/1/bw/001.png","","","relaxing"
"","","","","","animation","321","1047335","0.0-321.0","1920x1080","","5942.100000023842","90.21","img/314/2.5/1/bw/001.png","","","relaxing"
"","","","","","animation","322","1049014","0.0-322.0","1920x1080","","1676.8999999761581","87.17","img/314/2.5/2/bw/001.png","","","relaxing"
"","","","","","animation","323","1051999","0.0-323.0","1920x1080","","2983.7999999523163","79.37","img/238/5.5/0.66667/bw/001.png","","","relaxing"
"","","","","","animation","324","1054148","0.0-324.0","1920x1080","","2146.699999988079","11.11","img/117/3.5/0.5/bw/001.png","","","relaxing"
"","","","","","animation","325","1056264","0.0-325.0","1920x1080","","2115.5","31.75","img/117/4/1.5/bw/001.png","","","relaxing"
"","","","","","animation","326","1059998","0.0-326.0","1920x1080","","3732.300000011921","88","img/238/5.5/0.5/bw/001.png","","","relaxing"
"","","","","","animation","327","1062298","0.0-327.0","1920x1080","","2298.900000035763","22.35","img/117/4/0.5/bw/001.png","","","relaxing"
"","","","","","animation","328","1064799","0.0-328.0","1920x1080","","2500.300000011921","12.57","img/314/4/1.5/bw/001.png","","","relaxing"
"","","","","","animation","329","1067380","0.0-329.0","1920x1080","","2579.5","90.48","img/117/2.5/0.66667/bw/001.png","","","relaxing"
"","","","","","animation","330","1070247","0.0-330.0","1920x1080","","2865.800000011921","53.17","img/314/5.5/0.5/bw/001.png","","","relaxing"
"","","","","","animation","331","1071954","0.0-331.0","1920x1080","","1705","35.98","img/117/4.5/0.66667/bw/001.png","","","relaxing"
"","","","","","animation","332","1074567","0.0-332.0","1920x1080","","2612.699999988079","99","img/238/2.5/1.5/bw/001.png","","","relaxing"
"","","","","","animation","333","1077967","0.0-333.0","1920x1080","","3398.100000023842","46","img/117/5.5/0.5/bw/001.png","","","relaxing"
"","","","","","animation","334","1080415","0.0-334.0","1920x1080","","2445.899999976158","62.70","img/117/3.5/2/bw/001.png","","","relaxing"
"","","","","","animation","335","1082315","0.0-335.0","1920x1080","","1898.5","27.38","img/238/3.5/0.66667/bw/001.png","","","relaxing"
"","","","","","animation","336","1084741","0.0-336.0","1920x1080","","2425.7999999523163","64.15","img/117/4/2/bw/001.png","","","relaxing"
"","","","","","animation","337","1087344","0.0-337.0","1920x1080","","2601.399999976158","90.21","img/238/5.5/2/bw/001.png","","","relaxing"
"","","","","","animation","338","1090031","0.0-338.0","1920x1080","","2686.400000035763","97","img/314/5.5/1/bw/001.png","","","relaxing"
"","","","","","animation","339","1092965","0.0-339.0","1920x1080","","2932.400000035763","5.69","img/238/3.5/1/bw/001.png","","","relaxing"
"","","","","","animation","340","1095015","0.0-340.0","1920x1080","","2046.3999999761581","0.79","img/238/4/0.66667/bw/001.png","","","relaxing"
"","","","","","animation","341","1097921","0.0-341.0","1920x1080","","2904.400000035763","56.08","img/117/5.5/1.5/bw/001.png","","","relaxing"
"","","","","","animation","342","1100101","0.0-342.0","1920x1080","","2178.900000035763","26.32","img/314/3.5/1/bw/001.png","","","relaxing"
"","","","","","animation","343","1104167","0.0-343.0","1920x1080","","4065.100000023842","10.58","img/238/3.5/0.5/bw/001.png","","","relaxing"
"","","","","","animation","344","1108767","0.0-344.0","1920x1080","","4598.699999988079","48.68","img/314/3.5/1.5/bw/001.png","","","relaxing"
"","","","","","animation","345","1110831","0.0-345.0","1920x1080","","2063.100000023842","25.40","img/314/4/0.66667/bw/001.png","","","relaxing"
"","","","","","animation","346","1113598","0.0-346.0","1920x1080","","2765.199999988079","63.49","img/117/4.5/1.5/bw/001.png","","","relaxing"
"","","","","","animation","347","1115435","0.0-347.0","1920x1080","","1836.0999999642372","87.30","img/314/5.5/0.66667/bw/001.png","","","relaxing"
"","","","","","animation","348","1120531","0.0-348.0","1920x1080","","5095.100000023842","99","img/314/2.5/0.5/bw/001.png","","","relaxing"
"","","","","","animation","349","1123315","0.0-349.0","1920x1080","","2782.099999964237","100","img/238/2.5/2/bw/001.png","","","relaxing"
"","","","","","animation","350","1126681","0.0-350.0","1920x1080","","3365.2999999523163","64.29","img/117/4.5/2/bw/001.png","","","relaxing"
"","","","","","animation","351","1129187","0.0-351.0","1920x1080","","2504.800000011921","41.53","img/238/4.5/1/bw/001.png","","","relaxing"
"","","","","","animation","352","1131615","0.0-352.0","1920x1080","","2426.199999988079","13.23","img/314/3.5/0.66667/bw/001.png","","","relaxing"
"","","","","","animation","353","1134783","0.0-353.0","1920x1080","","3167.300000011921","60.85","img/314/3.5/2/bw/001.png","","","relaxing"
"","","","","","animation","354","1138647","0.0-354.0","1920x1080","","3862.7999999523163","36.51","img/238/4/1.5/bw/001.png","","","relaxing"
"","","","","","animation","355","1140965","0.0-355.0","1920x1080","","2316.399999976158","99","img/117/2.5/2/bw/001.png","","","relaxing"
"","","","","","animation","356","1142953","0.0-356.0","1920x1080","","1987.0999999642372","15.61","img/238/4/0.5/bw/001.png","","","relaxing"
"","","","","","animation","357","1146199","0.0-357.0","1920x1080","","3245","94.18","img/314/2.5/0.66667/bw/001.png","","","relaxing"
"","","","","","animation","358","1148217","0.0-358.0","1920x1080","","2015.699999988079","34.79","img/314/4.5/1/bw/001.png","","","relaxing"
"","","","","","animation","359","1150665","0.0-359.0","1920x1080","","2446.7000000476837","33.99","img/314/4.5/1.5/bw/001.png","","","relaxing"
"","","","","","animation","360","1155135","0.0-360.0","1920x1080","","4469.199999988079","65.61","img/238/3.5/1.5/bw/001.png","","","relaxing"
"","","","","","animation","361","1157619","0.0-361.0","1920x1080","","2483.300000011921","84.39","img/117/5.5/0.66667/bw/001.png","","","relaxing"
"","","","","","animation","362","1160319","0.0-362.0","1920x1080","","2698.599999964237","91.67","img/238/2.5/0.66667/bw/001.png","","","relaxing"
"","","","","","animation","363","1162432","0.0-363.0","1920x1080","","2111","97","img/238/2.5/0.5/bw/001.png","","","relaxing"
"","","","","","animation","364","1164351","0.0-364.0","1920x1080","","1917.5","50.13","img/117/3.5/1/bw/001.png","","","relaxing"
"","","","","","animation","365","1167606","0.0-365.0","1920x1080","","3254","100","img/117/2.5/1.5/bw/001.png","","","relaxing"
"","","","","","animation","366","1170284","0.0-366.0","1920x1080","","2676.399999976158","100","img/238/5.5/1/bw/001.png","","","relaxing"
"","","","","","animation","367","1172615","0.0-367.0","1920x1080","","2329.2000000476837","25.79","img/238/4.5/1.5/bw/001.png","","","relaxing"
"","","","","","animation","368","1175232","0.0-368.0","1920x1080","","2616.199999988079","19.05","img/314/4/1/bw/001.png","","","relaxing"
"","","","","","animation","369","1177231","0.0-369.0","1920x1080","","1997.699999988079","56.48","img/117/5.5/2/bw/001.png","","","relaxing"
"","","","","","animation","370","1179615","0.0-370.0","1920x1080","","2382.899999976158","33.99","img/314/4.5/0.66667/bw/001.png","","","relaxing"
"","","","","","animation","371","1184319","0.0-371.0","1920x1080","","4698.900000035763","13","img/314/3.5/0.5/bw/001.png","","","relaxing"
"","","","","","animation","372","1186353","0.0-372.0","1920x1080","","2032.5","22.62","img/314/4/0.5/bw/001.png","","","relaxing"
"","","","","","animation","373","1188832","0.0-373.0","1920x1080","","2477.5","10.19","img/238/4.5/0.66667/bw/001.png","","","relaxing"
"","","","","","animation","374","1191107","0.0-374.0","1920x1080","","2273.800000011921","4.76","img/238/4.5/0.5/bw/001.png","","","relaxing"
"","","","","","animation","375","1194380","0.0-375.0","1920x1080","","3272.600000023842","64.02","img/117/5.5/1/bw/001.png","","","relaxing"
"","","","","","animation","376","1196135","0.0-376.0","1920x1080","","1752.800000011921","9.79","img/117/4/0.66667/bw/001.png","","","relaxing"
"","","","","","animation","377","1198215","0.0-377.0","1920x1080","","2076.400000035763","100","img/117/2.5/0.5/bw/001.png","","","relaxing"
"","","","","","animation","378","1200237","0.0-378.0","1920x1080","","2020.2000000476837","24.74","img/117/4.5/0.5/bw/001.png","","","relaxing"
"","","","","","animation","379","1202707","0.0-379.0","1920x1080","","2469.199999988079","15.08","img/314/4.5/0.5/bw/001.png","","","relaxing"
"","","","","","animation","380","1205297","0.0-380.0","1920x1080","","2588.800000011921","96","img/238/2.5/1/bw/001.png","","","relaxing"
"","","","","","animation","381","1207351","0.0-381.0","1920x1080","","2052.300000011921","24.47","img/238/4.5/2/bw/001.png","","","relaxing"
"","","","","","animation","382","1209064","0.0-382.0","1920x1080","","1711.5","14.42","img/238/4/2/bw/001.png","","","relaxing"
"","","","","","animation","383","1211864","0.0-383.0","1920x1080","","2798.699999988079","9.26","img/314/4/2/bw/001.png","","","relaxing"
"","","","","","animation","384","1217708","0.0-384.0","1920x1080","","5841.399999976158","64.55","img/117/3.5/0.66667/bw/001.png","","","relaxing"
"","","","","","animation","385","1219881","0.0-385.0","1920x1080","","2169.699999988079","100","img/117/2.5/1/bw/001.png","","","relaxing"
"","","","","","animation","386","1222315","0.0-386.0","1920x1080","","2433","18.78","img/314/4.5/2/bw/001.png","","","relaxing"
"","","","","","animation","387","1224135","0.0-387.0","1920x1080","","1819.1000000238419","35.45","img/238/4/1/bw/001.png","","","relaxing"
"","","","","","animation","388","1226733","0.0-388.0","1920x1080","","2596","65.74","img/238/3.5/2/bw/001.png","","","relaxing"
"","","","","","animation","389","1229549","0.0-389.0","1920x1080","","2814.699999988079","96","img/314/2.5/1.5/bw/001.png","","","relaxing"
"","","","","","html-button-response","390","1233516","0.0-390.0","1920x1080","","3965.100000023842","","<strong>Study Debriefing</strong><br><p class=""debrief""><strong>Background:</strong> The patterns you rated are called <em>fractals</em>. The term fractal describes a class of irregular curves or shapes for which any suitably chosen part is similar in shape to a given larger or smaller part when magnified or reduced to the same size. Fractal properties are found throughout the natural and manmade world. The series of animations you saw today displayed animated fractal patterns of a varying complexity.</p><p class=""debrief""><strong>Purpose of this study:</strong> We hope to better understand how the perception of static fractals differs from the perception of animated fractals, and how the speed of the animated patterns influences people&apos;s perception of them. Fractals allow us to study the perception of aesthetic properties (e.g. the perceived level of beauty in an image) without using recognizable content, which makes them an excellent tool for studying abstract aesthetic judgement.</p><p class=""debrief""><strong>Your part:</strong> Your participation has helped us to further understand how humans perceive these patterns across different levels of speed and complexity. This research with allow us to better understand how the visual system and brain process our ever-changing visual environments.<p class=""debrief""><strong>Feedback and Further information:</strong> If you have additional questions about this study, please feel free to ask the researcher, Nathan Gonzales-Hess at nhess @ uoregon.edu. If you have any questions concerning your rights as a research participant, please contact Research Compliance Services, 5237 University of Oregon, Eugene, OR 97403, 541-346-2510, or email researchCompliance @ uoregon.edu. You can also email the Human Subjects Coordinator for psychology and linguistics research at hscoord @ uoregon.edu. ","0","",""
"","","","","","html-button-response","391","1239318","0.0-391.0","1920x1080","","5799.599999964237","","Thank you for participating in this study. <br>Please click below to finish the experiment and submit your responses.<br><br>","0","",""
"true","","","","","fullscreen","392","1240325","0.0-392.0","1920x1080","15:50 26/5/2022","","","","","",""
