"success","timeout","failed_images","failed_audio","failed_video","trial_type","trial_index","time_elapsed","internal_node_id","resolution","timeStamp","rt","response","stimulus","button_pressed","value","descriptor"
"true","false","[]","[]","[]","preload","0","4634","0.0-0.0","1920x1080","","","","","","",""
"true","false","[]","[]","[]","preload","1","10810","0.0-1.0","1920x1080","","","","","","",""
"true","false","[]","[]","[]","preload","2","16903","0.0-2.0","1920x1080","","","","","","",""
"true","","","","","fullscreen","3","379442","0.0-3.0","1920x1080","14:59 12/10/2022","","","","","",""
"","","","","","survey-html-form","4","391446","0.0-4.0","1920x1080","","11999.899999976158","{""age"":""18"",""gender"":""female""}","","","",""
"","","","","","html-button-response","5","463862","0.0-5.0","1920x1080","","72415.19999998808","","<div class=""complex"">You are going to see a series of animations.<br><br></div><div class=""complex"">Move the slider to indicate how <strong style=""text-transform:capitalize"">COMPLEX</strong> you find each animation.<br><br></div><div class=""complex"">0 = Least Complex<br></div><div class=""complex"">1 = Most Complex<br><br></div><div class=""complex"">Remember to use the <strong><em>entire range</em></strong> of the slider to make your ratings.<br></div><div class=""complex"">Please <strong><em>take your time</em></strong> and carefully consider each rating you make.<br><br></div><div class=""complex"">The study has five sections and will take about 45 minutes to complete.<br><br></div>","0","",""
"","","","","","call-function","6","463863","0.0-6.0","1920x1080","","","","","","",""
"","","","","","animation","7","474150","0.0-7.0","1920x1080","","10285.699999988079","14.81","img/238/2.5/1.5/bw/001.png","","","complex"
"","","","","","animation","8","480533","0.0-8.0","1920x1080","","6383","5.29","img/314/4/0.5/bw/001.png","","","complex"
"","","","","","animation","9","487878","0.0-9.0","1920x1080","","7344","12.43","img/314/3.5/0.5/bw/001.png","","","complex"
"","","","","","animation","10","493102","0.0-10.0","1920x1080","","5222.800000011921","6.22","img/238/4/2/bw/001.png","","","complex"
"","","","","","animation","11","497990","0.0-11.0","1920x1080","","4887.200000047684","21.03","img/314/2.5/2/bw/001.png","","","complex"
"","","","","","animation","12","509414","0.0-12.0","1920x1080","","11423.699999988079","10","img/117/3.5/1/bw/001.png","","","complex"
"","","","","","animation","13","513534","0.0-13.0","1920x1080","","4118.699999988079","21.30","img/117/2.5/0.66667/bw/001.png","","","complex"
"","","","","","animation","14","518782","0.0-14.0","1920x1080","","5247.199999988079","21.96","img/117/2.5/1.5/bw/001.png","","","complex"
"","","","","","animation","15","522438","0.0-15.0","1920x1080","","3655.5","4.23","img/238/4.5/2/bw/001.png","","","complex"
"","","","","","animation","16","531765","0.0-16.0","1920x1080","","9326.600000023842","8.33","img/117/5.5/0.5/bw/001.png","","","complex"
"","","","","","animation","17","537294","0.0-17.0","1920x1080","","5527.899999976158","16.40","img/117/3.5/0.5/bw/001.png","","","complex"
"","","","","","animation","18","542942","0.0-18.0","1920x1080","","5647.099999964237","16.01","img/314/4/1/bw/001.png","","","complex"
"","","","","","animation","19","546478","0.0-19.0","1920x1080","","3535","18.65","img/117/4/1.5/bw/001.png","","","complex"
"","","","","","animation","20","550414","0.0-20.0","1920x1080","","3932.300000011921","14.95","img/117/4/0.66667/bw/001.png","","","complex"
"","","","","","animation","21","555014","0.0-21.0","1920x1080","","4600","11.90","img/117/4/1/bw/001.png","","","complex"
"","","","","","animation","22","560462","0.0-22.0","1920x1080","","5446.700000047684","10.45","img/238/4.5/0.5/bw/001.png","","","complex"
"","","","","","animation","23","564365","0.0-23.0","1920x1080","","3902.900000035763","11.38","img/314/5.5/0.5/bw/001.png","","","complex"
"","","","","","animation","24","569422","0.0-24.0","1920x1080","","5055.700000047684","5.95","img/117/5.5/1/bw/001.png","","","complex"
"","","","","","animation","25","574054","0.0-25.0","1920x1080","","4631.300000011921","7.67","img/238/4.5/0.66667/bw/001.png","","","complex"
"","","","","","animation","26","577774","0.0-26.0","1920x1080","","3719.100000023842","26.32","img/238/3.5/0.5/bw/001.png","","","complex"
"","","","","","animation","27","585747","0.0-27.0","1920x1080","","7974.899999976158","3.84","img/314/5.5/1.5/bw/001.png","","","complex"
"","","","","","animation","28","589003","0.0-28.0","1920x1080","","3255.600000023842","26.19","img/314/2.5/0.5/bw/001.png","","","complex"
"","","","","","animation","29","595187","0.0-29.0","1920x1080","","6182.5","8.20","img/238/5.5/1.5/bw/001.png","","","complex"
"","","","","","animation","30","598891","0.0-30.0","1920x1080","","3703.099999964237","21.56","img/238/2.5/0.5/bw/001.png","","","complex"
"","","","","","animation","31","603659","0.0-31.0","1920x1080","","4767.300000011921","24.07","img/117/2.5/2/bw/001.png","","","complex"
"","","","","","animation","32","607683","0.0-32.0","1920x1080","","4022.899999976158","23.02","img/314/2.5/1.5/bw/001.png","","","complex"
"","","","","","animation","33","610235","0.0-33.0","1920x1080","","2551.300000011921","25.79","img/238/2.5/2/bw/001.png","","","complex"
"","","","","","animation","34","612867","0.0-34.0","1920x1080","","2631.2999999523163","8.33","img/238/5.5/0.5/bw/001.png","","","complex"
"","","","","","animation","35","616645","0.0-35.0","1920x1080","","3777.100000023842","12","img/314/4.5/1.5/bw/001.png","","","complex"
"","","","","","animation","36","620645","0.0-36.0","1920x1080","","3999.2000000476837","11.24","img/117/5.5/1.5/bw/001.png","","","complex"
"","","","","","animation","37","623515","0.0-37.0","1920x1080","","2869.300000011921","9.66","img/238/4/0.66667/bw/001.png","","","complex"
"","","","","","animation","38","626619","0.0-38.0","1920x1080","","3103.100000023842","14.29","img/314/4/2/bw/001.png","","","complex"
"","","","","","animation","39","631091","0.0-39.0","1920x1080","","4471.299999952316","8.07","img/117/5.5/0.66667/bw/001.png","","","complex"
"","","","","","animation","40","634196","0.0-40.0","1920x1080","","3103.800000011921","7.01","img/117/5.5/2/bw/001.png","","","complex"
"","","","","","animation","41","637683","0.0-41.0","1920x1080","","3486.199999988079","18.12","img/238/2.5/1/bw/001.png","","","complex"
"","","","","","animation","42","643985","0.0-42.0","1920x1080","","6303.399999976158","10.58","img/314/4.5/2/bw/001.png","","","complex"
"","","","","","animation","43","647464","0.0-43.0","1920x1080","","3478.399999976158","4.37","img/238/5.5/2/bw/001.png","","","complex"
"","","","","","animation","44","655065","0.0-44.0","1920x1080","","7599.5","12","img/238/4.5/1.5/bw/001.png","","","complex"
"","","","","","animation","45","658209","0.0-45.0","1920x1080","","3143.599999964237","29.63","img/238/2.5/0.66667/bw/001.png","","","complex"
"","","","","","animation","46","663827","0.0-46.0","1920x1080","","5617.200000047684","14.29","img/117/4.5/1/bw/001.png","","","complex"
"","","","","","animation","47","666912","0.0-47.0","1920x1080","","3084","14.55","img/314/4.5/0.66667/bw/001.png","","","complex"
"","","","","","animation","48","669881","0.0-48.0","1920x1080","","2967.399999976158","28.44","img/314/2.5/0.66667/bw/001.png","","","complex"
"","","","","","animation","49","673761","0.0-49.0","1920x1080","","3879.199999988079","14.68","img/238/4/0.5/bw/001.png","","","complex"
"","","","","","animation","50","677609","0.0-50.0","1920x1080","","3847.7000000476837","17.72","img/314/3.5/1.5/bw/001.png","","","complex"
"","","","","","animation","51","680937","0.0-51.0","1920x1080","","3326.699999988079","20.63","img/238/3.5/1/bw/001.png","","","complex"
"","","","","","animation","52","684657","0.0-52.0","1920x1080","","3719.300000011921","18.65","img/117/3.5/2/bw/001.png","","","complex"
"","","","","","animation","53","690289","0.0-53.0","1920x1080","","5630.599999964237","16","img/238/4/1.5/bw/001.png","","","complex"
"","","","","","animation","54","694210","0.0-54.0","1920x1080","","3920.600000023842","4.10","img/238/5.5/1/bw/001.png","","","complex"
"","","","","","animation","55","697657","0.0-55.0","1920x1080","","3445.5","7.54","img/314/5.5/0.66667/bw/001.png","","","complex"
"","","","","","animation","56","702321","0.0-56.0","1920x1080","","4662.899999976158","23.54","img/238/3.5/2/bw/001.png","","","complex"
"","","","","","animation","57","706448","0.0-57.0","1920x1080","","4120.800000011921","28.31","img/314/3.5/2/bw/001.png","","","complex"
"","","","","","animation","58","710566","0.0-58.0","1920x1080","","4117.399999976158","25.40","img/314/4.5/0.5/bw/001.png","","","complex"
"","","","","","animation","59","713270","0.0-59.0","1920x1080","","2702.5","20.77","img/117/3.5/1.5/bw/001.png","","","complex"
"","","","","","animation","60","717918","0.0-60.0","1920x1080","","4646.899999976158","20.11","img/117/4/0.5/bw/001.png","","","complex"
"","","","","","animation","61","720206","0.0-61.0","1920x1080","","2287.7999999523163","23.54","img/117/4.5/0.5/bw/001.png","","","complex"
"","","","","","animation","62","722054","0.0-62.0","1920x1080","","1846.7000000476837","28.31","img/117/4.5/1.5/bw/001.png","","","complex"
"","","","","","animation","63","727974","0.0-63.0","1920x1080","","5919.099999964237","20","img/117/4.5/2/bw/001.png","","","complex"
"","","","","","animation","64","731174","0.0-64.0","1920x1080","","3198.600000023842","11.24","img/314/5.5/1/bw/001.png","","","complex"
"","","","","","animation","65","734822","0.0-65.0","1920x1080","","3647.2000000476837","18.92","img/314/3.5/1/bw/001.png","","","complex"
"","","","","","animation","66","737742","0.0-66.0","1920x1080","","2919.199999988079","15.61","img/314/4/1.5/bw/001.png","","","complex"
"","","","","","animation","67","742222","0.0-67.0","1920x1080","","4478.700000047684","10.45","img/238/5.5/0.66667/bw/001.png","","","complex"
"","","","","","animation","68","751400","0.0-68.0","1920x1080","","9175.699999988079","22.88","img/238/4/1/bw/001.png","","","complex"
"","","","","","animation","69","754065","0.0-69.0","1920x1080","","2664.7000000476837","23.68","img/238/3.5/1.5/bw/001.png","","","complex"
"","","","","","animation","70","758038","0.0-70.0","1920x1080","","3971.600000023842","18.92","img/117/4/2/bw/001.png","","","complex"
"","","","","","animation","71","763741","0.0-71.0","1920x1080","","5703","31.75","img/117/2.5/1/bw/001.png","","","complex"
"","","","","","animation","72","769525","0.0-72.0","1920x1080","","5783.100000023842","15.74","img/314/4.5/1/bw/001.png","","","complex"
"","","","","","animation","73","773725","0.0-73.0","1920x1080","","4198.799999952316","21.96","img/238/3.5/0.66667/bw/001.png","","","complex"
"","","","","","animation","74","777852","0.0-74.0","1920x1080","","4126.600000023842","20.63","img/117/4.5/0.66667/bw/001.png","","","complex"
"","","","","","animation","75","783693","0.0-75.0","1920x1080","","5839.399999976158","18.39","img/238/4.5/1/bw/001.png","","","complex"
"","","","","","animation","76","789125","0.0-76.0","1920x1080","","5430.099999964237","14.81","img/314/5.5/2/bw/001.png","","","complex"
"","","","","","animation","77","798981","0.0-77.0","1920x1080","","9855.5","29.10","img/314/2.5/1/bw/001.png","","","complex"
"","","","","","animation","78","801869","0.0-78.0","1920x1080","","2886.099999964237","26","img/314/3.5/0.66667/bw/001.png","","","complex"
"","","","","","animation","79","804837","0.0-79.0","1920x1080","","2967.099999964237","23.02","img/314/4/0.66667/bw/001.png","","","complex"
"","","","","","animation","80","808582","0.0-80.0","1920x1080","","3743.7000000476837","23.94","img/117/3.5/0.66667/bw/001.png","","","complex"
"","","","","","animation","81","815284","0.0-81.0","1920x1080","","6701.899999976158","34.66","img/117/2.5/0.5/bw/001.png","","","complex"
"","","","","","html-button-response","82","834671","0.0-82.0","1920x1080","","19383.400000035763","","<div class=""intro"">You are about to view a new series of animations.<br><br></div><div class=""intro"">You will evaluate them based on a different descriptor.<br><br></div><div class=""intro"">Move the slider to indicate how <strong style=""text-transform:capitalize"">NATURAL</strong> you find each animation.<br><br></div><div class=""intro"">0 = Least Natural<br></div><div class=""intro"">1 = Most Natural<br><br></div><div class=""intro"">Remember to use the <strong><em>entire range</em></strong> of the slider to make your ratings.<br></div><div class=""intro"">Please <strong><em>take your time</em></strong> and carefully consider each rating you make.<br><br></div>","0","",""
"","","","","","call-function","83","834672","0.0-83.0","1920x1080","","","","","","",""
"","","","","","animation","84","845286","0.0-84.0","1920x1080","","10613.799999952316","88.76","img/117/5.5/1/bw/001.png","","","natural"
"","","","","","animation","85","852286","0.0-85.0","1920x1080","","6998.099999964237","34.39","img/314/4.5/2/bw/001.png","","","natural"
"","","","","","animation","86","856583","0.0-86.0","1920x1080","","4294.800000011921","89.55","img/238/5.5/0.66667/bw/001.png","","","natural"
"","","","","","animation","87","861466","0.0-87.0","1920x1080","","4882.600000023842","20","img/238/3.5/0.66667/bw/001.png","","","natural"
"","","","","","animation","88","866191","0.0-88.0","1920x1080","","4723.199999988079","88.62","img/238/5.5/1/bw/001.png","","","natural"
"","","","","","animation","89","869959","0.0-89.0","1920x1080","","3766.800000011921","84.66","img/117/5.5/2/bw/001.png","","","natural"
"","","","","","animation","90","873118","0.0-90.0","1920x1080","","3158.399999976158","30.03","img/314/3.5/1/bw/001.png","","","natural"
"","","","","","animation","91","877534","0.0-91.0","1920x1080","","4415","32.94","img/238/4/2/bw/001.png","","","natural"
"","","","","","animation","92","880375","0.0-92.0","1920x1080","","2839.5","71.43","img/117/5.5/1.5/bw/001.png","","","natural"
"","","","","","animation","93","883394","0.0-93.0","1920x1080","","3023","27.78","img/238/3.5/1.5/bw/001.png","","","natural"
"","","","","","animation","94","887945","0.0-94.0","1920x1080","","4550.5","14.81","img/238/4/0.5/bw/001.png","","","natural"
"","","","","","animation","95","894713","0.0-95.0","1920x1080","","6766.899999976158","22.09","img/314/4/1.5/bw/001.png","","","natural"
"","","","","","animation","96","898529","0.0-96.0","1920x1080","","3814.699999988079","14.95","img/314/3.5/0.5/bw/001.png","","","natural"
"","","","","","animation","97","901969","0.0-97.0","1920x1080","","3439.199999988079","16.53","img/117/3.5/0.66667/bw/001.png","","","natural"
"","","","","","animation","98","906834","0.0-98.0","1920x1080","","4863.200000047684","32.80","img/314/4.5/1/bw/001.png","","","natural"
"","","","","","animation","99","911097","0.0-99.0","1920x1080","","4262.599999964237","7.01","img/117/2.5/0.66667/bw/001.png","","","natural"
"","","","","","animation","100","913602","0.0-100.0","1920x1080","","2503.599999964237","7.80","img/314/2.5/1/bw/001.png","","","natural"
"","","","","","animation","101","922818","0.0-101.0","1920x1080","","9215","78","img/314/5.5/0.5/bw/001.png","","","natural"
"","","","","","animation","102","927354","0.0-102.0","1920x1080","","4534.800000011921","96","img/238/5.5/1.5/bw/001.png","","","natural"
"","","","","","animation","103","930427","0.0-103.0","1920x1080","","3071.800000011921","40.87","img/117/3.5/1.5/bw/001.png","","","natural"
"","","","","","animation","104","933634","0.0-104.0","1920x1080","","3205.400000035763","39.55","img/117/4/1.5/bw/001.png","","","natural"
"","","","","","animation","105","937833","0.0-105.0","1920x1080","","4198.100000023842","87.43","img/117/5.5/0.5/bw/001.png","","","natural"
"","","","","","animation","106","941418","0.0-106.0","1920x1080","","3583","86.90","img/314/5.5/0.66667/bw/001.png","","","natural"
"","","","","","animation","107","944952","0.0-107.0","1920x1080","","3534.800000011921","30.95","img/117/3.5/1/bw/001.png","","","natural"
"","","","","","animation","108","947032","0.0-108.0","1920x1080","","2079.100000023842","34.66","img/314/4/0.66667/bw/001.png","","","natural"
"","","","","","animation","109","951209","0.0-109.0","1920x1080","","4176.300000011921","90.08","img/238/5.5/2/bw/001.png","","","natural"
"","","","","","animation","110","954327","0.0-110.0","1920x1080","","3117.100000023842","23.94","img/314/4.5/1.5/bw/001.png","","","natural"
"","","","","","animation","111","957184","0.0-111.0","1920x1080","","2853.900000035763","86.90","img/117/5.5/0.66667/bw/001.png","","","natural"
"","","","","","animation","112","963327","0.0-112.0","1920x1080","","6142.399999976158","97","img/314/5.5/2/bw/001.png","","","natural"
"","","","","","animation","113","969127","0.0-113.0","1920x1080","","5798.800000011921","44.05","img/238/4.5/1/bw/001.png","","","natural"
"","","","","","animation","114","972659","0.0-114.0","1920x1080","","3530.400000035763","36.51","img/238/4/1.5/bw/001.png","","","natural"
"","","","","","animation","115","975343","0.0-115.0","1920x1080","","2683.400000035763","32.14","img/238/3.5/1/bw/001.png","","","natural"
"","","","","","animation","116","978361","0.0-116.0","1920x1080","","3016.899999976158","43.52","img/117/4.5/1/bw/001.png","","","natural"
"","","","","","animation","117","982152","0.0-117.0","1920x1080","","3788.7000000476837","45.50","img/117/4.5/2/bw/001.png","","","natural"
"","","","","","animation","118","985768","0.0-118.0","1920x1080","","3615.100000023842","11.51","img/238/2.5/0.66667/bw/001.png","","","natural"
"","","","","","animation","119","989232","0.0-119.0","1920x1080","","3462.5","10.71","img/314/2.5/0.5/bw/001.png","","","natural"
"","","","","","animation","120","992042","0.0-120.0","1920x1080","","2809.7000000476837","24.74","img/117/4/0.66667/bw/001.png","","","natural"
"","","","","","animation","121","1003581","0.0-121.0","1920x1080","","11540.5","53","img/238/4.5/2/bw/001.png","","","natural"
"","","","","","animation","122","1009533","0.0-122.0","1920x1080","","5951","34","img/117/4/0.5/bw/001.png","","","natural"
"","","","","","animation","123","1013991","0.0-123.0","1920x1080","","4456.5","14.15","img/117/2.5/2/bw/001.png","","","natural"
"","","","","","animation","124","1016973","0.0-124.0","1920x1080","","2981.100000023842","12.04","img/117/2.5/1/bw/001.png","","","natural"
"","","","","","animation","125","1019893","0.0-125.0","1920x1080","","2918.900000035763","29.37","img/238/3.5/2/bw/001.png","","","natural"
"","","","","","animation","126","1023029","0.0-126.0","1920x1080","","3135","11.51","img/238/2.5/1.5/bw/001.png","","","natural"
"","","","","","animation","127","1029301","0.0-127.0","1920x1080","","6270.5","90.34","img/314/5.5/1.5/bw/001.png","","","natural"
"","","","","","animation","128","1032333","0.0-128.0","1920x1080","","3030.5","10.98","img/117/2.5/0.5/bw/001.png","","","natural"
"","","","","","animation","129","1036317","0.0-129.0","1920x1080","","3983","35.85","img/314/4.5/0.66667/bw/001.png","","","natural"
"","","","","","animation","130","1039875","0.0-130.0","1920x1080","","3556.5","37.96","img/117/4/2/bw/001.png","","","natural"
"","","","","","animation","131","1045875","0.0-131.0","1920x1080","","5999.300000011921","27.91","img/117/3.5/0.5/bw/001.png","","","natural"
"","","","","","animation","132","1052041","0.0-132.0","1920x1080","","6164","85.05","img/238/5.5/0.5/bw/001.png","","","natural"
"","","","","","animation","133","1056101","0.0-133.0","1920x1080","","4059","38.36","img/314/4/2/bw/001.png","","","natural"
"","","","","","animation","134","1060375","0.0-134.0","1920x1080","","4272.5","27.12","img/314/3.5/1.5/bw/001.png","","","natural"
"","","","","","animation","135","1064914","0.0-135.0","1920x1080","","4532.700000047684","29.23","img/238/4/0.66667/bw/001.png","","","natural"
"","","","","","animation","136","1067395","0.0-136.0","1920x1080","","2479.800000011921","28.44","img/314/4/1/bw/001.png","","","natural"
"","","","","","animation","137","1069930","0.0-137.0","1920x1080","","2533.5","22.75","img/117/3.5/2/bw/001.png","","","natural"
"","","","","","animation","138","1073446","0.0-138.0","1920x1080","","3515.099999964237","38.76","img/117/4.5/0.66667/bw/001.png","","","natural"
"","","","","","animation","139","1076298","0.0-139.0","1920x1080","","2850.699999988079","30.56","img/238/4/1/bw/001.png","","","natural"
"","","","","","animation","140","1078818","0.0-140.0","1920x1080","","2519.199999988079","32","img/238/3.5/0.5/bw/001.png","","","natural"
"","","","","","animation","141","1083379","0.0-141.0","1920x1080","","4559.599999964237","11.51","img/238/2.5/0.5/bw/001.png","","","natural"
"","","","","","animation","142","1085896","0.0-142.0","1920x1080","","2515.300000011921","14.95","img/314/2.5/2/bw/001.png","","","natural"
"","","","","","animation","143","1088962","0.0-143.0","1920x1080","","3065.100000023842","15.74","img/238/2.5/2/bw/001.png","","","natural"
"","","","","","animation","144","1095002","0.0-144.0","1920x1080","","6039.5","46","img/117/4.5/0.5/bw/001.png","","","natural"
"","","","","","animation","145","1107138","0.0-145.0","1920x1080","","12134.800000011921","47","img/117/4.5/1.5/bw/001.png","","","natural"
"","","","","","animation","146","1115538","0.0-146.0","1920x1080","","8398.800000011921","43.92","img/238/4.5/1.5/bw/001.png","","","natural"
"","","","","","animation","147","1120602","0.0-147.0","1920x1080","","5061.800000011921","8.20","img/314/2.5/0.66667/bw/001.png","","","natural"
"","","","","","animation","148","1124337","0.0-148.0","1920x1080","","3734.899999976158","6.22","img/238/2.5/1/bw/001.png","","","natural"
"","","","","","animation","149","1127505","0.0-149.0","1920x1080","","3166.7999999523163","20.90","img/314/3.5/2/bw/001.png","","","natural"
"","","","","","animation","150","1133562","0.0-150.0","1920x1080","","6055.600000023842","36.64","img/314/4.5/0.5/bw/001.png","","","natural"
"","","","","","animation","151","1136695","0.0-151.0","1920x1080","","3131.100000023842","28.44","img/314/4/0.5/bw/001.png","","","natural"
"","","","","","animation","152","1150427","0.0-152.0","1920x1080","","13731.400000035763","63","img/314/5.5/1/bw/001.png","","","natural"
"","","","","","animation","153","1159378","0.0-153.0","1920x1080","","8949.399999976158","37","img/117/4/1/bw/001.png","","","natural"
"","","","","","animation","154","1167305","0.0-154.0","1920x1080","","7926.199999988079","47.22","img/238/4.5/0.5/bw/001.png","","","natural"
"","","","","","animation","155","1170196","0.0-155.0","1920x1080","","2888.899999976158","37.43","img/314/3.5/0.66667/bw/001.png","","","natural"
"","","","","","animation","156","1173849","0.0-156.0","1920x1080","","3651.899999976158","10.98","img/117/2.5/1.5/bw/001.png","","","natural"
"","","","","","animation","157","1179045","0.0-157.0","1920x1080","","5194.199999988079","9.26","img/314/2.5/1.5/bw/001.png","","","natural"
"","","","","","animation","158","1185448","0.0-158.0","1920x1080","","6400.300000011921","43.52","img/238/4.5/0.66667/bw/001.png","","","natural"
"","","","","","html-button-response","159","1204443","0.0-159.0","1920x1080","","18993.600000023842","","<div class=""intro"">You are about to view a new series of animations.<br><br></div><div class=""intro"">You will evaluate them based on a different descriptor.<br><br></div><div class=""intro"">Move the slider to indicate how <strong style=""text-transform:capitalize"">APPEALING</strong> you find each animation.<br><br></div><div class=""intro"">0 = Least Appealing<br></div><div class=""intro"">1 = Most Appealing<br><br></div><div class=""intro"">Remember to use the <strong><em>entire range</em></strong> of the slider to make your ratings.<br></div><div class=""intro"">Please <strong><em>take your time</em></strong> and carefully consider each rating you make.<br><br></div>","0","",""
"","","","","","call-function","160","1204444","0.0-160.0","1920x1080","","","","","","",""
"","","","","","animation","161","1212155","0.0-161.0","1920x1080","","7710.800000011921","70.37","img/314/5.5/0.5/bw/001.png","","","appealing"
"","","","","","animation","162","1217067","0.0-162.0","1920x1080","","4910.699999988079","36.64","img/238/4/0.66667/bw/001.png","","","appealing"
"","","","","","animation","163","1223699","0.0-163.0","1920x1080","","6630.400000035763","2.38","img/314/2.5/1/bw/001.png","","","appealing"
"","","","","","animation","164","1228219","0.0-164.0","1920x1080","","4518.5","20.24","img/117/4/1/bw/001.png","","","appealing"
"","","","","","animation","165","1236107","0.0-165.0","1920x1080","","7886.599999964237","79.50","img/117/5.5/0.5/bw/001.png","","","appealing"
"","","","","","animation","166","1247211","0.0-166.0","1920x1080","","11104.699999988079","96","img/314/5.5/1.5/bw/001.png","","","appealing"
"","","","","","animation","167","1259745","0.0-167.0","1920x1080","","12532.099999964237","45","img/314/4.5/1.5/bw/001.png","","","appealing"
"","","","","","animation","168","1271201","0.0-168.0","1920x1080","","11454.700000047684","74.74","img/314/5.5/0.66667/bw/001.png","","","appealing"
"","","","","","animation","169","1280433","0.0-169.0","1920x1080","","9230.200000047684","15.08","img/238/3.5/1/bw/001.png","","","appealing"
"","","","","","animation","170","1284121","0.0-170.0","1920x1080","","3686.5","8.73","img/117/3.5/1/bw/001.png","","","appealing"
"","","","","","animation","171","1290721","0.0-171.0","1920x1080","","6598.299999952316","15.08","img/117/4.5/1.5/bw/001.png","","","appealing"
"","","","","","animation","172","1298353","0.0-172.0","1920x1080","","7630.699999988079","60.45","img/117/4.5/2/bw/001.png","","","appealing"
"","","","","","animation","173","1302113","0.0-173.0","1920x1080","","3758.5","2.91","img/117/3.5/0.5/bw/001.png","","","appealing"
"","","","","","animation","174","1309233","0.0-174.0","1920x1080","","7119.100000023842","25.26","img/314/4.5/1/bw/001.png","","","appealing"
"","","","","","animation","175","1313961","0.0-175.0","1920x1080","","4726.200000047684","30","img/238/4.5/0.5/bw/001.png","","","appealing"
"","","","","","animation","176","1319762","0.0-176.0","1920x1080","","5799.800000011921","17.20","img/117/3.5/1.5/bw/001.png","","","appealing"
"","","","","","animation","177","1323278","0.0-177.0","1920x1080","","3515.2999999523163","4.37","img/117/2.5/1.5/bw/001.png","","","appealing"
"","","","","","animation","178","1329111","0.0-178.0","1920x1080","","5831.600000023842","44.58","img/238/4.5/1.5/bw/001.png","","","appealing"
"","","","","","animation","179","1334513","0.0-179.0","1920x1080","","5400.400000035763","9.66","img/117/4/0.5/bw/001.png","","","appealing"
"","","","","","animation","180","1340411","0.0-180.0","1920x1080","","5896.800000011921","79.50","img/117/5.5/1/bw/001.png","","","appealing"
"","","","","","animation","181","1346321","0.0-181.0","1920x1080","","5909","82.80","img/314/5.5/2/bw/001.png","","","appealing"
"","","","","","animation","182","1350865","0.0-182.0","1920x1080","","4542.399999976158","43.39","img/238/4/1/bw/001.png","","","appealing"
"","","","","","animation","183","1355833","0.0-183.0","1920x1080","","4966.800000011921","19.71","img/238/3.5/0.5/bw/001.png","","","appealing"
"","","","","","animation","184","1361617","0.0-184.0","1920x1080","","5782.800000011921","22.88","img/238/3.5/1.5/bw/001.png","","","appealing"
"","","","","","animation","185","1364803","0.0-185.0","1920x1080","","3182.199999988079","19.18","img/238/3.5/0.66667/bw/001.png","","","appealing"
"","","","","","animation","186","1368619","0.0-186.0","1920x1080","","3814.5","3.70","img/238/2.5/0.66667/bw/001.png","","","appealing"
"","","","","","animation","187","1374682","0.0-187.0","1920x1080","","6062.300000011921","96","img/117/5.5/2/bw/001.png","","","appealing"
"","","","","","animation","188","1381046","0.0-188.0","1920x1080","","6361.900000035763","95","img/238/5.5/1/bw/001.png","","","appealing"
"","","","","","animation","189","1384698","0.0-189.0","1920x1080","","3651.2000000476837","13.10","img/314/4/2/bw/001.png","","","appealing"
"","","","","","animation","190","1387712","0.0-190.0","1920x1080","","3012.899999976158","19.97","img/314/3.5/2/bw/001.png","","","appealing"
"","","","","","animation","191","1391362","0.0-191.0","1920x1080","","3648.5","14.55","img/314/3.5/1.5/bw/001.png","","","appealing"
"","","","","","animation","192","1407266","0.0-192.0","1920x1080","","15903.199999988079","87.83","img/238/5.5/0.5/bw/001.png","","","appealing"
"","","","","","animation","193","1411412","0.0-193.0","1920x1080","","4144.199999988079","14.55","img/314/3.5/1/bw/001.png","","","appealing"
"","","","","","animation","194","1416571","0.0-194.0","1920x1080","","5157.399999976158","10.32","img/238/4/0.5/bw/001.png","","","appealing"
"","","","","","animation","195","1423913","0.0-195.0","1920x1080","","7342.400000035763","39.81","img/238/4.5/2/bw/001.png","","","appealing"
"","","","","","animation","196","1429617","0.0-196.0","1920x1080","","5702.799999952316","26.46","img/117/4.5/0.5/bw/001.png","","","appealing"
"","","","","","animation","197","1434727","0.0-197.0","1920x1080","","5108.5","27","img/314/4.5/2/bw/001.png","","","appealing"
"","","","","","animation","198","1438078","0.0-198.0","1920x1080","","3349.7000000476837","22.49","img/314/4/1.5/bw/001.png","","","appealing"
"","","","","","animation","199","1443512","0.0-199.0","1920x1080","","5433","9.66","img/314/3.5/0.5/bw/001.png","","","appealing"
"","","","","","animation","200","1450433","0.0-200.0","1920x1080","","6919.5","92","img/238/5.5/1.5/bw/001.png","","","appealing"
"","","","","","animation","201","1460001","0.0-201.0","1920x1080","","9566.199999988079","28","img/117/4.5/0.66667/bw/001.png","","","appealing"
"","","","","","animation","202","1464327","0.0-202.0","1920x1080","","4324.899999976158","7.41","img/314/2.5/2/bw/001.png","","","appealing"
"","","","","","animation","203","1474897","0.0-203.0","1920x1080","","10568","44.84","img/238/4.5/1/bw/001.png","","","appealing"
"","","","","","animation","204","1480729","0.0-204.0","1920x1080","","5830.599999964237","3.97","img/238/2.5/2/bw/001.png","","","appealing"
"","","","","","animation","205","1483726","0.0-205.0","1920x1080","","2998.699999988079","4.10","img/117/2.5/1/bw/001.png","","","appealing"
"","","","","","animation","206","1487799","0.0-206.0","1920x1080","","4071.300000011921","84.79","img/117/5.5/1.5/bw/001.png","","","appealing"
"","","","","","animation","207","1496078","0.0-207.0","1920x1080","","8278.300000011921","26","img/117/4/2/bw/001.png","","","appealing"
"","","","","","animation","208","1507862","0.0-208.0","1920x1080","","11783","9.26","img/314/4/1/bw/001.png","","","appealing"
"","","","","","animation","209","1512842","0.0-209.0","1920x1080","","4977.799999952316","34.92","img/238/4.5/0.66667/bw/001.png","","","appealing"
"","","","","","animation","210","1520476","0.0-210.0","1920x1080","","7632.599999964237","92","img/238/5.5/2/bw/001.png","","","appealing"
"","","","","","animation","211","1526958","0.0-211.0","1920x1080","","6481.099999964237","16.93","img/314/4.5/0.5/bw/001.png","","","appealing"
"","","","","","animation","212","1530342","0.0-212.0","1920x1080","","3382.699999988079","5.03","img/238/2.5/1/bw/001.png","","","appealing"
"","","","","","animation","213","1533462","0.0-213.0","1920x1080","","3119.099999964237","5.56","img/117/2.5/2/bw/001.png","","","appealing"
"","","","","","animation","214","1536814","0.0-214.0","1920x1080","","3350.900000035763","2.12","img/314/2.5/0.66667/bw/001.png","","","appealing"
"","","","","","animation","215","1539558","0.0-215.0","1920x1080","","2742.699999988079","0","img/238/2.5/0.5/bw/001.png","","","appealing"
"","","","","","animation","216","1545362","0.0-216.0","1920x1080","","5797.5","2.25","img/238/2.5/1.5/bw/001.png","","","appealing"
"","","","","","animation","217","1550129","0.0-217.0","1920x1080","","4765.799999952316","14.81","img/238/4/2/bw/001.png","","","appealing"
"","","","","","animation","218","1554466","0.0-218.0","1920x1080","","4335.900000035763","0","img/117/2.5/0.5/bw/001.png","","","appealing"
"","","","","","animation","219","1563297","0.0-219.0","1920x1080","","8828.700000047684","57.54","img/314/4.5/0.66667/bw/001.png","","","appealing"
"","","","","","animation","220","1567218","0.0-220.0","1920x1080","","3919.899999976158","6.61","img/314/2.5/1.5/bw/001.png","","","appealing"
"","","","","","animation","221","1571802","0.0-221.0","1920x1080","","4582.5","2.78","img/314/2.5/0.5/bw/001.png","","","appealing"
"","","","","","animation","222","1575402","0.0-222.0","1920x1080","","3598.5","86.77","img/238/5.5/0.66667/bw/001.png","","","appealing"
"","","","","","animation","223","1582035","0.0-223.0","1920x1080","","6630.800000011921","16.01","img/117/3.5/0.66667/bw/001.png","","","appealing"
"","","","","","animation","224","1585013","0.0-224.0","1920x1080","","2977.100000023842","15.21","img/117/4/0.66667/bw/001.png","","","appealing"
"","","","","","animation","225","1592434","0.0-225.0","1920x1080","","7419.599999964237","25.26","img/238/3.5/2/bw/001.png","","","appealing"
"","","","","","animation","226","1598898","0.0-226.0","1920x1080","","6462.699999988079","30.03","img/117/4.5/1/bw/001.png","","","appealing"
"","","","","","animation","227","1607777","0.0-227.0","1920x1080","","8879.5","88.49","img/314/5.5/1/bw/001.png","","","appealing"
"","","","","","animation","228","1611927","0.0-228.0","1920x1080","","4148.200000047684","25.00","img/314/4/0.5/bw/001.png","","","appealing"
"","","","","","animation","229","1620264","0.0-229.0","1920x1080","","8335.700000047684","79.89","img/117/5.5/0.66667/bw/001.png","","","appealing"
"","","","","","animation","230","1628032","0.0-230.0","1920x1080","","7766.300000011921","31.22","img/238/4/1.5/bw/001.png","","","appealing"
"","","","","","animation","231","1637377","0.0-231.0","1920x1080","","9342.700000047684","15","img/314/3.5/0.66667/bw/001.png","","","appealing"
"","","","","","animation","232","1641177","0.0-232.0","1920x1080","","3798.199999988079","18.12","img/117/3.5/2/bw/001.png","","","appealing"
"","","","","","animation","233","1646784","0.0-233.0","1920x1080","","5606.200000047684","30","img/117/4/1.5/bw/001.png","","","appealing"
"","","","","","animation","234","1649293","0.0-234.0","1920x1080","","2507.900000035763","9.79","img/117/2.5/0.66667/bw/001.png","","","appealing"
"","","","","","animation","235","1654778","0.0-235.0","1920x1080","","5483","23.28","img/314/4/0.66667/bw/001.png","","","appealing"
"","","","","","html-button-response","236","1674846","0.0-236.0","1920x1080","","20064.600000023842","","<div class=""intro"">You are about to view a new series of animations.<br><br></div><div class=""intro"">You will evaluate them based on a different descriptor.<br><br></div><div class=""intro"">Move the slider to indicate how <strong style=""text-transform:capitalize"">RELAXING</strong> you find each animation.<br><br></div><div class=""intro"">0 = Least Relaxing<br></div><div class=""intro"">1 = Most Relaxing<br><br></div><div class=""intro"">Remember to use the <strong><em>entire range</em></strong> of the slider to make your ratings.<br></div><div class=""intro"">Please <strong><em>take your time</em></strong> and carefully consider each rating you make.<br><br></div>","0","",""
"","","","","","call-function","237","1674847","0.0-237.0","1920x1080","","","","","","",""
"","","","","","animation","238","1681266","0.0-238.0","1920x1080","","6418.300000011921","83.99","img/314/4.5/2/bw/001.png","","","relaxing"
"","","","","","animation","239","1688298","0.0-239.0","1920x1080","","7030.199999988079","37.57","img/117/4/1.5/bw/001.png","","","relaxing"
"","","","","","animation","240","1693895","0.0-240.0","1920x1080","","5595.800000011921","89.55","img/314/5.5/1.5/bw/001.png","","","relaxing"
"","","","","","animation","241","1701186","0.0-241.0","1920x1080","","7289.199999988079","86.90","img/238/5.5/2/bw/001.png","","","relaxing"
"","","","","","animation","242","1705662","0.0-242.0","1920x1080","","4474.5","25.53","img/117/4.5/1.5/bw/001.png","","","relaxing"
"","","","","","animation","243","1708762","0.0-243.0","1920x1080","","3098.5","19.58","img/117/3.5/1.5/bw/001.png","","","relaxing"
"","","","","","animation","244","1722528","0.0-244.0","1920x1080","","13765.5","56","img/314/5.5/0.66667/bw/001.png","","","relaxing"
"","","","","","animation","245","1725802","0.0-245.0","1920x1080","","3272.600000023842","0.13","img/314/3.5/0.66667/bw/001.png","","","relaxing"
"","","","","","animation","246","1729262","0.0-246.0","1920x1080","","3458.199999988079","2.12","img/314/3.5/2/bw/001.png","","","relaxing"
"","","","","","animation","247","1737745","0.0-247.0","1920x1080","","8481.899999976158","5","img/314/4.5/0.66667/bw/001.png","","","relaxing"
"","","","","","animation","248","1742349","0.0-248.0","1920x1080","","4602.299999952316","64.55","img/238/4/2/bw/001.png","","","relaxing"
"","","","","","animation","249","1746346","0.0-249.0","1920x1080","","3994.800000011921","18.92","img/314/3.5/1/bw/001.png","","","relaxing"
"","","","","","animation","250","1749746","0.0-250.0","1920x1080","","3398.300000011921","0","img/314/2.5/0.66667/bw/001.png","","","relaxing"
"","","","","","animation","251","1753602","0.0-251.0","1920x1080","","3854.600000023842","6.88","img/238/2.5/2/bw/001.png","","","relaxing"
"","","","","","animation","252","1756345","0.0-252.0","1920x1080","","2741.399999976158","9.26","img/314/4/1.5/bw/001.png","","","relaxing"
"","","","","","animation","253","1760546","0.0-253.0","1920x1080","","4199.800000011921","7.28","img/314/4/0.66667/bw/001.png","","","relaxing"
"","","","","","animation","254","1764295","0.0-254.0","1920x1080","","3747.899999976158","83.73","img/238/5.5/1/bw/001.png","","","relaxing"
"","","","","","animation","255","1778914","0.0-255.0","1920x1080","","14616.800000011921","15.48","img/117/4/0.5/bw/001.png","","","relaxing"
"","","","","","animation","256","1783959","0.0-256.0","1920x1080","","5046.400000035763","48.41","img/238/5.5/0.5/bw/001.png","","","relaxing"
"","","","","","animation","257","1788943","0.0-257.0","1920x1080","","4982.600000023842","27.25","img/238/4.5/0.5/bw/001.png","","","relaxing"
"","","","","","animation","258","1793832","0.0-258.0","1920x1080","","4887.5","21.30","img/314/4.5/0.5/bw/001.png","","","relaxing"
"","","","","","animation","259","1797395","0.0-259.0","1920x1080","","3561.199999988079","1.32","img/238/2.5/1/bw/001.png","","","relaxing"
"","","","","","animation","260","1800310","0.0-260.0","1920x1080","","2913.5","2.51","img/117/2.5/0.66667/bw/001.png","","","relaxing"
"","","","","","animation","261","1803360","0.0-261.0","1920x1080","","3048.300000011921","5.95","img/238/2.5/1.5/bw/001.png","","","relaxing"
"","","","","","animation","262","1807960","0.0-262.0","1920x1080","","4598.399999976158","47.88","img/117/5.5/0.66667/bw/001.png","","","relaxing"
"","","","","","animation","263","1812610","0.0-263.0","1920x1080","","4648.699999988079","3","img/117/4/0.66667/bw/001.png","","","relaxing"
"","","","","","animation","264","1818393","0.0-264.0","1920x1080","","5781.599999964237","89.29","img/238/5.5/0.66667/bw/001.png","","","relaxing"
"","","","","","animation","265","1824027","0.0-265.0","1920x1080","","5631.599999964237","13.23","img/314/4/0.5/bw/001.png","","","relaxing"
"","","","","","animation","266","1827600","0.0-266.0","1920x1080","","3571.300000011921","0","img/314/2.5/1/bw/001.png","","","relaxing"
"","","","","","animation","267","1831293","0.0-267.0","1920x1080","","3691.5","6.61","img/314/2.5/1.5/bw/001.png","","","relaxing"
"","","","","","animation","268","1835432","0.0-268.0","1920x1080","","4137.399999976158","14.81","img/117/3.5/1/bw/001.png","","","relaxing"
"","","","","","animation","269","1848513","0.0-269.0","1920x1080","","13077.899999976158","65","img/238/4.5/1/bw/001.png","","","relaxing"
"","","","","","animation","270","1852785","0.0-270.0","1920x1080","","4270.5","0","img/117/2.5/1.5/bw/001.png","","","relaxing"
"","","","","","animation","271","1857428","0.0-271.0","1920x1080","","4640.699999988079","48.15","img/314/5.5/0.5/bw/001.png","","","relaxing"
"","","","","","animation","272","1861911","0.0-272.0","1920x1080","","4481.300000011921","6.35","img/314/3.5/0.5/bw/001.png","","","relaxing"
"","","","","","animation","273","1868512","0.0-273.0","1920x1080","","6598.300000011921","15.87","img/117/4.5/0.5/bw/001.png","","","relaxing"
"","","","","","animation","274","1872482","0.0-274.0","1920x1080","","3969","24.07","img/117/4.5/0.66667/bw/001.png","","","relaxing"
"","","","","","animation","275","1884445","0.0-275.0","1920x1080","","11960.5","67","img/314/4.5/1/bw/001.png","","","relaxing"
"","","","","","animation","276","1889185","0.0-276.0","1920x1080","","4738.600000023842","8.86","img/117/3.5/2/bw/001.png","","","relaxing"
"","","","","","animation","277","1895545","0.0-277.0","1920x1080","","6357.5","91","img/117/5.5/1.5/bw/001.png","","","relaxing"
"","","","","","animation","278","1898417","0.0-278.0","1920x1080","","2870.400000035763","30.69","img/314/4/2/bw/001.png","","","relaxing"
"","","","","","animation","279","1901462","0.0-279.0","1920x1080","","3042.5","3.84","img/314/2.5/0.5/bw/001.png","","","relaxing"
"","","","","","animation","280","1907161","0.0-280.0","1920x1080","","5698.200000047684","13.62","img/238/4.5/0.66667/bw/001.png","","","relaxing"
"","","","","","animation","281","1910713","0.0-281.0","1920x1080","","3550.400000035763","21","img/238/4/1.5/bw/001.png","","","relaxing"
"","","","","","animation","282","1915697","0.0-282.0","1920x1080","","4982.199999988079","2.91","img/117/3.5/0.5/bw/001.png","","","relaxing"
"","","","","","animation","283","1925849","0.0-283.0","1920x1080","","10149.699999988079","35","img/117/5.5/0.5/bw/001.png","","","relaxing"
"","","","","","animation","284","1930411","0.0-284.0","1920x1080","","4560.600000023842","24.21","img/238/2.5/0.66667/bw/001.png","","","relaxing"
"","","","","","animation","285","1934795","0.0-285.0","1920x1080","","4382.099999964237","95","img/314/5.5/2/bw/001.png","","","relaxing"
"","","","","","animation","286","1941345","0.0-286.0","1920x1080","","6547.899999976158","34.39","img/314/4/1/bw/001.png","","","relaxing"
"","","","","","animation","287","1949433","0.0-287.0","1920x1080","","8087","85.32","img/314/5.5/1/bw/001.png","","","relaxing"
"","","","","","animation","288","1957037","0.0-288.0","1920x1080","","7601.699999988079","15.61","img/314/2.5/2/bw/001.png","","","relaxing"
"","","","","","animation","289","1961697","0.0-289.0","1920x1080","","4634.799999952316","64.68","img/314/4.5/1.5/bw/001.png","","","relaxing"
"","","","","","animation","290","1967879","0.0-290.0","1920x1080","","6182.299999952316","16","img/238/3.5/1/bw/001.png","","","relaxing"
"","","","","","animation","291","1971664","0.0-291.0","1920x1080","","3783.199999988079","2.65","img/238/2.5/0.5/bw/001.png","","","relaxing"
"","","","","","animation","292","1977495","0.0-292.0","1920x1080","","5829.100000023842","41.40","img/117/4.5/2/bw/001.png","","","relaxing"
"","","","","","animation","293","1985615","0.0-293.0","1920x1080","","8118.800000011921","87.17","img/117/5.5/2/bw/001.png","","","relaxing"
"","","","","","animation","294","1990793","0.0-294.0","1920x1080","","5175.600000023842","74.21","img/238/4.5/2/bw/001.png","","","relaxing"
"","","","","","animation","295","1996831","0.0-295.0","1920x1080","","6036.5","17.46","img/117/4/1/bw/001.png","","","relaxing"
"","","","","","animation","296","2004709","0.0-296.0","1920x1080","","7876.699999988079","8","img/117/2.5/1/bw/001.png","","","relaxing"
"","","","","","animation","297","2007659","0.0-297.0","1920x1080","","2948.5","7.14","img/117/3.5/0.66667/bw/001.png","","","relaxing"
"","","","","","animation","298","2011447","0.0-298.0","1920x1080","","3786","11.90","img/238/3.5/1.5/bw/001.png","","","relaxing"
"","","","","","animation","299","2014847","0.0-299.0","1920x1080","","3398.699999988079","3.44","img/117/2.5/0.5/bw/001.png","","","relaxing"
"","","","","","animation","300","2017826","0.0-300.0","1920x1080","","2977.800000011921","12.17","img/314/3.5/1.5/bw/001.png","","","relaxing"
"","","","","","animation","301","2021092","0.0-301.0","1920x1080","","3264.5","29.89","img/238/4/1/bw/001.png","","","relaxing"
"","","","","","animation","302","2024815","0.0-302.0","1920x1080","","3720.600000023842","38.49","img/117/4/2/bw/001.png","","","relaxing"
"","","","","","animation","303","2030643","0.0-303.0","1920x1080","","5826","22","img/117/2.5/2/bw/001.png","","","relaxing"
"","","","","","animation","304","2034959","0.0-304.0","1920x1080","","4315.199999988079","19.05","img/238/3.5/0.66667/bw/001.png","","","relaxing"
"","","","","","animation","305","2042431","0.0-305.0","1920x1080","","7470","49.21","img/117/4.5/1/bw/001.png","","","relaxing"
"","","","","","animation","306","2045626","0.0-306.0","1920x1080","","3193.2000000476837","90.74","img/238/5.5/1.5/bw/001.png","","","relaxing"
"","","","","","animation","307","2053247","0.0-307.0","1920x1080","","7619.199999988079","20.37","img/238/4/0.66667/bw/001.png","","","relaxing"
"","","","","","animation","308","2066015","0.0-308.0","1920x1080","","12765.399999976158","29.76","img/238/3.5/2/bw/001.png","","","relaxing"
"","","","","","animation","309","2070543","0.0-309.0","1920x1080","","4526.300000011921","21.96","img/238/4/0.5/bw/001.png","","","relaxing"
"","","","","","animation","310","2077927","0.0-310.0","1920x1080","","7382.200000047684","84.92","img/117/5.5/1/bw/001.png","","","relaxing"
"","","","","","animation","311","2087297","0.0-311.0","1920x1080","","9366","15.74","img/238/3.5/0.5/bw/001.png","","","relaxing"
"","","","","","animation","312","2100878","0.0-312.0","1920x1080","","13577.5","79.50","img/238/4.5/1.5/bw/001.png","","","relaxing"
"","","","","","html-button-response","313","2123816","0.0-313.0","1920x1080","","22935.69999998808","","<div class=""intro"">You are about to view a new series of animations.<br><br></div><div class=""intro"">You will evaluate them based on a different descriptor.<br><br></div><div class=""intro"">Move the slider to indicate how <strong style=""text-transform:capitalize"">INTERESTING</strong> you find each animation.<br><br></div><div class=""intro"">0 = Least Interesting<br></div><div class=""intro"">1 = Most Interesting<br><br></div><div class=""intro"">Remember to use the <strong><em>entire range</em></strong> of the slider to make your ratings.<br></div><div class=""intro"">Please <strong><em>take your time</em></strong> and carefully consider each rating you make.<br><br></div>","0","",""
"","","","","","call-function","314","2123820","0.0-314.0","1920x1080","","","","","","",""
"","","","","","animation","315","2131379","0.0-315.0","1920x1080","","7558.399999976158","2.51","img/117/2.5/2/bw/001.png","","","interesting"
"","","","","","animation","316","2135861","0.0-316.0","1920x1080","","4480","88","img/238/4.5/0.66667/bw/001.png","","","interesting"
"","","","","","animation","317","2143889","0.0-317.0","1920x1080","","8018","55.42","img/314/4.5/1.5/bw/001.png","","","interesting"
"","","","","","animation","318","2151057","0.0-318.0","1920x1080","","7166.199999988079","79.89","img/314/4.5/0.5/bw/001.png","","","interesting"
"","","","","","animation","319","2160935","0.0-319.0","1920x1080","","9877.100000023842","65.08","img/117/5.5/2/bw/001.png","","","interesting"
"","","","","","animation","320","2169768","0.0-320.0","1920x1080","","8831.399999976158","74.87","img/117/4/0.5/bw/001.png","","","interesting"
"","","","","","animation","321","2175102","0.0-321.0","1920x1080","","5331.899999976158","69.97","img/238/4/1.5/bw/001.png","","","interesting"
"","","","","","animation","322","2181208","0.0-322.0","1920x1080","","6105","76.85","img/117/4/0.66667/bw/001.png","","","interesting"
"","","","","","animation","323","2191336","0.0-323.0","1920x1080","","10125.800000011921","65.87","img/314/4/0.5/bw/001.png","","","interesting"
"","","","","","animation","324","2195624","0.0-324.0","1920x1080","","4285.699999988079","72.88","img/238/4/0.5/bw/001.png","","","interesting"
"","","","","","animation","325","2201452","0.0-325.0","1920x1080","","5825.800000011921","16.67","img/314/4.5/1/bw/001.png","","","interesting"
"","","","","","animation","326","2216799","0.0-326.0","1920x1080","","15355.099999964237","60.05","img/238/5.5/1/bw/001.png","","","interesting"
"","","","","","animation","327","2221576","0.0-327.0","1920x1080","","4774.700000047684","3.31","img/238/2.5/0.66667/bw/001.png","","","interesting"
"","","","","","animation","328","2226479","0.0-328.0","1920x1080","","4901.5","4.37","img/238/2.5/1.5/bw/001.png","","","interesting"
"","","","","","animation","329","2233447","0.0-329.0","1920x1080","","6966.400000035763","50.26","img/314/4/1/bw/001.png","","","interesting"
"","","","","","animation","330","2242030","0.0-330.0","1920x1080","","8581.899999976158","29.76","img/314/3.5/2/bw/001.png","","","interesting"
"","","","","","animation","331","2246778","0.0-331.0","1920x1080","","4746.5","10","img/238/2.5/0.5/bw/001.png","","","interesting"
"","","","","","animation","332","2252526","0.0-332.0","1920x1080","","5745.300000011921","20.24","img/238/4.5/1/bw/001.png","","","interesting"
"","","","","","animation","333","2259697","0.0-333.0","1920x1080","","7169.700000047684","10.45","img/117/2.5/0.5/bw/001.png","","","interesting"
"","","","","","animation","334","2268398","0.0-334.0","1920x1080","","8699.800000011921","29.76","img/117/4/1/bw/001.png","","","interesting"
"","","","","","animation","335","2274357","0.0-335.0","1920x1080","","5956.300000011921","30.82","img/117/3.5/0.66667/bw/001.png","","","interesting"
"","","","","","animation","336","2284275","0.0-336.0","1920x1080","","9916.399999976158","23.15","img/314/3.5/1.5/bw/001.png","","","interesting"
"","","","","","animation","337","2291975","0.0-337.0","1920x1080","","7698.100000023842","14","img/314/2.5/0.66667/bw/001.png","","","interesting"
"","","","","","animation","338","2327014","0.0-338.0","1920x1080","","35037.19999998808","70.24","img/314/4.5/0.66667/bw/001.png","","","interesting"
"","","","","","animation","339","2339524","0.0-339.0","1920x1080","","12508","43","img/117/4.5/1.5/bw/001.png","","","interesting"
"","","","","","animation","340","2343542","0.0-340.0","1920x1080","","4014.800000011921","47.22","img/117/4/2/bw/001.png","","","interesting"
"","","","","","animation","341","2349577","0.0-341.0","1920x1080","","6033.299999952316","57.01","img/117/3.5/0.5/bw/001.png","","","interesting"
"","","","","","animation","342","2352575","0.0-342.0","1920x1080","","2997.199999988079","62.96","img/238/4/0.66667/bw/001.png","","","interesting"
"","","","","","animation","343","2355799","0.0-343.0","1920x1080","","3222.199999988079","5.03","img/117/2.5/0.66667/bw/001.png","","","interesting"
"","","","","","animation","344","2364626","0.0-344.0","1920x1080","","8826","7.14","img/238/2.5/1/bw/001.png","","","interesting"
"","","","","","animation","345","2371908","0.0-345.0","1920x1080","","7280.5","48","img/314/4/2/bw/001.png","","","interesting"
"","","","","","animation","346","2382627","0.0-346.0","1920x1080","","10715.099999964237","34.66","img/117/3.5/2/bw/001.png","","","interesting"
"","","","","","animation","347","2388010","0.0-347.0","1920x1080","","5381.300000011921","76.72","img/238/4.5/1.5/bw/001.png","","","interesting"
"","","","","","animation","348","2396722","0.0-348.0","1920x1080","","8708.399999976158","85","img/238/5.5/2/bw/001.png","","","interesting"
"","","","","","animation","349","2400461","0.0-349.0","1920x1080","","3736.5","5.82","img/314/2.5/2/bw/001.png","","","interesting"
"","","","","","animation","350","2412451","0.0-350.0","1920x1080","","11988.400000035763","16.80","img/117/4.5/2/bw/001.png","","","interesting"
"","","","","","animation","351","2422151","0.0-351.0","1920x1080","","9698.199999988079","90","img/314/5.5/0.66667/bw/001.png","","","interesting"
"","","","","","animation","352","2426427","0.0-352.0","1920x1080","","4273.699999988079","81.75","img/314/5.5/2/bw/001.png","","","interesting"
"","","","","","animation","353","2433218","0.0-353.0","1920x1080","","6789.400000035763","82.67","img/117/4.5/1/bw/001.png","","","interesting"
"","","","","","animation","354","2436979","0.0-354.0","1920x1080","","3758.600000023842","5.03","img/314/2.5/1/bw/001.png","","","interesting"
"","","","","","animation","355","2449337","0.0-355.0","1920x1080","","12347.699999988079","8.99","img/117/3.5/1.5/bw/001.png","","","interesting"
"","","","","","animation","356","2453415","0.0-356.0","1920x1080","","4074.399999976158","4.50","img/117/2.5/1/bw/001.png","","","interesting"
"","","","","","animation","357","2459676","0.0-357.0","1920x1080","","6259.399999976158","45.90","img/238/4.5/0.5/bw/001.png","","","interesting"
"","","","","","animation","358","2469273","0.0-358.0","1920x1080","","9595.199999988079","50.53","img/117/4.5/0.66667/bw/001.png","","","interesting"
"","","","","","animation","359","2474105","0.0-359.0","1920x1080","","4829.5","57.80","img/238/4/1/bw/001.png","","","interesting"
"","","","","","animation","360","2477235","0.0-360.0","1920x1080","","3129.100000023842","76.59","img/314/5.5/1/bw/001.png","","","interesting"
"","","","","","animation","361","2480787","0.0-361.0","1920x1080","","3549.900000035763","20.37","img/314/3.5/1/bw/001.png","","","interesting"
"","","","","","animation","362","2483819","0.0-362.0","1920x1080","","3029.5","7.54","img/314/2.5/1.5/bw/001.png","","","interesting"
"","","","","","animation","363","2487236","0.0-363.0","1920x1080","","3415","80.29","img/117/5.5/0.5/bw/001.png","","","interesting"
"","","","","","animation","364","2490937","0.0-364.0","1920x1080","","3698.900000035763","73.15","img/314/5.5/1.5/bw/001.png","","","interesting"
"","","","","","animation","365","2494569","0.0-365.0","1920x1080","","3631.300000011921","7.14","img/117/2.5/1.5/bw/001.png","","","interesting"
"","","","","","animation","366","2498076","0.0-366.0","1920x1080","","3505.100000023842","8.73","img/314/2.5/0.5/bw/001.png","","","interesting"
"","","","","","animation","367","2501303","0.0-367.0","1920x1080","","3224.900000035763","63.49","img/238/5.5/0.66667/bw/001.png","","","interesting"
"","","","","","animation","368","2506289","0.0-368.0","1920x1080","","4984","57.80","img/238/5.5/1.5/bw/001.png","","","interesting"
"","","","","","animation","369","2510665","0.0-369.0","1920x1080","","4374.699999988079","7.14","img/238/2.5/2/bw/001.png","","","interesting"
"","","","","","animation","370","2516736","0.0-370.0","1920x1080","","6068.800000011921","15.61","img/238/4.5/2/bw/001.png","","","interesting"
"","","","","","animation","371","2525489","0.0-371.0","1920x1080","","8751.100000023842","31","img/314/3.5/0.66667/bw/001.png","","","interesting"
"","","","","","animation","372","2529219","0.0-372.0","1920x1080","","3727.600000023842","30.03","img/314/3.5/0.5/bw/001.png","","","interesting"
"","","","","","animation","373","2532219","0.0-373.0","1920x1080","","2997.5","24.21","img/117/3.5/1/bw/001.png","","","interesting"
"","","","","","animation","374","2536580","0.0-374.0","1920x1080","","4359","46.03","img/314/4.5/2/bw/001.png","","","interesting"
"","","","","","animation","375","2540153","0.0-375.0","1920x1080","","3571.900000035763","16.14","img/238/3.5/2/bw/001.png","","","interesting"
"","","","","","animation","376","2543069","0.0-376.0","1920x1080","","2915.100000023842","26.59","img/238/3.5/0.5/bw/001.png","","","interesting"
"","","","","","animation","377","2546673","0.0-377.0","1920x1080","","3601.5","22.22","img/238/3.5/0.66667/bw/001.png","","","interesting"
"","","","","","animation","378","2549620","0.0-378.0","1920x1080","","2944.800000011921","59.52","img/117/4.5/0.5/bw/001.png","","","interesting"
"","","","","","animation","379","2557721","0.0-379.0","1920x1080","","8099.5","52.65","img/238/3.5/1.5/bw/001.png","","","interesting"
"","","","","","animation","380","2563184","0.0-380.0","1920x1080","","5471.300000011921","72.75","img/238/5.5/0.5/bw/001.png","","","interesting"
"","","","","","animation","381","2568743","0.0-381.0","1920x1080","","5556.299999952316","50","img/117/4/1.5/bw/001.png","","","interesting"
"","","","","","animation","382","2573601","0.0-382.0","1920x1080","","4856.099999964237","81.22","img/117/5.5/1/bw/001.png","","","interesting"
"","","","","","animation","383","2578111","0.0-383.0","1920x1080","","4508.200000047684","42.59","img/314/4/0.66667/bw/001.png","","","interesting"
"","","","","","animation","384","2583594","0.0-384.0","1920x1080","","5482.300000011921","78.17","img/117/5.5/1.5/bw/001.png","","","interesting"
"","","","","","animation","385","2586863","0.0-385.0","1920x1080","","3264.899999976158","72.49","img/314/5.5/0.5/bw/001.png","","","interesting"
"","","","","","animation","386","2601125","0.0-386.0","1920x1080","","14260.600000023842","49.87","img/238/4/2/bw/001.png","","","interesting"
"","","","","","animation","387","2604025","0.0-387.0","1920x1080","","2898.300000011921","31.48","img/238/3.5/1/bw/001.png","","","interesting"
"","","","","","animation","388","2606492","0.0-388.0","1920x1080","","2465.099999964237","32.41","img/314/4/1.5/bw/001.png","","","interesting"
"","","","","","animation","389","2611601","0.0-389.0","1920x1080","","5106.600000023842","62.83","img/117/5.5/0.66667/bw/001.png","","","interesting"
"","","","","","html-button-response","390","2647329","0.0-390.0","1920x1080","","35715.60000002384","","<strong>Study Debriefing</strong><br><p class=""debrief""><strong>Background:</strong> The patterns you rated are called <em>fractals</em>. The term fractal describes a class of irregular curves or shapes for which any suitably chosen part is similar in shape to a given larger or smaller part when magnified or reduced to the same size. Fractal properties are found throughout the natural and manmade world. The series of animations you saw today displayed animated fractal patterns of a varying complexity.</p><p class=""debrief""><strong>Purpose of this study:</strong> We hope to better understand how the perception of static fractals differs from the perception of animated fractals, and how the speed of the animated patterns influences people&apos;s perception of them. Fractals allow us to study the perception of aesthetic properties (e.g. the perceived level of beauty in an image) without using recognizable content, which makes them an excellent tool for studying abstract aesthetic judgement.</p><p class=""debrief""><strong>Your part:</strong> Your participation has helped us to further understand how humans perceive these patterns across different levels of speed and complexity. This research with allow us to better understand how the visual system and brain process our ever-changing visual environments.<p class=""debrief""><strong>Feedback and Further information:</strong> If you have additional questions about this study, please feel free to ask the researcher, Nathan Gonzales-Hess at nhess @ uoregon.edu. If you have any questions concerning your rights as a research participant, please contact Research Compliance Services, 5237 University of Oregon, Eugene, OR 97403, 541-346-2510, or email researchCompliance @ uoregon.edu. You can also email the Human Subjects Coordinator for psychology and linguistics research at hscoord @ uoregon.edu. ","0","",""
"","","","","","html-button-response","391","2653241","0.0-391.0","1920x1080","","5908.600000023842","","Thank you for participating in this study. <br>Please click below to finish the experiment and submit your responses.<br><br>","0","",""
"true","","","","","fullscreen","392","2654255","0.0-392.0","1920x1080","15:43 12/10/2022","","","","","",""
