"success","timeout","failed_images","failed_audio","failed_video","trial_type","trial_index","time_elapsed","internal_node_id","resolution","timeStamp","rt","response","stimulus","button_pressed","value","descriptor"
"true","false","[]","[]","[]","preload","0","6046","0.0-0.0","1920x1080","","","","","","",""
"true","false","[]","[]","[]","preload","1","12202","0.0-1.0","1920x1080","","","","","","",""
"true","false","[]","[]","[]","preload","2","18438","0.0-2.0","1920x1080","","","","","","",""
"true","","","","","fullscreen","3","1760755","0.0-3.0","1920x1080","11:52 27/10/2022","","","","","",""
"","","","","","survey-html-form","4","1772852","0.0-4.0","1920x1080","","12093.600000000093","{""age"":""18"",""gender"":""Female""}","","","",""
"","","","","","html-button-response","5","1884583","0.0-5.0","1920x1080","","111726.70000000019","","<div class=""complex"">You are going to see a series of animations.<br><br></div><div class=""complex"">Move the slider to indicate how <strong style=""text-transform:capitalize"">COMPLEX</strong> you find each animation.<br><br></div><div class=""complex"">0 = Least Complex<br></div><div class=""complex"">1 = Most Complex<br><br></div><div class=""complex"">Remember to use the <strong><em>entire range</em></strong> of the slider to make your ratings.<br></div><div class=""complex"">Please <strong><em>take your time</em></strong> and carefully consider each rating you make.<br><br></div><div class=""complex"">The study has five sections and will take about 45 minutes to complete.<br><br></div>","0","",""
"","","","","","call-function","6","1884584","0.0-6.0","1920x1080","","","","","","",""
"","","","","","animation","7","1898862","0.0-7.0","1920x1080","","14277.600000000093","0.00","img/117/4.5/1.5/bw/001.png","","","complex"
"","","","","","animation","8","1916295","0.0-8.0","1920x1080","","17431.899999999907","100","img/117/3.5/1/bw/001.png","","","complex"
"","","","","","animation","9","1926087","0.0-9.0","1920x1080","","9790.700000000186","0","img/238/4/2/bw/001.png","","","complex"
"","","","","","animation","10","1935295","0.0-10.0","1920x1080","","9205.899999999907","100","img/117/3.5/1.5/bw/001.png","","","complex"
"","","","","","animation","11","1943823","0.0-11.0","1920x1080","","8526.799999999814","100","img/314/3.5/0.5/bw/001.png","","","complex"
"","","","","","animation","12","1954951","0.0-12.0","1920x1080","","11127.5","100","img/238/3.5/0.66667/bw/001.png","","","complex"
"","","","","","animation","13","1961711","0.0-13.0","1920x1080","","6759.600000000093","100","img/238/3.5/0.5/bw/001.png","","","complex"
"","","","","","animation","14","1980271","0.0-14.0","1920x1080","","18558.799999999814","100","img/238/3.5/1/bw/001.png","","","complex"
"","","","","","animation","15","1995007","0.0-15.0","1920x1080","","14735.399999999907","100","img/238/3.5/1.5/bw/001.png","","","complex"
"","","","","","animation","16","2001071","0.0-16.0","1920x1080","","6062.800000000279","0.40","img/314/5.5/0.5/bw/001.png","","","complex"
"","","","","","animation","17","2018670","0.0-17.0","1920x1080","","17598.799999999814","0","img/314/4.5/2/bw/001.png","","","complex"
"","","","","","animation","18","2023502","0.0-18.0","1920x1080","","4831.5","100","img/238/4/0.66667/bw/001.png","","","complex"
"","","","","","animation","19","2030246","0.0-19.0","1920x1080","","6742.700000000186","100","img/238/2.5/1/bw/001.png","","","complex"
"","","","","","animation","20","2039406","0.0-20.0","1920x1080","","9159.5","100","img/314/2.5/2/bw/001.png","","","complex"
"","","","","","animation","21","2049790","0.0-21.0","1920x1080","","10383.200000000186","100","img/117/3.5/2/bw/001.png","","","complex"
"","","","","","animation","22","2054206","0.0-22.0","1920x1080","","4415.100000000093","0.40","img/314/5.5/1.5/bw/001.png","","","complex"
"","","","","","animation","23","2058774","0.0-23.0","1920x1080","","4567.100000000093","100","img/117/2.5/0.66667/bw/001.png","","","complex"
"","","","","","animation","24","2063127","0.0-24.0","1920x1080","","4352.399999999907","0","img/117/5.5/1/bw/001.png","","","complex"
"","","","","","animation","25","2084467","0.0-25.0","1920x1080","","21342","100","img/314/2.5/0.5/bw/001.png","","","complex"
"","","","","","animation","26","2095611","0.0-26.0","1920x1080","","11142","77.78","img/238/3.5/2/bw/001.png","","","complex"
"","","","","","animation","27","2111747","0.0-27.0","1920x1080","","16135.100000000093","19.97","img/238/4.5/2/bw/001.png","","","complex"
"","","","","","animation","28","2119547","0.0-28.0","1920x1080","","7799","68.12","img/314/3.5/0.66667/bw/001.png","","","complex"
"","","","","","animation","29","2127261","0.0-29.0","1920x1080","","7710.699999999721","17.33","img/314/4/2/bw/001.png","","","complex"
"","","","","","animation","30","2130718","0.0-30.0","1920x1080","","3455.7999999998137","22.09","img/117/4.5/2/bw/001.png","","","complex"
"","","","","","animation","31","2133694","0.0-31.0","1920x1080","","2975.5","25.13","img/117/4.5/0.5/bw/001.png","","","complex"
"","","","","","animation","32","2138437","0.0-32.0","1920x1080","","4742.700000000186","24.60","img/238/4.5/0.66667/bw/001.png","","","complex"
"","","","","","animation","33","2142390","0.0-33.0","1920x1080","","3951.600000000093","41.14","img/314/4/1.5/bw/001.png","","","complex"
"","","","","","animation","34","2157159","0.0-34.0","1920x1080","","14766.399999999907","22.49","img/117/4.5/1/bw/001.png","","","complex"
"","","","","","animation","35","2163421","0.0-35.0","1920x1080","","6261.300000000279","43.65","img/238/4/1/bw/001.png","","","complex"
"","","","","","animation","36","2169942","0.0-36.0","1920x1080","","6520.100000000093","11.77","img/117/5.5/0.5/bw/001.png","","","complex"
"","","","","","animation","37","2172574","0.0-37.0","1920x1080","","2630.5999999996275","10.98","img/238/5.5/1/bw/001.png","","","complex"
"","","","","","animation","38","2176453","0.0-38.0","1920x1080","","3878.899999999907","79.76","img/238/2.5/2/bw/001.png","","","complex"
"","","","","","animation","39","2180318","0.0-39.0","1920x1080","","3863.399999999907","60.85","img/314/4/1/bw/001.png","","","complex"
"","","","","","animation","40","2184780","0.0-40.0","1920x1080","","4462.899999999907","51.98","img/314/4.5/0.66667/bw/001.png","","","complex"
"","","","","","animation","41","2187996","0.0-41.0","1920x1080","","3215","87.17","img/117/2.5/0.5/bw/001.png","","","complex"
"","","","","","animation","42","2192309","0.0-42.0","1920x1080","","4311.700000000186","35.71","img/238/4.5/0.5/bw/001.png","","","complex"
"","","","","","animation","43","2200476","0.0-43.0","1920x1080","","8166.199999999721","26.32","img/117/4/0.66667/bw/001.png","","","complex"
"","","","","","animation","44","2203860","0.0-44.0","1920x1080","","3382.899999999907","25.26","img/117/4/2/bw/001.png","","","complex"
"","","","","","animation","45","2212116","0.0-45.0","1920x1080","","8255.5","17.33","img/238/4/1.5/bw/001.png","","","complex"
"","","","","","animation","46","2216796","0.0-46.0","1920x1080","","4678.699999999721","82.28","img/314/2.5/1.5/bw/001.png","","","complex"
"","","","","","animation","47","2222309","0.0-47.0","1920x1080","","5512.199999999721","20.11","img/314/4.5/1/bw/001.png","","","complex"
"","","","","","animation","48","2242612","0.0-48.0","1920x1080","","20302.200000000186","63.23","img/117/3.5/0.5/bw/001.png","","","complex"
"","","","","","animation","49","2250915","0.0-49.0","1920x1080","","8301.5","89.15","img/238/2.5/0.66667/bw/001.png","","","complex"
"","","","","","animation","50","2254746","0.0-50.0","1920x1080","","3830.7999999998137","89.55","img/314/2.5/1/bw/001.png","","","complex"
"","","","","","animation","51","2259315","0.0-51.0","1920x1080","","4567.300000000279","7.80","img/238/5.5/1.5/bw/001.png","","","complex"
"","","","","","animation","52","2269651","0.0-52.0","1920x1080","","10335","79.89","img/238/2.5/0.5/bw/001.png","","","complex"
"","","","","","animation","53","2277291","0.0-53.0","1920x1080","","7639.5","89.95","img/238/2.5/1.5/bw/001.png","","","complex"
"","","","","","animation","54","2283835","0.0-54.0","1920x1080","","6543","90.08","img/314/2.5/0.66667/bw/001.png","","","complex"
"","","","","","animation","55","2291124","0.0-55.0","1920x1080","","7287.899999999907","9.52","img/314/4.5/1.5/bw/001.png","","","complex"
"","","","","","animation","56","2297146","0.0-56.0","1920x1080","","6022","21.03","img/117/4/0.5/bw/001.png","","","complex"
"","","","","","animation","57","2302867","0.0-57.0","1920x1080","","5719.300000000279","4.63","img/117/5.5/0.66667/bw/001.png","","","complex"
"","","","","","animation","58","2310437","0.0-58.0","1920x1080","","7567.100000000093","39.95","img/314/3.5/1/bw/001.png","","","complex"
"","","","","","animation","59","2328444","0.0-59.0","1920x1080","","18006.80000000028","19.58","img/314/4.5/0.5/bw/001.png","","","complex"
"","","","","","animation","60","2334621","0.0-60.0","1920x1080","","6175.5","30.03","img/117/4/1/bw/001.png","","","complex"
"","","","","","animation","61","2339309","0.0-61.0","1920x1080","","4687.100000000093","90.34","img/117/2.5/1/bw/001.png","","","complex"
"","","","","","animation","62","2345375","0.0-62.0","1920x1080","","6065.200000000186","40.08","img/238/4/0.5/bw/001.png","","","complex"
"","","","","","animation","63","2352175","0.0-63.0","1920x1080","","6798.699999999721","5.82","img/314/5.5/2/bw/001.png","","","complex"
"","","","","","animation","64","2355460","0.0-64.0","1920x1080","","3284.5","40.34","img/314/3.5/2/bw/001.png","","","complex"
"","","","","","animation","65","2358574","0.0-65.0","1920x1080","","3112.899999999907","24.34","img/238/4.5/1/bw/001.png","","","complex"
"","","","","","animation","66","2361175","0.0-66.0","1920x1080","","2600","1.19","img/238/5.5/0.66667/bw/001.png","","","complex"
"","","","","","animation","67","2364179","0.0-67.0","1920x1080","","3004","28.57","img/314/3.5/1.5/bw/001.png","","","complex"
"","","","","","animation","68","2369348","0.0-68.0","1920x1080","","5167.399999999907","45.11","img/117/3.5/0.66667/bw/001.png","","","complex"
"","","","","","animation","69","2375211","0.0-69.0","1920x1080","","5863","0.40","img/238/5.5/2/bw/001.png","","","complex"
"","","","","","animation","70","2381125","0.0-70.0","1920x1080","","5911.600000000093","100","img/117/2.5/1.5/bw/001.png","","","complex"
"","","","","","animation","71","2386580","0.0-71.0","1920x1080","","5454","48.15","img/314/4/0.5/bw/001.png","","","complex"
"","","","","","animation","72","2399291","0.0-72.0","1920x1080","","12710.799999999814","21.30","img/117/4/1.5/bw/001.png","","","complex"
"","","","","","animation","73","2402757","0.0-73.0","1920x1080","","3464.899999999907","100","img/117/2.5/2/bw/001.png","","","complex"
"","","","","","animation","74","2406252","0.0-74.0","1920x1080","","3493.899999999907","44.71","img/314/4/0.66667/bw/001.png","","","complex"
"","","","","","animation","75","2409763","0.0-75.0","1920x1080","","3511","29.50","img/117/4.5/0.66667/bw/001.png","","","complex"
"","","","","","animation","76","2413059","0.0-76.0","1920x1080","","3294.899999999907","12.57","img/238/4.5/1.5/bw/001.png","","","complex"
"","","","","","animation","77","2417043","0.0-77.0","1920x1080","","3983","6.75","img/117/5.5/2/bw/001.png","","","complex"
"","","","","","animation","78","2422316","0.0-78.0","1920x1080","","5271.5","0","img/238/5.5/0.5/bw/001.png","","","complex"
"","","","","","animation","79","2427989","0.0-79.0","1920x1080","","5673.399999999907","0.79","img/314/5.5/1/bw/001.png","","","complex"
"","","","","","animation","80","2433434","0.0-80.0","1920x1080","","5444.5","0.13","img/314/5.5/0.66667/bw/001.png","","","complex"
"","","","","","animation","81","2438178","0.0-81.0","1920x1080","","4743","0.40","img/117/5.5/1.5/bw/001.png","","","complex"
"","","","","","html-button-response","82","2458410","0.0-82.0","1920x1080","","20230.899999999907","","<div class=""intro"">You are about to view a new series of animations.<br><br></div><div class=""intro"">You will evaluate them based on a different descriptor.<br><br></div><div class=""intro"">Move the slider to indicate how <strong style=""text-transform:capitalize"">APPEALING</strong> you find each animation.<br><br></div><div class=""intro"">0 = Least Appealing<br></div><div class=""intro"">1 = Most Appealing<br><br></div><div class=""intro"">Remember to use the <strong><em>entire range</em></strong> of the slider to make your ratings.<br></div><div class=""intro"">Please <strong><em>take your time</em></strong> and carefully consider each rating you make.<br><br></div>","0","",""
"","","","","","call-function","83","2458411","0.0-83.0","1920x1080","","","","","","",""
"","","","","","animation","84","2472650","0.0-84.0","1920x1080","","14238.100000000093","5.56","img/314/4/0.5/bw/001.png","","","appealing"
"","","","","","animation","85","2477940","0.0-85.0","1920x1080","","5288.200000000186","10.05","img/117/3.5/2/bw/001.png","","","appealing"
"","","","","","animation","86","2480618","0.0-86.0","1920x1080","","2677.2999999998137","0","img/117/3.5/0.66667/bw/001.png","","","appealing"
"","","","","","animation","87","2488497","0.0-87.0","1920x1080","","7878.799999999814","90.08","img/238/5.5/2/bw/001.png","","","appealing"
"","","","","","animation","88","2494361","0.0-88.0","1920x1080","","5862.799999999814","64.55","img/314/4/2/bw/001.png","","","appealing"
"","","","","","animation","89","2498049","0.0-89.0","1920x1080","","3687.2000000001863","0","img/314/2.5/0.66667/bw/001.png","","","appealing"
"","","","","","animation","90","2510722","0.0-90.0","1920x1080","","12672.399999999907","80.42","img/238/5.5/0.66667/bw/001.png","","","appealing"
"","","","","","animation","91","2521588","0.0-91.0","1920x1080","","10864.899999999907","60.05","img/314/5.5/2/bw/001.png","","","appealing"
"","","","","","animation","92","2524361","0.0-92.0","1920x1080","","2771.7999999998137","0","img/314/2.5/1/bw/001.png","","","appealing"
"","","","","","animation","93","2526729","0.0-93.0","1920x1080","","2367.0999999996275","0.13","img/117/2.5/0.66667/bw/001.png","","","appealing"
"","","","","","animation","94","2530420","0.0-94.0","1920x1080","","3689.7000000001863","0.53","img/238/2.5/1/bw/001.png","","","appealing"
"","","","","","animation","95","2536697","0.0-95.0","1920x1080","","6276.299999999814","78.44","img/238/4.5/0.5/bw/001.png","","","appealing"
"","","","","","animation","96","2550591","0.0-96.0","1920x1080","","13894.700000000186","30.16","img/314/5.5/1.5/bw/001.png","","","appealing"
"","","","","","animation","97","2568343","0.0-97.0","1920x1080","","17751.100000000093","59","img/117/4/0.66667/bw/001.png","","","appealing"
"","","","","","animation","98","2575704","0.0-98.0","1920x1080","","7359.800000000279","0","img/117/2.5/1.5/bw/001.png","","","appealing"
"","","","","","animation","99","2580603","0.0-99.0","1920x1080","","4897.699999999721","48.02","img/314/4.5/0.5/bw/001.png","","","appealing"
"","","","","","animation","100","2584575","0.0-100.0","1920x1080","","3971.4000000003725","0.40","img/238/2.5/0.5/bw/001.png","","","appealing"
"","","","","","animation","101","2592419","0.0-101.0","1920x1080","","7842.5","24.74","img/314/3.5/1/bw/001.png","","","appealing"
"","","","","","animation","102","2602186","0.0-102.0","1920x1080","","9766.30000000028","69.84","img/117/5.5/1/bw/001.png","","","appealing"
"","","","","","animation","103","2612578","0.0-103.0","1920x1080","","10388.100000000093","76.98","img/238/4/0.5/bw/001.png","","","appealing"
"","","","","","animation","104","2619010","0.0-104.0","1920x1080","","6431","83.86","img/117/4/1/bw/001.png","","","appealing"
"","","","","","animation","105","2631038","0.0-105.0","1920x1080","","12027.399999999907","83.73","img/314/4/0.66667/bw/001.png","","","appealing"
"","","","","","animation","106","2640937","0.0-106.0","1920x1080","","9896.80000000028","89.95","img/117/5.5/0.66667/bw/001.png","","","appealing"
"","","","","","animation","107","2643425","0.0-107.0","1920x1080","","2487.2000000001863","0.13","img/238/2.5/1.5/bw/001.png","","","appealing"
"","","","","","animation","108","2646266","0.0-108.0","1920x1080","","2839.2000000001863","0.40","img/314/3.5/0.5/bw/001.png","","","appealing"
"","","","","","animation","109","2650955","0.0-109.0","1920x1080","","4688.700000000186","0","img/117/4.5/0.66667/bw/001.png","","","appealing"
"","","","","","animation","110","2654298","0.0-110.0","1920x1080","","3341.0999999996275","0","img/314/2.5/1.5/bw/001.png","","","appealing"
"","","","","","animation","111","2668718","0.0-111.0","1920x1080","","14422.599999999627","80.29","img/238/4.5/1.5/bw/001.png","","","appealing"
"","","","","","animation","112","2674263","0.0-112.0","1920x1080","","5543.699999999255","0","img/238/3.5/1/bw/001.png","","","appealing"
"","","","","","animation","113","2683406","0.0-113.0","1920x1080","","9142.599999999627","90.21","img/117/5.5/2/bw/001.png","","","appealing"
"","","","","","animation","114","2690019","0.0-114.0","1920x1080","","6611.100000000559","89.68","img/314/3.5/1.5/bw/001.png","","","appealing"
"","","","","","animation","115","2697000","0.0-115.0","1920x1080","","6980.9000000003725","18.52","img/314/3.5/0.66667/bw/001.png","","","appealing"
"","","","","","animation","116","2700055","0.0-116.0","1920x1080","","3053.199999999255","0.40","img/314/2.5/2/bw/001.png","","","appealing"
"","","","","","animation","117","2708401","0.0-117.0","1920x1080","","8345.400000000373","20.50","img/238/4.5/2/bw/001.png","","","appealing"
"","","","","","animation","118","2711927","0.0-118.0","1920x1080","","3524.699999999255","0","img/238/2.5/0.66667/bw/001.png","","","appealing"
"","","","","","animation","119","2718022","0.0-119.0","1920x1080","","6093.9000000003725","84.79","img/314/5.5/0.5/bw/001.png","","","appealing"
"","","","","","animation","120","2726163","0.0-120.0","1920x1080","","8144.799999999814","90.08","img/117/4/0.5/bw/001.png","","","appealing"
"","","","","","animation","121","2729698","0.0-121.0","1920x1080","","3533.2000000001863","8.07","img/117/3.5/0.5/bw/001.png","","","appealing"
"","","","","","animation","122","2740450","0.0-122.0","1920x1080","","10750.899999999441","13.10","img/314/4/1.5/bw/001.png","","","appealing"
"","","","","","animation","123","2745013","0.0-123.0","1920x1080","","4562.4000000003725","9.26","img/314/4.5/2/bw/001.png","","","appealing"
"","","","","","animation","124","2751979","0.0-124.0","1920x1080","","6965","7.94","img/314/4/1/bw/001.png","","","appealing"
"","","","","","animation","125","2762434","0.0-125.0","1920x1080","","10453.799999999814","40","img/238/5.5/1/bw/001.png","","","appealing"
"","","","","","animation","126","2769690","0.0-126.0","1920x1080","","7255.100000000559","69.84","img/314/5.5/0.66667/bw/001.png","","","appealing"
"","","","","","animation","127","2774754","0.0-127.0","1920x1080","","5062.800000000745","72.88","img/117/4.5/0.5/bw/001.png","","","appealing"
"","","","","","animation","128","2778202","0.0-128.0","1920x1080","","3447.2000000001863","20.37","img/314/4.5/1.5/bw/001.png","","","appealing"
"","","","","","animation","129","2781050","0.0-129.0","1920x1080","","2847","0.53","img/117/2.5/0.5/bw/001.png","","","appealing"
"","","","","","animation","130","2790463","0.0-130.0","1920x1080","","9414.600000000559","10.19","img/117/4/1.5/bw/001.png","","","appealing"
"","","","","","animation","131","2797659","0.0-131.0","1920x1080","","7195.5999999996275","8.99","img/238/4/1/bw/001.png","","","appealing"
"","","","","","animation","132","2800847","0.0-132.0","1920x1080","","3186.7000000001863","0","img/238/3.5/0.5/bw/001.png","","","appealing"
"","","","","","animation","133","2804335","0.0-133.0","1920x1080","","3487.199999999255","0.40","img/117/3.5/1/bw/001.png","","","appealing"
"","","","","","animation","134","2810487","0.0-134.0","1920x1080","","6151.300000000745","0","img/117/4.5/1/bw/001.png","","","appealing"
"","","","","","animation","135","2813263","0.0-135.0","1920x1080","","2774.0999999996275","0","img/117/2.5/2/bw/001.png","","","appealing"
"","","","","","animation","136","2817993","0.0-136.0","1920x1080","","4728.9000000003725","0.40","img/117/4.5/1.5/bw/001.png","","","appealing"
"","","","","","animation","137","2826844","0.0-137.0","1920x1080","","8850.100000000559","30.03","img/314/4.5/0.66667/bw/001.png","","","appealing"
"","","","","","animation","138","2835193","0.0-138.0","1920x1080","","8348.099999999627","89.68","img/117/5.5/0.5/bw/001.png","","","appealing"
"","","","","","animation","139","2842367","0.0-139.0","1920x1080","","7173.200000000186","0","img/238/2.5/2/bw/001.png","","","appealing"
"","","","","","animation","140","2846982","0.0-140.0","1920x1080","","4614.799999999814","0.00","img/238/4.5/1/bw/001.png","","","appealing"
"","","","","","animation","141","2850326","0.0-141.0","1920x1080","","3342.2000000001863","0","img/314/2.5/0.5/bw/001.png","","","appealing"
"","","","","","animation","142","2855918","0.0-142.0","1920x1080","","5591.5999999996275","19.97","img/238/5.5/0.5/bw/001.png","","","appealing"
"","","","","","animation","143","2862198","0.0-143.0","1920x1080","","6279","10.45","img/238/3.5/0.66667/bw/001.png","","","appealing"
"","","","","","animation","144","2869058","0.0-144.0","1920x1080","","6859.600000000559","10.05","img/117/3.5/1.5/bw/001.png","","","appealing"
"","","","","","animation","145","2875062","0.0-145.0","1920x1080","","6002.4000000003725","1.32","img/238/4.5/0.66667/bw/001.png","","","appealing"
"","","","","","animation","146","2879992","0.0-146.0","1920x1080","","4929.199999999255","0","img/314/5.5/1/bw/001.png","","","appealing"
"","","","","","animation","147","2897126","0.0-147.0","1920x1080","","17132.700000000186","0","img/314/4.5/1/bw/001.png","","","appealing"
"","","","","","animation","148","2902814","0.0-148.0","1920x1080","","5687.600000000559","19.97","img/238/4/0.66667/bw/001.png","","","appealing"
"","","","","","animation","149","2907640","0.0-149.0","1920x1080","","4827.300000000745","30","img/238/4/2/bw/001.png","","","appealing"
"","","","","","animation","150","2911556","0.0-150.0","1920x1080","","3914.7999999998137","60.19","img/117/4.5/2/bw/001.png","","","appealing"
"","","","","","animation","151","2917623","0.0-151.0","1920x1080","","6066.0999999996275","14.55","img/238/3.5/1.5/bw/001.png","","","appealing"
"","","","","","animation","152","2922860","0.0-152.0","1920x1080","","5235.899999999441","15.21","img/238/3.5/2/bw/001.png","","","appealing"
"","","","","","animation","153","2926272","0.0-153.0","1920x1080","","3412.0999999996275","0","img/117/2.5/1/bw/001.png","","","appealing"
"","","","","","animation","154","2934541","0.0-154.0","1920x1080","","8267.200000000186","0","img/314/3.5/2/bw/001.png","","","appealing"
"","","","","","animation","155","2942407","0.0-155.0","1920x1080","","7864.899999999441","8.20","img/238/4/1.5/bw/001.png","","","appealing"
"","","","","","animation","156","2949891","0.0-156.0","1920x1080","","7483.299999999814","60","img/117/4/2/bw/001.png","","","appealing"
"","","","","","animation","157","2954389","0.0-157.0","1920x1080","","4497.299999999814","0","img/238/5.5/1.5/bw/001.png","","","appealing"
"","","","","","animation","158","2958740","0.0-158.0","1920x1080","","4349.799999999814","0","img/117/5.5/1.5/bw/001.png","","","appealing"
"","","","","","html-button-response","159","2978152","0.0-159.0","1920x1080","","19406.39999999944","","<div class=""intro"">You are about to view a new series of animations.<br><br></div><div class=""intro"">You will evaluate them based on a different descriptor.<br><br></div><div class=""intro"">Move the slider to indicate how <strong style=""text-transform:capitalize"">NATURAL</strong> you find each animation.<br><br></div><div class=""intro"">0 = Least Natural<br></div><div class=""intro"">1 = Most Natural<br><br></div><div class=""intro"">Remember to use the <strong><em>entire range</em></strong> of the slider to make your ratings.<br></div><div class=""intro"">Please <strong><em>take your time</em></strong> and carefully consider each rating you make.<br><br></div>","0","",""
"","","","","","call-function","160","2978153","0.0-160.0","1920x1080","","","","","","",""
"","","","","","animation","161","2982568","0.0-161.0","1920x1080","","4414.5","100","img/314/5.5/1.5/bw/001.png","","","natural"
"","","","","","animation","162","2986277","0.0-162.0","1920x1080","","3707.399999999441","0","img/238/2.5/0.66667/bw/001.png","","","natural"
"","","","","","animation","163","3000480","0.0-163.0","1920x1080","","14201.900000000373","70.24","img/238/4.5/1.5/bw/001.png","","","natural"
"","","","","","animation","164","3010352","0.0-164.0","1920x1080","","9870.599999999627","59.66","img/117/3.5/1.5/bw/001.png","","","natural"
"","","","","","animation","165","3013384","0.0-165.0","1920x1080","","3031.0999999996275","0","img/314/2.5/0.5/bw/001.png","","","natural"
"","","","","","animation","166","3023410","0.0-166.0","1920x1080","","10025.100000000559","90.34","img/238/5.5/1/bw/001.png","","","natural"
"","","","","","animation","167","3028170","0.0-167.0","1920x1080","","4765.0999999996275","97","img/314/5.5/0.5/bw/001.png","","","natural"
"","","","","","animation","168","3034369","0.0-168.0","1920x1080","","6198.5","70.11","img/238/3.5/2/bw/001.png","","","natural"
"","","","","","animation","169","3047305","0.0-169.0","1920x1080","","12934.299999999814","90.21","img/238/5.5/2/bw/001.png","","","natural"
"","","","","","animation","170","3053977","0.0-170.0","1920x1080","","6671.5999999996275","39.81","img/238/4/1/bw/001.png","","","natural"
"","","","","","animation","171","3060653","0.0-171.0","1920x1080","","6674.700000000186","59.92","img/117/4/2/bw/001.png","","","natural"
"","","","","","animation","172","3069025","0.0-172.0","1920x1080","","8370.700000000186","40.21","img/117/3.5/1/bw/001.png","","","natural"
"","","","","","animation","173","3074869","0.0-173.0","1920x1080","","5843.5999999996275","59.66","img/117/4.5/0.66667/bw/001.png","","","natural"
"","","","","","animation","174","3081470","0.0-174.0","1920x1080","","6599.299999999814","70.50","img/314/5.5/2/bw/001.png","","","natural"
"","","","","","animation","175","3091070","0.0-175.0","1920x1080","","9601.900000000373","29.76","img/238/4.5/0.66667/bw/001.png","","","natural"
"","","","","","animation","176","3095433","0.0-176.0","1920x1080","","4362.100000000559","60.32","img/314/4/2/bw/001.png","","","natural"
"","","","","","animation","177","3100326","0.0-177.0","1920x1080","","4891.9000000003725","60.45","img/314/4.5/1/bw/001.png","","","natural"
"","","","","","animation","178","3134254","0.0-178.0","1920x1080","","33927","60.19","img/314/4.5/0.66667/bw/001.png","","","natural"
"","","","","","animation","179","3141102","0.0-179.0","1920x1080","","6846.5999999996275","70.63","img/238/5.5/0.66667/bw/001.png","","","natural"
"","","","","","animation","180","3146872","0.0-180.0","1920x1080","","5767.200000000186","59.66","img/314/4.5/2/bw/001.png","","","natural"
"","","","","","animation","181","3154576","0.0-181.0","1920x1080","","7703","69.44","img/238/5.5/0.5/bw/001.png","","","natural"
"","","","","","animation","182","3158817","0.0-182.0","1920x1080","","4240.600000000559","0","img/117/2.5/1.5/bw/001.png","","","natural"
"","","","","","animation","183","3163917","0.0-183.0","1920x1080","","5098","0","img/238/3.5/0.5/bw/001.png","","","natural"
"","","","","","animation","184","3169169","0.0-184.0","1920x1080","","5250.5","60.45","img/314/4/1/bw/001.png","","","natural"
"","","","","","animation","185","3174268","0.0-185.0","1920x1080","","5098.200000000186","19.44","img/314/3.5/2/bw/001.png","","","natural"
"","","","","","animation","186","3180951","0.0-186.0","1920x1080","","6681.9000000003725","0.13","img/238/2.5/2/bw/001.png","","","natural"
"","","","","","animation","187","3188434","0.0-187.0","1920x1080","","7481.700000000186","69.84","img/314/4.5/1.5/bw/001.png","","","natural"
"","","","","","animation","188","3193285","0.0-188.0","1920x1080","","4849.200000000186","0.13","img/117/2.5/2/bw/001.png","","","natural"
"","","","","","animation","189","3202087","0.0-189.0","1920x1080","","8798.700000000186","49.74","img/117/3.5/2/bw/001.png","","","natural"
"","","","","","animation","190","3208815","0.0-190.0","1920x1080","","6728.800000000745","39.55","img/238/4.5/0.5/bw/001.png","","","natural"
"","","","","","animation","191","3212885","0.0-191.0","1920x1080","","4068.7999999998137","29.63","img/238/4.5/1/bw/001.png","","","natural"
"","","","","","animation","192","3215965","0.0-192.0","1920x1080","","3079.399999999441","28.31","img/314/3.5/0.66667/bw/001.png","","","natural"
"","","","","","animation","193","3222198","0.0-193.0","1920x1080","","6232.0999999996275","28.97","img/314/3.5/0.5/bw/001.png","","","natural"
"","","","","","animation","194","3236248","0.0-194.0","1920x1080","","14048.399999999441","40.34","img/314/4/0.66667/bw/001.png","","","natural"
"","","","","","animation","195","3240085","0.0-195.0","1920x1080","","3836","29.63","img/117/3.5/0.66667/bw/001.png","","","natural"
"","","","","","animation","196","3244253","0.0-196.0","1920x1080","","4166.9000000003725","30.16","img/117/3.5/0.5/bw/001.png","","","natural"
"","","","","","animation","197","3248615","0.0-197.0","1920x1080","","4360.899999999441","100","img/117/5.5/0.66667/bw/001.png","","","natural"
"","","","","","animation","198","3253450","0.0-198.0","1920x1080","","4833.0999999996275","70.11","img/238/4.5/2/bw/001.png","","","natural"
"","","","","","animation","199","3259517","0.0-199.0","1920x1080","","6065.800000000745","40.21","img/314/4.5/0.5/bw/001.png","","","natural"
"","","","","","animation","200","3262398","0.0-200.0","1920x1080","","2880","0.00","img/314/2.5/1.5/bw/001.png","","","natural"
"","","","","","animation","201","3267714","0.0-201.0","1920x1080","","5315.799999999814","20.11","img/238/3.5/1.5/bw/001.png","","","natural"
"","","","","","animation","202","3274604","0.0-202.0","1920x1080","","6888.799999999814","22.22","img/314/3.5/1/bw/001.png","","","natural"
"","","","","","animation","203","3280863","0.0-203.0","1920x1080","","6258.200000000186","79.76","img/117/5.5/1.5/bw/001.png","","","natural"
"","","","","","animation","204","3283868","0.0-204.0","1920x1080","","3003.2999999998137","0.40","img/238/2.5/1/bw/001.png","","","natural"
"","","","","","animation","205","3288004","0.0-205.0","1920x1080","","4134.700000000186","0.00","img/314/2.5/2/bw/001.png","","","natural"
"","","","","","animation","206","3293883","0.0-206.0","1920x1080","","5878.399999999441","60.19","img/117/4/1.5/bw/001.png","","","natural"
"","","","","","animation","207","3303455","0.0-207.0","1920x1080","","9570.599999999627","60.45","img/314/5.5/1/bw/001.png","","","natural"
"","","","","","animation","208","3308806","0.0-208.0","1920x1080","","5349.4000000003725","39.81","img/238/3.5/1/bw/001.png","","","natural"
"","","","","","animation","209","3313064","0.0-209.0","1920x1080","","4252.4000000003725","30.03","img/238/4/1.5/bw/001.png","","","natural"
"","","","","","animation","210","3316068","0.0-210.0","1920x1080","","3002.899999999441","29.89","img/238/4/2/bw/001.png","","","natural"
"","","","","","animation","211","3319497","0.0-211.0","1920x1080","","3427.5999999996275","0","img/117/2.5/0.66667/bw/001.png","","","natural"
"","","","","","animation","212","3324189","0.0-212.0","1920x1080","","4689.9000000003725","9.79","img/238/3.5/0.66667/bw/001.png","","","natural"
"","","","","","animation","213","3332782","0.0-213.0","1920x1080","","8590.799999999814","10.45","img/314/4/1.5/bw/001.png","","","natural"
"","","","","","animation","214","3335749","0.0-214.0","1920x1080","","2966.2999999998137","20.63","img/238/4/0.5/bw/001.png","","","natural"
"","","","","","animation","215","3346517","0.0-215.0","1920x1080","","10766.900000000373","29.50","img/117/4/1/bw/001.png","","","natural"
"","","","","","animation","216","3350181","0.0-216.0","1920x1080","","3663","0","img/117/2.5/1/bw/001.png","","","natural"
"","","","","","animation","217","3357805","0.0-217.0","1920x1080","","7622.799999999814","70.11","img/117/5.5/2/bw/001.png","","","natural"
"","","","","","animation","218","3364334","0.0-218.0","1920x1080","","6527.399999999441","79.76","img/117/4.5/1.5/bw/001.png","","","natural"
"","","","","","animation","219","3369998","0.0-219.0","1920x1080","","5662.399999999441","89.81","img/117/5.5/0.5/bw/001.png","","","natural"
"","","","","","animation","220","3375469","0.0-220.0","1920x1080","","5469.5999999996275","60.45","img/314/4/0.5/bw/001.png","","","natural"
"","","","","","animation","221","3382301","0.0-221.0","1920x1080","","6830.5999999996275","90.08","img/314/5.5/0.66667/bw/001.png","","","natural"
"","","","","","animation","222","3385646","0.0-222.0","1920x1080","","3346.4000000003725","0.93","img/314/2.5/0.66667/bw/001.png","","","natural"
"","","","","","animation","223","3390546","0.0-223.0","1920x1080","","4899.4000000003725","69.97","img/117/4.5/0.5/bw/001.png","","","natural"
"","","","","","animation","224","3395387","0.0-224.0","1920x1080","","4839.399999999441","39.68","img/117/4/0.5/bw/001.png","","","natural"
"","","","","","animation","225","3398313","0.0-225.0","1920x1080","","2925.0999999996275","3.44","img/314/2.5/1/bw/001.png","","","natural"
"","","","","","animation","226","3405314","0.0-226.0","1920x1080","","7000.100000000559","59.79","img/117/4.5/2/bw/001.png","","","natural"
"","","","","","animation","227","3410362","0.0-227.0","1920x1080","","5046.899999999441","30.42","img/238/4/0.66667/bw/001.png","","","natural"
"","","","","","animation","228","3414466","0.0-228.0","1920x1080","","4103.200000000186","0.40","img/238/2.5/0.5/bw/001.png","","","natural"
"","","","","","animation","229","3419730","0.0-229.0","1920x1080","","5262.4000000003725","79.63","img/238/5.5/1.5/bw/001.png","","","natural"
"","","","","","animation","230","3426034","0.0-230.0","1920x1080","","6303","90.21","img/117/5.5/1/bw/001.png","","","natural"
"","","","","","animation","231","3432495","0.0-231.0","1920x1080","","6459.299999999814","69.71","img/117/4.5/1/bw/001.png","","","natural"
"","","","","","animation","232","3436146","0.0-232.0","1920x1080","","3649.5999999996275","0.40","img/117/2.5/0.5/bw/001.png","","","natural"
"","","","","","animation","233","3442928","0.0-233.0","1920x1080","","6781.299999999814","10.32","img/314/3.5/1.5/bw/001.png","","","natural"
"","","","","","animation","234","3451614","0.0-234.0","1920x1080","","8679.799999999814","20.11","img/117/4/0.66667/bw/001.png","","","natural"
"","","","","","animation","235","3454099","0.0-235.0","1920x1080","","2484.600000000559","0.93","img/238/2.5/1.5/bw/001.png","","","natural"
"","","","","","html-button-response","236","3478630","0.0-236.0","1920x1080","","24528.5","","<div class=""intro"">You are about to view a new series of animations.<br><br></div><div class=""intro"">You will evaluate them based on a different descriptor.<br><br></div><div class=""intro"">Move the slider to indicate how <strong style=""text-transform:capitalize"">INTERESTING</strong> you find each animation.<br><br></div><div class=""intro"">0 = Least Interesting<br></div><div class=""intro"">1 = Most Interesting<br><br></div><div class=""intro"">Remember to use the <strong><em>entire range</em></strong> of the slider to make your ratings.<br></div><div class=""intro"">Please <strong><em>take your time</em></strong> and carefully consider each rating you make.<br><br></div>","0","",""
"","","","","","call-function","237","3478633","0.0-237.0","1920x1080","","","","","","",""
"","","","","","animation","238","3485452","0.0-238.0","1920x1080","","6818.600000000559","69.97","img/314/3.5/2/bw/001.png","","","interesting"
"","","","","","animation","239","3496279","0.0-239.0","1920x1080","","10826.399999999441","70.37","img/314/4/2/bw/001.png","","","interesting"
"","","","","","animation","240","3505562","0.0-240.0","1920x1080","","9282.900000000373","59.92","img/314/4.5/0.66667/bw/001.png","","","interesting"
"","","","","","animation","241","3511161","0.0-241.0","1920x1080","","5597","69.71","img/238/4/1.5/bw/001.png","","","interesting"
"","","","","","animation","242","3518661","0.0-242.0","1920x1080","","7499","76.46","img/117/5.5/1/bw/001.png","","","interesting"
"","","","","","animation","243","3523328","0.0-243.0","1920x1080","","4665.200000000186","0","img/314/2.5/2/bw/001.png","","","interesting"
"","","","","","animation","244","3538978","0.0-244.0","1920x1080","","15648.700000000186","60.45","img/238/4.5/1/bw/001.png","","","interesting"
"","","","","","animation","245","3543186","0.0-245.0","1920x1080","","4207.4000000003725","60.98","img/238/4.5/1.5/bw/001.png","","","interesting"
"","","","","","animation","246","3548114","0.0-246.0","1920x1080","","4926.200000000186","79.89","img/117/3.5/1.5/bw/001.png","","","interesting"
"","","","","","animation","247","3551777","0.0-247.0","1920x1080","","3661.899999999441","90.48","img/314/3.5/0.5/bw/001.png","","","interesting"
"","","","","","animation","248","3554962","0.0-248.0","1920x1080","","3183.7000000001863","86.24","img/314/4/1.5/bw/001.png","","","interesting"
"","","","","","animation","249","3568375","0.0-249.0","1920x1080","","13414.900000000373","89.95","img/117/3.5/2/bw/001.png","","","interesting"
"","","","","","animation","250","3573248","0.0-250.0","1920x1080","","4870.799999999814","69.97","img/238/4.5/2/bw/001.png","","","interesting"
"","","","","","animation","251","3578743","0.0-251.0","1920x1080","","5494.4000000003725","69.84","img/238/3.5/1/bw/001.png","","","interesting"
"","","","","","animation","252","3583208","0.0-252.0","1920x1080","","4463.700000000186","90.08","img/117/4/1.5/bw/001.png","","","interesting"
"","","","","","animation","253","3586432","0.0-253.0","1920x1080","","3222","0.53","img/314/2.5/1.5/bw/001.png","","","interesting"
"","","","","","animation","254","3592848","0.0-254.0","1920x1080","","6414.700000000186","80.56","img/117/5.5/2/bw/001.png","","","interesting"
"","","","","","animation","255","3597392","0.0-255.0","1920x1080","","4542.299999999814","60.32","img/238/4.5/0.5/bw/001.png","","","interesting"
"","","","","","animation","256","3602242","0.0-256.0","1920x1080","","4848.799999999814","70.37","img/314/3.5/1/bw/001.png","","","interesting"
"","","","","","animation","257","3609358","0.0-257.0","1920x1080","","7115.699999999255","100","img/117/5.5/0.5/bw/001.png","","","interesting"
"","","","","","animation","258","3618526","0.0-258.0","1920x1080","","9165.899999999441","79.50","img/314/4/1/bw/001.png","","","interesting"
"","","","","","animation","259","3624562","0.0-259.0","1920x1080","","6030","0","img/117/2.5/2/bw/001.png","","","interesting"
"","","","","","animation","260","3629302","0.0-260.0","1920x1080","","4739.200000000186","70.24","img/117/4.5/1.5/bw/001.png","","","interesting"
"","","","","","animation","261","3633331","0.0-261.0","1920x1080","","4027.2000000001863","60.05","img/238/4.5/0.66667/bw/001.png","","","interesting"
"","","","","","animation","262","3636251","0.0-262.0","1920x1080","","2918.9000000003725","1.19","img/238/2.5/2/bw/001.png","","","interesting"
"","","","","","animation","263","3648211","0.0-263.0","1920x1080","","11958.800000000745","50","img/238/3.5/2/bw/001.png","","","interesting"
"","","","","","animation","264","3661645","0.0-264.0","1920x1080","","13432.5","30.16","img/238/5.5/0.66667/bw/001.png","","","interesting"
"","","","","","animation","265","3666945","0.0-265.0","1920x1080","","5298.699999999255","59.92","img/238/4/0.5/bw/001.png","","","interesting"
"","","","","","animation","266","3673267","0.0-266.0","1920x1080","","6320.799999999814","29.89","img/314/5.5/2/bw/001.png","","","interesting"
"","","","","","animation","267","3683195","0.0-267.0","1920x1080","","9926.399999999441","20.24","img/238/5.5/1.5/bw/001.png","","","interesting"
"","","","","","animation","268","3687302","0.0-268.0","1920x1080","","4102.5","59.79","img/117/4.5/1/bw/001.png","","","interesting"
"","","","","","animation","269","3692534","0.0-269.0","1920x1080","","5230.399999999441","69.84","img/238/4/0.66667/bw/001.png","","","interesting"
"","","","","","animation","270","3695915","0.0-270.0","1920x1080","","3379.7000000001863","0.53","img/314/2.5/0.5/bw/001.png","","","interesting"
"","","","","","animation","271","3701615","0.0-271.0","1920x1080","","5697.0999999996275","69.71","img/238/5.5/0.5/bw/001.png","","","interesting"
"","","","","","animation","272","3706265","0.0-272.0","1920x1080","","4649.0999999996275","90.48","img/117/3.5/0.5/bw/001.png","","","interesting"
"","","","","","animation","273","3711115","0.0-273.0","1920x1080","","4848.799999999814","100","img/314/5.5/0.5/bw/001.png","","","interesting"
"","","","","","animation","274","3716670","0.0-274.0","1920x1080","","5554.199999999255","100","img/117/4/0.5/bw/001.png","","","interesting"
"","","","","","animation","275","3721132","0.0-275.0","1920x1080","","4460.0999999996275","60.71","img/238/4/2/bw/001.png","","","interesting"
"","","","","","animation","276","3726998","0.0-276.0","1920x1080","","5864.700000000186","70.37","img/238/5.5/1/bw/001.png","","","interesting"
"","","","","","animation","277","3729798","0.0-277.0","1920x1080","","2798.7999999998137","0.93","img/314/2.5/1/bw/001.png","","","interesting"
"","","","","","animation","278","3733532","0.0-278.0","1920x1080","","3732.2000000001863","0","img/117/2.5/1/bw/001.png","","","interesting"
"","","","","","animation","279","3738198","0.0-279.0","1920x1080","","4665.200000000186","69.84","img/238/3.5/1.5/bw/001.png","","","interesting"
"","","","","","animation","280","3742965","0.0-280.0","1920x1080","","4765.399999999441","69.71","img/117/4/0.66667/bw/001.png","","","interesting"
"","","","","","animation","281","3748320","0.0-281.0","1920x1080","","5352.4000000003725","70.11","img/117/4/1/bw/001.png","","","interesting"
"","","","","","animation","282","3753523","0.0-282.0","1920x1080","","5200.700000000186","60.19","img/314/3.5/1.5/bw/001.png","","","interesting"
"","","","","","animation","283","3757584","0.0-283.0","1920x1080","","4059.7000000001863","0","img/238/2.5/0.66667/bw/001.png","","","interesting"
"","","","","","animation","284","3760934","0.0-284.0","1920x1080","","3348.699999999255","0","img/238/2.5/1/bw/001.png","","","interesting"
"","","","","","animation","285","3777968","0.0-285.0","1920x1080","","17033.199999999255","40.48","img/238/4/1/bw/001.png","","","interesting"
"","","","","","animation","286","3783417","0.0-286.0","1920x1080","","5447","59.79","img/117/4/2/bw/001.png","","","interesting"
"","","","","","animation","287","3787884","0.0-287.0","1920x1080","","4465.600000000559","100","img/314/5.5/1/bw/001.png","","","interesting"
"","","","","","animation","288","3795000","0.0-288.0","1920x1080","","7115.100000000559","70.24","img/314/4/0.66667/bw/001.png","","","interesting"
"","","","","","animation","289","3799168","0.0-289.0","1920x1080","","4167.199999999255","100","img/117/5.5/0.66667/bw/001.png","","","interesting"
"","","","","","animation","290","3806886","0.0-290.0","1920x1080","","7703","59.66","img/314/4.5/1.5/bw/001.png","","","interesting"
"","","","","","animation","291","3811346","0.0-291.0","1920x1080","","4459.700000000186","0","img/117/2.5/0.5/bw/001.png","","","interesting"
"","","","","","animation","292","3815196","0.0-292.0","1920x1080","","3848.5999999996275","89.81","img/314/5.5/1.5/bw/001.png","","","interesting"
"","","","","","animation","293","3817718","0.0-293.0","1920x1080","","2520","0.40","img/117/2.5/0.66667/bw/001.png","","","interesting"
"","","","","","animation","294","3822946","0.0-294.0","1920x1080","","5227.700000000186","59.92","img/238/3.5/0.66667/bw/001.png","","","interesting"
"","","","","","animation","295","3827965","0.0-295.0","1920x1080","","5017.5","69.84","img/117/4.5/0.5/bw/001.png","","","interesting"
"","","","","","animation","296","3835022","0.0-296.0","1920x1080","","7055.899999999441","60.85","img/117/3.5/0.66667/bw/001.png","","","interesting"
"","","","","","animation","297","3843333","0.0-297.0","1920x1080","","8309.299999999814","89.81","img/117/4.5/2/bw/001.png","","","interesting"
"","","","","","animation","298","3855501","0.0-298.0","1920x1080","","12167","90.61","img/117/4.5/0.66667/bw/001.png","","","interesting"
"","","","","","animation","299","3859133","0.0-299.0","1920x1080","","3630.4000000003725","0.40","img/238/2.5/0.5/bw/001.png","","","interesting"
"","","","","","animation","300","3862796","0.0-300.0","1920x1080","","3661.5999999996275","60.19","img/314/3.5/0.66667/bw/001.png","","","interesting"
"","","","","","animation","301","3872693","0.0-301.0","1920x1080","","9899","69.97","img/238/3.5/0.5/bw/001.png","","","interesting"
"","","","","","animation","302","3876314","0.0-302.0","1920x1080","","3619.4000000003725","70.11","img/314/4/0.5/bw/001.png","","","interesting"
"","","","","","animation","303","3879626","0.0-303.0","1920x1080","","3310.7999999998137","0.13","img/314/2.5/0.66667/bw/001.png","","","interesting"
"","","","","","animation","304","3885792","0.0-304.0","1920x1080","","6165.100000000559","0.13","img/117/2.5/1.5/bw/001.png","","","interesting"
"","","","","","animation","305","3889594","0.0-305.0","1920x1080","","3799.9000000003725","0","img/238/2.5/1.5/bw/001.png","","","interesting"
"","","","","","animation","306","3894793","0.0-306.0","1920x1080","","5197.5999999996275","100","img/314/5.5/0.66667/bw/001.png","","","interesting"
"","","","","","animation","307","3902317","0.0-307.0","1920x1080","","7520.799999999814","89.68","img/314/4.5/0.5/bw/001.png","","","interesting"
"","","","","","animation","308","3906899","0.0-308.0","1920x1080","","4580.5999999996275","60.32","img/314/4.5/2/bw/001.png","","","interesting"
"","","","","","animation","309","3918192","0.0-309.0","1920x1080","","11292.600000000559","61","img/314/4.5/1/bw/001.png","","","interesting"
"","","","","","animation","310","3923082","0.0-310.0","1920x1080","","4888","100","img/117/5.5/1.5/bw/001.png","","","interesting"
"","","","","","animation","311","3927922","0.0-311.0","1920x1080","","4835","80.03","img/117/3.5/1/bw/001.png","","","interesting"
"","","","","","animation","312","3931389","0.0-312.0","1920x1080","","3465.699999999255","59.66","img/238/5.5/2/bw/001.png","","","interesting"
"","","","","","html-button-response","313","3951598","0.0-313.0","1920x1080","","20206.200000000186","","<div class=""intro"">You are about to view a new series of animations.<br><br></div><div class=""intro"">You will evaluate them based on a different descriptor.<br><br></div><div class=""intro"">Move the slider to indicate how <strong style=""text-transform:capitalize"">RELAXING</strong> you find each animation.<br><br></div><div class=""intro"">0 = Least Relaxing<br></div><div class=""intro"">1 = Most Relaxing<br><br></div><div class=""intro"">Remember to use the <strong><em>entire range</em></strong> of the slider to make your ratings.<br></div><div class=""intro"">Please <strong><em>take your time</em></strong> and carefully consider each rating you make.<br><br></div>","0","",""
"","","","","","call-function","314","3951600","0.0-314.0","1920x1080","","","","","","",""
"","","","","","animation","315","3971162","0.0-315.0","1920x1080","","19561.700000000186","100","img/238/2.5/2/bw/001.png","","","relaxing"
"","","","","","animation","316","3976917","0.0-316.0","1920x1080","","5753.100000000559","100","img/314/5.5/0.66667/bw/001.png","","","relaxing"
"","","","","","animation","317","3984023","0.0-317.0","1920x1080","","7093.600000000559","100","img/314/5.5/1.5/bw/001.png","","","relaxing"
"","","","","","animation","318","3997323","0.0-318.0","1920x1080","","13298.200000000186","30.03","img/117/4/0.66667/bw/001.png","","","relaxing"
"","","","","","animation","319","4015006","0.0-319.0","1920x1080","","17681.599999999627","29.89","img/117/4.5/0.66667/bw/001.png","","","relaxing"
"","","","","","animation","320","4022472","0.0-320.0","1920x1080","","7465.300000000745","69.58","img/238/4/1.5/bw/001.png","","","relaxing"
"","","","","","animation","321","4026372","0.0-321.0","1920x1080","","3896.2999999998137","0","img/117/2.5/0.5/bw/001.png","","","relaxing"
"","","","","","animation","322","4031505","0.0-322.0","1920x1080","","5131.899999999441","0.13","img/314/3.5/0.5/bw/001.png","","","relaxing"
"","","","","","animation","323","4062256","0.0-323.0","1920x1080","","30748.5","92.06","img/117/2.5/1.5/bw/001.png","","","relaxing"
"","","","","","animation","324","4067297","0.0-324.0","1920x1080","","5038.5","30.03","img/238/3.5/0.66667/bw/001.png","","","relaxing"
"","","","","","animation","325","4070811","0.0-325.0","1920x1080","","3513.199999999255","0.79","img/238/2.5/0.66667/bw/001.png","","","relaxing"
"","","","","","animation","326","4073779","0.0-326.0","1920x1080","","2965.399999999441","0.53","img/117/2.5/0.66667/bw/001.png","","","relaxing"
"","","","","","animation","327","4077560","0.0-327.0","1920x1080","","3780.2000000001863","100","img/238/3.5/2/bw/001.png","","","relaxing"
"","","","","","animation","328","4082640","0.0-328.0","1920x1080","","5078","89.68","img/314/3.5/1.5/bw/001.png","","","relaxing"
"","","","","","animation","329","4090106","0.0-329.0","1920x1080","","7464.799999999814","70.11","img/238/3.5/1.5/bw/001.png","","","relaxing"
"","","","","","animation","330","4098106","0.0-330.0","1920x1080","","7998.700000000186","100","img/314/2.5/2/bw/001.png","","","relaxing"
"","","","","","animation","331","4105366","0.0-331.0","1920x1080","","7265.0999999996275","39.95","img/314/4.5/0.5/bw/001.png","","","relaxing"
"","","","","","animation","332","4114892","0.0-332.0","1920x1080","","9524.900000000373","79.63","img/238/5.5/1.5/bw/001.png","","","relaxing"
"","","","","","animation","333","4123483","0.0-333.0","1920x1080","","8588.700000000186","39.81","img/238/3.5/1/bw/001.png","","","relaxing"
"","","","","","animation","334","4126399","0.0-334.0","1920x1080","","2915.5","0","img/314/2.5/0.5/bw/001.png","","","relaxing"
"","","","","","animation","335","4131016","0.0-335.0","1920x1080","","4615.5999999996275","0.13","img/117/4.5/1/bw/001.png","","","relaxing"
"","","","","","animation","336","4135033","0.0-336.0","1920x1080","","4015.600000000559","0.53","img/314/4/1/bw/001.png","","","relaxing"
"","","","","","animation","337","4143185","0.0-337.0","1920x1080","","8151","79.76","img/117/5.5/2/bw/001.png","","","relaxing"
"","","","","","animation","338","4153798","0.0-338.0","1920x1080","","10610.100000000559","90.08","img/117/2.5/1/bw/001.png","","","relaxing"
"","","","","","animation","339","4162899","0.0-339.0","1920x1080","","9099","30.42","img/117/3.5/0.66667/bw/001.png","","","relaxing"
"","","","","","animation","340","4167492","0.0-340.0","1920x1080","","4582.4000000003725","100","img/117/5.5/1/bw/001.png","","","relaxing"
"","","","","","animation","341","4171999","0.0-341.0","1920x1080","","4504.299999999814","100","img/117/4/1.5/bw/001.png","","","relaxing"
"","","","","","animation","342","4176131","0.0-342.0","1920x1080","","4130.799999999814","100","img/238/4/1/bw/001.png","","","relaxing"
"","","","","","animation","343","4181909","0.0-343.0","1920x1080","","5775","100","img/117/5.5/0.66667/bw/001.png","","","relaxing"
"","","","","","animation","344","4193109","0.0-344.0","1920x1080","","11198.299999999814","10","img/117/3.5/1/bw/001.png","","","relaxing"
"","","","","","animation","345","4200965","0.0-345.0","1920x1080","","7854.299999999814","50.40","img/314/2.5/1/bw/001.png","","","relaxing"
"","","","","","animation","346","4208303","0.0-346.0","1920x1080","","7336.0999999996275","-0.13","img/117/4/0.5/bw/001.png","","","relaxing"
"","","","","","animation","347","4211392","0.0-347.0","1920x1080","","3088.0999999996275","1.19","img/117/3.5/0.5/bw/001.png","","","relaxing"
"","","","","","animation","348","4216916","0.0-348.0","1920x1080","","5522.200000000186","0.40","img/238/4.5/0.66667/bw/001.png","","","relaxing"
"","","","","","animation","349","4221794","0.0-349.0","1920x1080","","4876.299999999814","0","img/314/4.5/0.66667/bw/001.png","","","relaxing"
"","","","","","animation","350","4231049","0.0-350.0","1920x1080","","9252.799999999814","90.34","img/314/5.5/1/bw/001.png","","","relaxing"
"","","","","","animation","351","4235312","0.0-351.0","1920x1080","","4260.100000000559","100","img/238/2.5/1/bw/001.png","","","relaxing"
"","","","","","animation","352","4244014","0.0-352.0","1920x1080","","8700.200000000186","80.03","img/314/5.5/0.5/bw/001.png","","","relaxing"
"","","","","","animation","353","4252133","0.0-353.0","1920x1080","","8116","40.21","img/314/4/0.66667/bw/001.png","","","relaxing"
"","","","","","animation","354","4257998","0.0-354.0","1920x1080","","5863.700000000186","30.42","img/314/3.5/0.66667/bw/001.png","","","relaxing"
"","","","","","animation","355","4266576","0.0-355.0","1920x1080","","8575.5","10.45","img/238/4/0.66667/bw/001.png","","","relaxing"
"","","","","","animation","356","4274810","0.0-356.0","1920x1080","","8232","100","img/238/2.5/1.5/bw/001.png","","","relaxing"
"","","","","","animation","357","4278843","0.0-357.0","1920x1080","","4031.5","100","img/117/5.5/1.5/bw/001.png","","","relaxing"
"","","","","","animation","358","4282467","0.0-358.0","1920x1080","","3622.9000000003725","89.81","img/314/4.5/1.5/bw/001.png","","","relaxing"
"","","","","","animation","359","4293001","0.0-359.0","1920x1080","","10540.5","0","img/238/4/0.5/bw/001.png","","","relaxing"
"","","","","","animation","360","4304552","0.0-360.0","1920x1080","","11549.5","88.62","img/117/4.5/1.5/bw/001.png","","","relaxing"
"","","","","","animation","361","4313052","0.0-361.0","1920x1080","","8497.400000000373","89.42","img/238/4/2/bw/001.png","","","relaxing"
"","","","","","animation","362","4318644","0.0-362.0","1920x1080","","5590.700000000186","100","img/238/5.5/0.66667/bw/001.png","","","relaxing"
"","","","","","animation","363","4337240","0.0-363.0","1920x1080","","18594.39999999944","100","img/314/2.5/1.5/bw/001.png","","","relaxing"
"","","","","","animation","364","4341978","0.0-364.0","1920x1080","","4736.4000000003725","100","img/314/5.5/2/bw/001.png","","","relaxing"
"","","","","","animation","365","4347555","0.0-365.0","1920x1080","","5576.5999999996275","100","img/238/4.5/2/bw/001.png","","","relaxing"
"","","","","","animation","366","4350358","0.0-366.0","1920x1080","","2801.4000000003725","0","img/314/2.5/0.66667/bw/001.png","","","relaxing"
"","","","","","animation","367","4353167","0.0-367.0","1920x1080","","2807.5999999996275","100","img/238/5.5/2/bw/001.png","","","relaxing"
"","","","","","animation","368","4356603","0.0-368.0","1920x1080","","3434.5999999996275","0.79","img/238/4.5/0.5/bw/001.png","","","relaxing"
"","","","","","animation","369","4359787","0.0-369.0","1920x1080","","3182.600000000559","89.81","img/238/5.5/1/bw/001.png","","","relaxing"
"","","","","","animation","370","4362403","0.0-370.0","1920x1080","","2614.7000000001863","100","img/117/2.5/2/bw/001.png","","","relaxing"
"","","","","","animation","371","4365600","0.0-371.0","1920x1080","","3196.2000000001863","100","img/314/3.5/2/bw/001.png","","","relaxing"
"","","","","","animation","372","4368803","0.0-372.0","1920x1080","","3201.2000000001863","60.58","img/117/4.5/0.5/bw/001.png","","","relaxing"
"","","","","","animation","373","4372399","0.0-373.0","1920x1080","","3595.5","100","img/117/3.5/1.5/bw/001.png","","","relaxing"
"","","","","","animation","374","4375355","0.0-374.0","1920x1080","","2954","100","img/117/4/2/bw/001.png","","","relaxing"
"","","","","","animation","375","4383371","0.0-375.0","1920x1080","","8013.299999999814","39.55","img/314/4/0.5/bw/001.png","","","relaxing"
"","","","","","animation","376","4387235","0.0-376.0","1920x1080","","3861.800000000745","30.56","img/117/4/1/bw/001.png","","","relaxing"
"","","","","","animation","377","4390919","0.0-377.0","1920x1080","","3682.5","20.90","img/314/4.5/1/bw/001.png","","","relaxing"
"","","","","","animation","378","4404189","0.0-378.0","1920x1080","","13269.700000000186","69.97","img/314/4/1.5/bw/001.png","","","relaxing"
"","","","","","animation","379","4406669","0.0-379.0","1920x1080","","2478.399999999441","1.19","img/238/3.5/0.5/bw/001.png","","","relaxing"
"","","","","","animation","380","4409866","0.0-380.0","1920x1080","","3194.7999999998137","91.67","img/314/4/2/bw/001.png","","","relaxing"
"","","","","","animation","381","4414334","0.0-381.0","1920x1080","","4466.700000000186","80.16","img/238/4.5/1.5/bw/001.png","","","relaxing"
"","","","","","animation","382","4418956","0.0-382.0","1920x1080","","4620.9000000003725","89.55","img/314/4.5/2/bw/001.png","","","relaxing"
"","","","","","animation","383","4422621","0.0-383.0","1920x1080","","3663.100000000559","100","img/117/5.5/0.5/bw/001.png","","","relaxing"
"","","","","","animation","384","4425584","0.0-384.0","1920x1080","","2961.7000000001863","100","img/238/5.5/0.5/bw/001.png","","","relaxing"
"","","","","","animation","385","4429882","0.0-385.0","1920x1080","","4296.399999999441","100","img/238/4.5/1/bw/001.png","","","relaxing"
"","","","","","animation","386","4432357","0.0-386.0","1920x1080","","2473.2999999998137","100","img/117/4.5/2/bw/001.png","","","relaxing"
"","","","","","animation","387","4435495","0.0-387.0","1920x1080","","3136.7999999998137","100","img/117/3.5/2/bw/001.png","","","relaxing"
"","","","","","animation","388","4440107","0.0-388.0","1920x1080","","4611","63.49","img/314/3.5/1/bw/001.png","","","relaxing"
"","","","","","animation","389","4443768","0.0-389.0","1920x1080","","3659.600000000559","0","img/238/2.5/0.5/bw/001.png","","","relaxing"
"","","","","","html-button-response","390","4507332","0.0-390.0","1920x1080","","63548","","<strong>Study Debriefing</strong><br><p class=""debrief""><strong>Background:</strong> The patterns you rated are called <em>fractals</em>. The term fractal describes a class of irregular curves or shapes for which any suitably chosen part is similar in shape to a given larger or smaller part when magnified or reduced to the same size. Fractal properties are found throughout the natural and manmade world. The series of animations you saw today displayed animated fractal patterns of a varying complexity.</p><p class=""debrief""><strong>Purpose of this study:</strong> We hope to better understand how the perception of static fractals differs from the perception of animated fractals, and how the speed of the animated patterns influences people&apos;s perception of them. Fractals allow us to study the perception of aesthetic properties (e.g. the perceived level of beauty in an image) without using recognizable content, which makes them an excellent tool for studying abstract aesthetic judgement.</p><p class=""debrief""><strong>Your part:</strong> Your participation has helped us to further understand how humans perceive these patterns across different levels of speed and complexity. This research with allow us to better understand how the visual system and brain process our ever-changing visual environments.<p class=""debrief""><strong>Feedback and Further information:</strong> If you have additional questions about this study, please feel free to ask the researcher, Nathan Gonzales-Hess at nhess @ uoregon.edu. If you have any questions concerning your rights as a research participant, please contact Research Compliance Services, 5237 University of Oregon, Eugene, OR 97403, 541-346-2510, or email researchCompliance @ uoregon.edu. You can also email the Human Subjects Coordinator for psychology and linguistics research at hscoord @ uoregon.edu. ","0","",""
"","","","","","html-button-response","391","4513863","0.0-391.0","1920x1080","","6527.4000000003725","","Thank you for participating in this study. <br>Please click below to finish the experiment and submit your responses.<br><br>","0","",""
"true","","","","","fullscreen","392","4514890","0.0-392.0","1920x1080","13:7 27/10/2022","","","","","",""
