"success","timeout","failed_images","failed_audio","failed_video","trial_type","trial_index","time_elapsed","internal_node_id","resolution","timeStamp","rt","response","stimulus","button_pressed","value","descriptor"
"true","false","[]","[]","[]","preload","0","21603","0.0-0.0","1920x1080","","","","","","",""
"true","false","[]","[]","[]","preload","1","42561","0.0-1.0","1920x1080","","","","","","",""
"true","false","[]","[]","[]","preload","2","63456","0.0-2.0","1920x1080","","","","","","",""
"true","","","","","fullscreen","3","75877","0.0-3.0","1920x1080","14:36 2/6/2022","","","","","",""
"","","","","","survey-html-form","4","87638","0.0-4.0","1920x1080","","11758.600000143051","{""age"":""19"",""gender"":""male""}","","","",""
"","","","","","html-button-response","5","112238","0.0-5.0","1920x1080","","24598.700000047684","","<div class=""complex"">You are going to see a series of animations.<br><br></div><div class=""complex"">Move the slider to indicate how <strong style=""text-transform:capitalize"">COMPLEX</strong> you find each animation.<br><br></div><div class=""complex"">0 = Least Complex<br></div><div class=""complex"">1 = Most Complex<br><br></div><div class=""complex"">Remember to use the <strong><em>entire range</em></strong> of the slider to make your ratings.<br></div><div class=""complex"">Please <strong><em>take your time</em></strong> and carefully consider each rating you make.<br><br></div><div class=""complex"">The study has five sections and will take about 45 minutes to complete.<br><br></div>","0","",""
"","","","","","call-function","6","112238","0.0-6.0","1920x1080","","","","","","",""
"","","","","","animation","7","124686","0.0-7.0","1920x1080","","12445.100000143051","59.66","img/238/3.5/0.66667/bw/001.png","","","complex"
"","","","","","animation","8","136957","0.0-8.0","1920x1080","","12269.899999856949","67.72","img/238/2.5/1.5/bw/001.png","","","complex"
"","","","","","animation","9","141246","0.0-9.0","1920x1080","","4287.199999809265","67.72","img/238/2.5/0.66667/bw/001.png","","","complex"
"","","","","","animation","10","149294","0.0-10.0","1920x1080","","8047","34.66","img/238/4.5/1.5/bw/001.png","","","complex"
"","","","","","animation","11","161302","0.0-11.0","1920x1080","","12007.100000143051","68.25","img/238/2.5/1/bw/001.png","","","complex"
"","","","","","animation","12","168262","0.0-12.0","1920x1080","","6958.900000095367","39.95","img/314/4.5/1/bw/001.png","","","complex"
"","","","","","animation","13","177166","0.0-13.0","1920x1080","","8903.200000047684","69.71","img/117/2.5/1/bw/001.png","","","complex"
"","","","","","animation","14","192966","0.0-14.0","1920x1080","","15798.799999952316","22.22","img/238/5.5/2/bw/001.png","","","complex"
"","","","","","animation","15","199830","0.0-15.0","1920x1080","","6863.400000095367","29.50","img/117/5.5/0.66667/bw/001.png","","","complex"
"","","","","","animation","16","209526","0.0-16.0","1920x1080","","9694.899999856949","70.24","img/117/2.5/0.5/bw/001.png","","","complex"
"","","","","","animation","17","213854","0.0-17.0","1920x1080","","4327.400000095367","33.33","img/314/4.5/0.66667/bw/001.png","","","complex"
"","","","","","animation","18","226686","0.0-18.0","1920x1080","","12830.799999952316","54.23","img/117/4/0.66667/bw/001.png","","","complex"
"","","","","","animation","19","236374","0.0-19.0","1920x1080","","9686.799999952316","27.51","img/238/5.5/0.66667/bw/001.png","","","complex"
"","","","","","animation","20","242446","0.0-20.0","1920x1080","","6071.299999952316","28.44","img/314/5.5/1.5/bw/001.png","","","complex"
"","","","","","animation","21","248630","0.0-21.0","1920x1080","","6183.099999904633","70.90","img/117/2.5/0.66667/bw/001.png","","","complex"
"","","","","","animation","22","275374","0.0-22.0","1920x1080","","26743","50.13","img/314/4/0.66667/bw/001.png","","","complex"
"","","","","","animation","23","288118","0.0-23.0","1920x1080","","12743.900000095367","53","img/117/4.5/0.66667/bw/001.png","","","complex"
"","","","","","animation","24","293894","0.0-24.0","1920x1080","","5774.599999904633","29.63","img/238/5.5/1.5/bw/001.png","","","complex"
"","","","","","animation","25","302830","0.0-25.0","1920x1080","","8935.5","49.74","img/238/4.5/0.66667/bw/001.png","","","complex"
"","","","","","animation","26","306798","0.0-26.0","1920x1080","","3967.4000000953674","69.05","img/117/3.5/0.5/bw/001.png","","","complex"
"","","","","","animation","27","309646","0.0-27.0","1920x1080","","2847.2000000476837","74.47","img/314/3.5/0.5/bw/001.png","","","complex"
"","","","","","animation","28","317326","0.0-28.0","1920x1080","","7679.199999809265","52","img/314/4.5/0.5/bw/001.png","","","complex"
"","","","","","animation","29","324542","0.0-29.0","1920x1080","","7215.299999952316","70.50","img/314/3.5/1/bw/001.png","","","complex"
"","","","","","animation","30","333640","0.0-30.0","1920x1080","","9096.800000190735","49.87","img/238/4.5/0.5/bw/001.png","","","complex"
"","","","","","animation","31","339126","0.0-31.0","1920x1080","","5485.099999904633","81.75","img/314/2.5/2/bw/001.png","","","complex"
"","","","","","animation","32","350623","0.0-32.0","1920x1080","","11495.899999856949","45.63","img/117/4.5/1.5/bw/001.png","","","complex"
"","","","","","animation","33","357151","0.0-33.0","1920x1080","","6527.099999904633","65.87","img/117/3.5/1/bw/001.png","","","complex"
"","","","","","animation","34","361856","0.0-34.0","1920x1080","","4704.099999904633","72.75","img/314/2.5/0.66667/bw/001.png","","","complex"
"","","","","","animation","35","370240","0.0-35.0","1920x1080","","8383.600000143051","51.98","img/314/4/0.5/bw/001.png","","","complex"
"","","","","","animation","36","372974","0.0-36.0","1920x1080","","2733.699999809265","78.17","img/314/2.5/0.5/bw/001.png","","","complex"
"","","","","","animation","37","380119","0.0-37.0","1920x1080","","7143.799999952316","76.85","img/117/2.5/2/bw/001.png","","","complex"
"","","","","","animation","38","390351","0.0-38.0","1920x1080","","10231.399999856949","39.68","img/117/4/2/bw/001.png","","","complex"
"","","","","","animation","39","395526","0.0-39.0","1920x1080","","5174.700000047684","58.99","img/117/3.5/2/bw/001.png","","","complex"
"","","","","","animation","40","400814","0.0-40.0","1920x1080","","5287.300000190735","27","img/117/5.5/1.5/bw/001.png","","","complex"
"","","","","","animation","41","406310","0.0-41.0","1920x1080","","5492.5","52.38","img/238/4/0.5/bw/001.png","","","complex"
"","","","","","animation","42","409023","0.0-42.0","1920x1080","","2712","53.17","img/238/4/1.5/bw/001.png","","","complex"
"","","","","","animation","43","412167","0.0-43.0","1920x1080","","3142.5","63.76","img/117/3.5/0.66667/bw/001.png","","","complex"
"","","","","","animation","44","415566","0.0-44.0","1920x1080","","3399.0999999046326","53.57","img/117/4.5/0.5/bw/001.png","","","complex"
"","","","","","animation","45","420382","0.0-45.0","1920x1080","","4815.099999904633","56.48","img/314/3.5/1.5/bw/001.png","","","complex"
"","","","","","animation","46","423273","0.0-46.0","1920x1080","","2889.899999856949","75","img/238/2.5/0.5/bw/001.png","","","complex"
"","","","","","animation","47","425742","0.0-47.0","1920x1080","","2468.2999999523163","54.10","img/117/4/1/bw/001.png","","","complex"
"","","","","","animation","48","428656","0.0-48.0","1920x1080","","2913","38.76","img/117/4.5/1/bw/001.png","","","complex"
"","","","","","animation","49","432758","0.0-49.0","1920x1080","","4101.5","27","img/238/5.5/0.5/bw/001.png","","","complex"
"","","","","","animation","50","436678","0.0-50.0","1920x1080","","3919.2999999523163","53.17","img/314/3.5/2/bw/001.png","","","complex"
"","","","","","animation","51","441255","0.0-51.0","1920x1080","","4576","48","img/238/4/2/bw/001.png","","","complex"
"","","","","","animation","52","444718","0.0-52.0","1920x1080","","3462.7000000476837","26.46","img/314/5.5/2/bw/001.png","","","complex"
"","","","","","animation","53","452208","0.0-53.0","1920x1080","","7488.200000047684","27.12","img/314/5.5/1/bw/001.png","","","complex"
"","","","","","animation","54","459846","0.0-54.0","1920x1080","","7637.900000095367","32.94","img/314/5.5/0.66667/bw/001.png","","","complex"
"","","","","","animation","55","464456","0.0-55.0","1920x1080","","4608.599999904633","74.47","img/314/2.5/1.5/bw/001.png","","","complex"
"","","","","","animation","56","468056","0.0-56.0","1920x1080","","3598.899999856949","62.70","img/238/3.5/1/bw/001.png","","","complex"
"","","","","","animation","57","472262","0.0-57.0","1920x1080","","4205","74.21","img/314/2.5/1/bw/001.png","","","complex"
"","","","","","animation","58","474591","0.0-58.0","1920x1080","","2326.7999999523163","35.45","img/314/4.5/2/bw/001.png","","","complex"
"","","","","","animation","59","480583","0.0-59.0","1920x1080","","5991.699999809265","62.04","img/238/3.5/0.5/bw/001.png","","","complex"
"","","","","","animation","60","482895","0.0-60.0","1920x1080","","2310.800000190735","43.25","img/314/4.5/1.5/bw/001.png","","","complex"
"","","","","","animation","61","485343","0.0-61.0","1920x1080","","2447.0999999046326","51.46","img/117/4/1.5/bw/001.png","","","complex"
"","","","","","animation","62","487415","0.0-62.0","1920x1080","","2071.2999999523163","55.82","img/117/3.5/1.5/bw/001.png","","","complex"
"","","","","","animation","63","490073","0.0-63.0","1920x1080","","2657.0999999046326","74.34","img/238/2.5/2/bw/001.png","","","complex"
"","","","","","animation","64","493215","0.0-64.0","1920x1080","","3141.100000143051","76.19","img/117/2.5/1.5/bw/001.png","","","complex"
"","","","","","animation","65","495719","0.0-65.0","1920x1080","","2503","30.42","img/238/4.5/2/bw/001.png","","","complex"
"","","","","","animation","66","498391","0.0-66.0","1920x1080","","2670.7000000476837","51.46","img/238/4/1/bw/001.png","","","complex"
"","","","","","animation","67","500351","0.0-67.0","1920x1080","","1959.6999998092651","53.84","img/314/4/1.5/bw/001.png","","","complex"
"","","","","","animation","68","503903","0.0-68.0","1920x1080","","3551","44","img/117/4.5/2/bw/001.png","","","complex"
"","","","","","animation","69","508727","0.0-69.0","1920x1080","","4823.099999904633","29","img/117/5.5/0.5/bw/001.png","","","complex"
"","","","","","animation","70","514119","0.0-70.0","1920x1080","","5391.199999809265","28","img/117/5.5/2/bw/001.png","","","complex"
"","","","","","animation","71","517631","0.0-71.0","1920x1080","","3511.0999999046326","59.92","img/314/3.5/0.66667/bw/001.png","","","complex"
"","","","","","animation","72","523415","0.0-72.0","1920x1080","","5783.200000047684","60.58","img/314/4/1/bw/001.png","","","complex"
"","","","","","animation","73","529224","0.0-73.0","1920x1080","","5808.599999904633","58.73","img/117/4/0.5/bw/001.png","","","complex"
"","","","","","animation","74","533031","0.0-74.0","1920x1080","","3805.7999999523163","33.20","img/314/5.5/0.5/bw/001.png","","","complex"
"","","","","","animation","75","535274","0.0-75.0","1920x1080","","2242.100000143051","52.12","img/238/3.5/1.5/bw/001.png","","","complex"
"","","","","","animation","76","537847","0.0-76.0","1920x1080","","2572.2000000476837","42.86","img/238/4.5/1/bw/001.png","","","complex"
"","","","","","animation","77","543631","0.0-77.0","1920x1080","","5783.099999904633","60.19","img/238/3.5/2/bw/001.png","","","complex"
"","","","","","animation","78","545874","0.0-78.0","1920x1080","","2242.2000000476837","58.60","img/238/4/0.66667/bw/001.png","","","complex"
"","","","","","animation","79","548295","0.0-79.0","1920x1080","","2419.7999999523163","35.71","img/117/5.5/1/bw/001.png","","","complex"
"","","","","","animation","80","550527","0.0-80.0","1920x1080","","2230.800000190735","29.76","img/238/5.5/1/bw/001.png","","","complex"
"","","","","","animation","81","553479","0.0-81.0","1920x1080","","2951.4000000953674","50.00","img/314/4/2/bw/001.png","","","complex"
"","","","","","html-button-response","82","573232","0.0-82.0","1920x1080","","19751.299999952316","","<div class=""intro"">You are about to view a new series of animations.<br><br></div><div class=""intro"">You will evaluate them based on a different descriptor.<br><br></div><div class=""intro"">Move the slider to indicate how <strong style=""text-transform:capitalize"">NATURAL</strong> you find each animation.<br><br></div><div class=""intro"">0 = Least Natural<br></div><div class=""intro"">1 = Most Natural<br><br></div><div class=""intro"">Remember to use the <strong><em>entire range</em></strong> of the slider to make your ratings.<br></div><div class=""intro"">Please <strong><em>take your time</em></strong> and carefully consider each rating you make.<br><br></div>","0","",""
"","","","","","call-function","83","573233","0.0-83.0","1920x1080","","","","","","",""
"","","","","","animation","84","593143","0.0-84.0","1920x1080","","19909.599999904633","26","img/238/3.5/0.66667/bw/001.png","","","natural"
"","","","","","animation","85","597458","0.0-85.0","1920x1080","","4314.200000047684","64.42","img/117/5.5/2/bw/001.png","","","natural"
"","","","","","animation","86","599983","0.0-86.0","1920x1080","","2524.2999999523163","2","img/117/3.5/0.5/bw/001.png","","","natural"
"","","","","","animation","87","603407","0.0-87.0","1920x1080","","3422.7000000476837","0.40","img/314/2.5/0.5/bw/001.png","","","natural"
"","","","","","animation","88","612073","0.0-88.0","1920x1080","","8665.5","90.34","img/117/5.5/0.66667/bw/001.png","","","natural"
"","","","","","animation","89","614447","0.0-89.0","1920x1080","","2373","75.66","img/117/5.5/0.5/bw/001.png","","","natural"
"","","","","","animation","90","623441","0.0-90.0","1920x1080","","8993.700000047684","64.29","img/314/4.5/1/bw/001.png","","","natural"
"","","","","","animation","91","644631","0.0-91.0","1920x1080","","21188.900000095367","54.50","img/314/4.5/2/bw/001.png","","","natural"
"","","","","","animation","92","647431","0.0-92.0","1920x1080","","2799","31.88","img/117/4/0.5/bw/001.png","","","natural"
"","","","","","animation","93","651215","0.0-93.0","1920x1080","","3783.2000000476837","22","img/314/4/0.66667/bw/001.png","","","natural"
"","","","","","animation","94","655707","0.0-94.0","1920x1080","","4491.099999904633","59.66","img/238/4.5/1.5/bw/001.png","","","natural"
"","","","","","animation","95","665240","0.0-95.0","1920x1080","","9532.100000143051","94.05","img/117/5.5/1.5/bw/001.png","","","natural"
"","","","","","animation","96","670231","0.0-96.0","1920x1080","","4990.200000047684","0.00","img/117/2.5/1/bw/001.png","","","natural"
"","","","","","animation","97","680927","0.0-97.0","1920x1080","","10694.599999904633","-0.53","img/314/2.5/0.66667/bw/001.png","","","natural"
"","","","","","animation","98","686199","0.0-98.0","1920x1080","","5269.599999904633","1.59","img/117/2.5/1.5/bw/001.png","","","natural"
"","","","","","animation","99","692223","0.0-99.0","1920x1080","","6022.5","68","img/238/5.5/2/bw/001.png","","","natural"
"","","","","","animation","100","696743","0.0-100.0","1920x1080","","4519.200000047684","76.46","img/314/5.5/1/bw/001.png","","","natural"
"","","","","","animation","101","700247","0.0-101.0","1920x1080","","3503.300000190735","66.27","img/314/4/2/bw/001.png","","","natural"
"","","","","","animation","102","704063","0.0-102.0","1920x1080","","3814.7999999523163","54.76","img/117/3.5/2/bw/001.png","","","natural"
"","","","","","animation","103","706907","0.0-103.0","1920x1080","","2842.199999809265","8.86","img/314/2.5/2/bw/001.png","","","natural"
"","","","","","animation","104","710324","0.0-104.0","1920x1080","","3416.2000000476837","62.04","img/117/4.5/1.5/bw/001.png","","","natural"
"","","","","","animation","105","722848","0.0-105.0","1920x1080","","12522.299999952316","15","img/238/4.5/1/bw/001.png","","","natural"
"","","","","","animation","106","735247","0.0-106.0","1920x1080","","12398.599999904633","44.84","img/117/4.5/0.66667/bw/001.png","","","natural"
"","","","","","animation","107","739527","0.0-107.0","1920x1080","","4279","72","img/117/5.5/1/bw/001.png","","","natural"
"","","","","","animation","108","744551","0.0-108.0","1920x1080","","5022.900000095367","52","img/238/5.5/1/bw/001.png","","","natural"
"","","","","","animation","109","748175","0.0-109.0","1920x1080","","3622.7000000476837","34.66","img/238/3.5/1/bw/001.png","","","natural"
"","","","","","animation","110","754458","0.0-110.0","1920x1080","","6281.399999856949","65","img/238/4/1.5/bw/001.png","","","natural"
"","","","","","animation","111","784512","0.0-111.0","1920x1080","","30052.300000190735","59.13","img/314/3.5/2/bw/001.png","","","natural"
"","","","","","animation","112","787327","0.0-112.0","1920x1080","","2814.7000000476837","55.56","img/238/4/2/bw/001.png","","","natural"
"","","","","","animation","113","796706","0.0-113.0","1920x1080","","9378.200000047684","75.66","img/238/4/0.5/bw/001.png","","","natural"
"","","","","","animation","114","800784","0.0-114.0","1920x1080","","4076.0999999046326","42.06","img/314/4/1/bw/001.png","","","natural"
"","","","","","animation","115","806759","0.0-115.0","1920x1080","","5974.699999809265","16.53","img/314/5.5/0.5/bw/001.png","","","natural"
"","","","","","animation","116","810656","0.0-116.0","1920x1080","","3895.7999999523163","34.92","img/238/3.5/2/bw/001.png","","","natural"
"","","","","","animation","117","815940","0.0-117.0","1920x1080","","5282.899999856949","91.93","img/238/5.5/1.5/bw/001.png","","","natural"
"","","","","","animation","118","820968","0.0-118.0","1920x1080","","5026.900000095367","26.72","img/238/4.5/2/bw/001.png","","","natural"
"","","","","","animation","119","825340","0.0-119.0","1920x1080","","4371","67.59","img/238/4.5/0.5/bw/001.png","","","natural"
"","","","","","animation","120","830123","0.0-120.0","1920x1080","","4782.5","28.57","img/314/3.5/1.5/bw/001.png","","","natural"
"","","","","","animation","121","864816","0.0-121.0","1920x1080","","34691.39999985695","23.81","img/238/2.5/2/bw/001.png","","","natural"
"","","","","","animation","122","871540","0.0-122.0","1920x1080","","6722.5","62.83","img/314/2.5/1.5/bw/001.png","","","natural"
"","","","","","animation","123","881607","0.0-123.0","1920x1080","","10066.700000047684","60.19","img/238/3.5/1.5/bw/001.png","","","natural"
"","","","","","animation","124","899440","0.0-124.0","1920x1080","","17831.60000014305","1.19","img/314/2.5/1/bw/001.png","","","natural"
"","","","","","animation","125","905168","0.0-125.0","1920x1080","","5727","100","img/314/5.5/1.5/bw/001.png","","","natural"
"","","","","","animation","126","909325","0.0-126.0","1920x1080","","4154.5","99","img/314/5.5/2/bw/001.png","","","natural"
"","","","","","animation","127","915607","0.0-127.0","1920x1080","","6280.200000047684","69.58","img/314/5.5/0.66667/bw/001.png","","","natural"
"","","","","","animation","128","926423","0.0-128.0","1920x1080","","10815","44.44","img/314/4.5/1.5/bw/001.png","","","natural"
"","","","","","animation","129","930647","0.0-129.0","1920x1080","","4223.099999904633","0.53","img/117/2.5/0.5/bw/001.png","","","natural"
"","","","","","animation","130","947456","0.0-130.0","1920x1080","","16806.5","56.35","img/117/4.5/2/bw/001.png","","","natural"
"","","","","","animation","131","950584","0.0-131.0","1920x1080","","3126.7999999523163","25.53","img/238/2.5/1.5/bw/001.png","","","natural"
"","","","","","animation","132","952607","0.0-132.0","1920x1080","","2022.5","43.12","img/314/4/1.5/bw/001.png","","","natural"
"","","","","","animation","133","960200","0.0-133.0","1920x1080","","7591.400000095367","18.65","img/117/2.5/2/bw/001.png","","","natural"
"","","","","","animation","134","963192","0.0-134.0","1920x1080","","2990.300000190735","57.14","img/117/4/2/bw/001.png","","","natural"
"","","","","","animation","135","970768","0.0-135.0","1920x1080","","7575.600000143051","66.67","img/117/3.5/0.66667/bw/001.png","","","natural"
"","","","","","animation","136","979128","0.0-136.0","1920x1080","","8356.100000143051","19.31","img/238/4.5/0.66667/bw/001.png","","","natural"
"","","","","","animation","137","982840","0.0-137.0","1920x1080","","3710.600000143051","0.13","img/238/2.5/0.5/bw/001.png","","","natural"
"","","","","","animation","138","988848","0.0-138.0","1920x1080","","6007.100000143051","53.04","img/117/4.5/1/bw/001.png","","","natural"
"","","","","","animation","139","992490","0.0-139.0","1920x1080","","3641","0.93","img/238/3.5/0.5/bw/001.png","","","natural"
"","","","","","animation","140","998728","0.0-140.0","1920x1080","","6236.700000047684","34.13","img/117/4/1.5/bw/001.png","","","natural"
"","","","","","animation","141","1005776","0.0-141.0","1920x1080","","7046.800000190735","65","img/314/4/0.5/bw/001.png","","","natural"
"","","","","","animation","142","1018140","0.0-142.0","1920x1080","","12362.100000143051","70.11","img/314/3.5/0.5/bw/001.png","","","natural"
"","","","","","animation","143","1024690","0.0-143.0","1920x1080","","6548.899999856949","48.68","img/117/4/1/bw/001.png","","","natural"
"","","","","","animation","144","1029112","0.0-144.0","1920x1080","","4421.100000143051","42.86","img/117/4.5/0.5/bw/001.png","","","natural"
"","","","","","animation","145","1032257","0.0-145.0","1920x1080","","3143.800000190735","25.40","img/314/3.5/0.66667/bw/001.png","","","natural"
"","","","","","animation","146","1036690","0.0-146.0","1920x1080","","4431.100000143051","59.92","img/238/5.5/0.5/bw/001.png","","","natural"
"","","","","","animation","147","1043040","0.0-147.0","1920x1080","","6349.400000095367","2.65","img/117/2.5/0.66667/bw/001.png","","","natural"
"","","","","","animation","148","1049312","0.0-148.0","1920x1080","","6271.200000047684","66.67","img/238/5.5/0.66667/bw/001.png","","","natural"
"","","","","","animation","149","1053248","0.0-149.0","1920x1080","","3934.899999856949","50.53","img/314/3.5/1/bw/001.png","","","natural"
"","","","","","animation","150","1055992","0.0-150.0","1920x1080","","2742.600000143051","60.05","img/238/4/1/bw/001.png","","","natural"
"","","","","","animation","151","1069880","0.0-151.0","1920x1080","","13887.299999952316","67.86","img/314/4.5/0.66667/bw/001.png","","","natural"
"","","","","","animation","152","1073096","0.0-152.0","1920x1080","","3214.7000000476837","37.17","img/117/4/0.66667/bw/001.png","","","natural"
"","","","","","animation","153","1077881","0.0-153.0","1920x1080","","4783.100000143051","45.11","img/117/3.5/1/bw/001.png","","","natural"
"","","","","","animation","154","1086297","0.0-154.0","1920x1080","","8415","4.23","img/238/2.5/0.66667/bw/001.png","","","natural"
"","","","","","animation","155","1091649","0.0-155.0","1920x1080","","5350.900000095367","30.03","img/117/3.5/1.5/bw/001.png","","","natural"
"","","","","","animation","156","1097107","0.0-156.0","1920x1080","","5456.599999904633","16.80","img/238/4/0.66667/bw/001.png","","","natural"
"","","","","","animation","157","1099648","0.0-157.0","1920x1080","","2540","27.12","img/314/4.5/0.5/bw/001.png","","","natural"
"","","","","","animation","158","1103490","0.0-158.0","1920x1080","","3840","0","img/238/2.5/1/bw/001.png","","","natural"
"","","","","","html-button-response","159","1126609","0.0-159.0","1920x1080","","23117.5","","<div class=""intro"">You are about to view a new series of animations.<br><br></div><div class=""intro"">You will evaluate them based on a different descriptor.<br><br></div><div class=""intro"">Move the slider to indicate how <strong style=""text-transform:capitalize"">INTERESTING</strong> you find each animation.<br><br></div><div class=""intro"">0 = Least Interesting<br></div><div class=""intro"">1 = Most Interesting<br><br></div><div class=""intro"">Remember to use the <strong><em>entire range</em></strong> of the slider to make your ratings.<br></div><div class=""intro"">Please <strong><em>take your time</em></strong> and carefully consider each rating you make.<br><br></div>","0","",""
"","","","","","call-function","160","1126611","0.0-160.0","1920x1080","","","","","","",""
"","","","","","animation","161","1133032","0.0-161.0","1920x1080","","6420.600000143051","87.04","img/238/3.5/2/bw/001.png","","","interesting"
"","","","","","animation","162","1137064","0.0-162.0","1920x1080","","4031","71.56","img/117/3.5/0.5/bw/001.png","","","interesting"
"","","","","","animation","163","1143040","0.0-163.0","1920x1080","","5974.599999904633","64.55","img/117/4/0.5/bw/001.png","","","interesting"
"","","","","","animation","164","1147540","0.0-164.0","1920x1080","","4496.400000095367","87.30","img/117/3.5/1.5/bw/001.png","","","interesting"
"","","","","","animation","165","1152256","0.0-165.0","1920x1080","","4715.799999952316","34.39","img/117/2.5/1/bw/001.png","","","interesting"
"","","","","","animation","166","1162390","0.0-166.0","1920x1080","","10132.299999952316","68","img/117/4.5/2/bw/001.png","","","interesting"
"","","","","","animation","167","1168962","0.0-167.0","1920x1080","","6570.800000190735","55.03","img/117/2.5/2/bw/001.png","","","interesting"
"","","","","","animation","168","1171896","0.0-168.0","1920x1080","","2931.7000000476837","3.31","img/238/2.5/1/bw/001.png","","","interesting"
"","","","","","animation","169","1180880","0.0-169.0","1920x1080","","8982.900000095367","50","img/117/4.5/1.5/bw/001.png","","","interesting"
"","","","","","animation","170","1189776","0.0-170.0","1920x1080","","8894.399999856949","82.94","img/314/4/1/bw/001.png","","","interesting"
"","","","","","animation","171","1198273","0.0-171.0","1920x1080","","8495.799999952316","61.11","img/117/5.5/1.5/bw/001.png","","","interesting"
"","","","","","animation","172","1209923","0.0-172.0","1920x1080","","11648.800000190735","76.59","img/314/5.5/1.5/bw/001.png","","","interesting"
"","","","","","animation","173","1219090","0.0-173.0","1920x1080","","9166.199999809265","40","img/314/3.5/1.5/bw/001.png","","","interesting"
"","","","","","animation","174","1227993","0.0-174.0","1920x1080","","8901.100000143051","61.38","img/238/4.5/2/bw/001.png","","","interesting"
"","","","","","animation","175","1232945","0.0-175.0","1920x1080","","4951.099999904633","0.79","img/117/4/2/bw/001.png","","","interesting"
"","","","","","animation","176","1237561","0.0-176.0","1920x1080","","4614.5","1.98","img/314/4/0.5/bw/001.png","","","interesting"
"","","","","","animation","177","1245190","0.0-177.0","1920x1080","","7628.200000047684","23.68","img/238/3.5/0.66667/bw/001.png","","","interesting"
"","","","","","animation","178","1257941","0.0-178.0","1920x1080","","12749.399999856949","62.70","img/238/5.5/2/bw/001.png","","","interesting"
"","","","","","animation","179","1263865","0.0-179.0","1920x1080","","5922.400000095367","67.59","img/314/4.5/1/bw/001.png","","","interesting"
"","","","","","animation","180","1267907","0.0-180.0","1920x1080","","4040.5","49.07","img/314/4.5/2/bw/001.png","","","interesting"
"","","","","","animation","181","1272207","0.0-181.0","1920x1080","","4299","1.59","img/238/2.5/0.66667/bw/001.png","","","interesting"
"","","","","","animation","182","1277875","0.0-182.0","1920x1080","","5666.400000095367","45.90","img/117/5.5/2/bw/001.png","","","interesting"
"","","","","","animation","183","1288790","0.0-183.0","1920x1080","","10913.700000047684","18.78","img/314/3.5/1/bw/001.png","","","interesting"
"","","","","","animation","184","1319607","0.0-184.0","1920x1080","","30815.599999904633","82","img/314/4.5/1.5/bw/001.png","","","interesting"
"","","","","","animation","185","1330745","0.0-185.0","1920x1080","","11136.799999952316","63","img/314/5.5/2/bw/001.png","","","interesting"
"","","","","","animation","186","1334841","0.0-186.0","1920x1080","","4092.2999999523163","28.57","img/117/4/0.66667/bw/001.png","","","interesting"
"","","","","","animation","187","1340913","0.0-187.0","1920x1080","","6071.299999952316","23.94","img/238/4/0.66667/bw/001.png","","","interesting"
"","","","","","animation","188","1350707","0.0-188.0","1920x1080","","9792.399999856949","51.72","img/117/5.5/1/bw/001.png","","","interesting"
"","","","","","animation","189","1353729","0.0-189.0","1920x1080","","3021.4000000953674","51.06","img/117/3.5/0.66667/bw/001.png","","","interesting"
"","","","","","animation","190","1358007","0.0-190.0","1920x1080","","4276.400000095367","26.72","img/314/2.5/1.5/bw/001.png","","","interesting"
"","","","","","animation","191","1361157","0.0-191.0","1920x1080","","3148.9000000953674","79.76","img/117/4.5/1/bw/001.png","","","interesting"
"","","","","","animation","192","1365807","0.0-192.0","1920x1080","","4649.599999904633","56.88","img/238/4/0.5/bw/001.png","","","interesting"
"","","","","","animation","193","1376681","0.0-193.0","1920x1080","","10871.900000095367","51.46","img/238/4.5/1.5/bw/001.png","","","interesting"
"","","","","","animation","194","1379240","0.0-194.0","1920x1080","","2557.4000000953674","66.80","img/238/4/1.5/bw/001.png","","","interesting"
"","","","","","animation","195","1381665","0.0-195.0","1920x1080","","2424.5999999046326","54.10","img/238/4/2/bw/001.png","","","interesting"
"","","","","","animation","196","1387993","0.0-196.0","1920x1080","","6326.599999904633","89.15","img/238/5.5/1/bw/001.png","","","interesting"
"","","","","","animation","197","1398290","0.0-197.0","1920x1080","","10295.600000143051","58.07","img/314/4/1.5/bw/001.png","","","interesting"
"","","","","","animation","198","1414529","0.0-198.0","1920x1080","","16238.399999856949","46","img/117/5.5/0.5/bw/001.png","","","interesting"
"","","","","","animation","199","1417940","0.0-199.0","1920x1080","","3409","46.03","img/238/4.5/0.66667/bw/001.png","","","interesting"
"","","","","","animation","200","1423625","0.0-200.0","1920x1080","","5683.600000143051","19.18","img/238/3.5/0.5/bw/001.png","","","interesting"
"","","","","","animation","201","1427145","0.0-201.0","1920x1080","","3519.0999999046326","38.49","img/238/5.5/0.66667/bw/001.png","","","interesting"
"","","","","","animation","202","1450546","0.0-202.0","1920x1080","","23398.299999952316","60","img/314/3.5/2/bw/001.png","","","interesting"
"","","","","","animation","203","1454423","0.0-203.0","1920x1080","","3876.9000000953674","58.86","img/238/4.5/1/bw/001.png","","","interesting"
"","","","","","animation","204","1456594","0.0-204.0","1920x1080","","2169.0999999046326","0.93","img/314/2.5/0.5/bw/001.png","","","interesting"
"","","","","","animation","205","1460690","0.0-205.0","1920x1080","","4095.5","13.76","img/314/2.5/2/bw/001.png","","","interesting"
"","","","","","animation","206","1464140","0.0-206.0","1920x1080","","3448.9000000953674","49.47","img/117/3.5/2/bw/001.png","","","interesting"
"","","","","","animation","207","1475764","0.0-207.0","1920x1080","","11622.800000190735","59.79","img/238/3.5/1/bw/001.png","","","interesting"
"","","","","","animation","208","1482324","0.0-208.0","1920x1080","","6557.899999856949","44.97","img/117/4/1.5/bw/001.png","","","interesting"
"","","","","","animation","209","1494682","0.0-209.0","1920x1080","","12357.299999952316","0","img/314/2.5/1/bw/001.png","","","interesting"
"","","","","","animation","210","1498640","0.0-210.0","1920x1080","","3956.7999999523163","5.95","img/314/2.5/0.66667/bw/001.png","","","interesting"
"","","","","","animation","211","1513794","0.0-211.0","1920x1080","","15151.5","76.19","img/238/4.5/0.5/bw/001.png","","","interesting"
"","","","","","animation","212","1516066","0.0-212.0","1920x1080","","2266.100000143051","63.62","img/238/4/1/bw/001.png","","","interesting"
"","","","","","animation","213","1527590","0.0-213.0","1920x1080","","11523.299999952316","5.56","img/117/2.5/0.5/bw/001.png","","","interesting"
"","","","","","animation","214","1529778","0.0-214.0","1920x1080","","2185.7000000476837","12.43","img/238/2.5/0.5/bw/001.png","","","interesting"
"","","","","","animation","215","1534190","0.0-215.0","1920x1080","","4411.5","62.43","img/117/4.5/0.5/bw/001.png","","","interesting"
"","","","","","animation","216","1537273","0.0-216.0","1920x1080","","3082","78.84","img/314/4.5/0.5/bw/001.png","","","interesting"
"","","","","","animation","217","1540114","0.0-217.0","1920x1080","","2839.0999999046326","3.57","img/117/2.5/1.5/bw/001.png","","","interesting"
"","","","","","animation","218","1542441","0.0-218.0","1920x1080","","2326.2999999523163","64.81","img/314/3.5/0.66667/bw/001.png","","","interesting"
"","","","","","animation","219","1544657","0.0-219.0","1920x1080","","2214.2000000476837","5.82","img/117/2.5/0.66667/bw/001.png","","","interesting"
"","","","","","animation","220","1548178","0.0-220.0","1920x1080","","3519.7000000476837","1.32","img/238/2.5/2/bw/001.png","","","interesting"
"","","","","","animation","221","1555223","0.0-221.0","1920x1080","","7044.700000047684","49.60","img/238/3.5/1.5/bw/001.png","","","interesting"
"","","","","","animation","222","1599290","0.0-222.0","1920x1080","","44064.90000009537","72.09","img/117/5.5/0.66667/bw/001.png","","","interesting"
"","","","","","animation","223","1601657","0.0-223.0","1920x1080","","2363.4000000953674","21.56","img/314/4/2/bw/001.png","","","interesting"
"","","","","","animation","224","1604973","0.0-224.0","1920x1080","","3315","99","img/238/5.5/0.5/bw/001.png","","","interesting"
"","","","","","animation","225","1608994","0.0-225.0","1920x1080","","4018.4000000953674","94.05","img/314/5.5/0.66667/bw/001.png","","","interesting"
"","","","","","animation","226","1614473","0.0-226.0","1920x1080","","5478","19","img/117/3.5/1/bw/001.png","","","interesting"
"","","","","","animation","227","1619994","0.0-227.0","1920x1080","","5519.099999904633","92.33","img/314/5.5/1/bw/001.png","","","interesting"
"","","","","","animation","228","1624826","0.0-228.0","1920x1080","","4830.299999952316","76.98","img/314/4.5/0.66667/bw/001.png","","","interesting"
"","","","","","animation","229","1627923","0.0-229.0","1920x1080","","3096.2999999523163","48.02","img/117/4/1/bw/001.png","","","interesting"
"","","","","","animation","230","1632626","0.0-230.0","1920x1080","","4701.700000047684","70.63","img/314/3.5/0.5/bw/001.png","","","interesting"
"","","","","","animation","231","1635482","0.0-231.0","1920x1080","","2855","82.41","img/314/5.5/0.5/bw/001.png","","","interesting"
"","","","","","animation","232","1639442","0.0-232.0","1920x1080","","3958.4000000953674","22.49","img/117/4.5/0.66667/bw/001.png","","","interesting"
"","","","","","animation","233","1657090","0.0-233.0","1920x1080","","17647.10000014305","77.12","img/238/5.5/1.5/bw/001.png","","","interesting"
"","","","","","animation","234","1660457","0.0-234.0","1920x1080","","3365.4000000953674","65.74","img/314/4/0.66667/bw/001.png","","","interesting"
"","","","","","animation","235","1663640","0.0-235.0","1920x1080","","3182.0999999046326","4","img/238/2.5/1.5/bw/001.png","","","interesting"
"","","","","","html-button-response","236","1691123","0.0-236.0","1920x1080","","27481.400000095367","","<div class=""intro"">You are about to view a new series of animations.<br><br></div><div class=""intro"">You will evaluate them based on a different descriptor.<br><br></div><div class=""intro"">Move the slider to indicate how <strong style=""text-transform:capitalize"">APPEALING</strong> you find each animation.<br><br></div><div class=""intro"">0 = Least Appealing<br></div><div class=""intro"">1 = Most Appealing<br><br></div><div class=""intro"">Remember to use the <strong><em>entire range</em></strong> of the slider to make your ratings.<br></div><div class=""intro"">Please <strong><em>take your time</em></strong> and carefully consider each rating you make.<br><br></div>","0","",""
"","","","","","call-function","237","1691127","0.0-237.0","1920x1080","","","","","","",""
"","","","","","animation","238","1703106","0.0-238.0","1920x1080","","11978.5","62.57","img/238/3.5/0.66667/bw/001.png","","","appealing"
"","","","","","animation","239","1709696","0.0-239.0","1920x1080","","6588.399999856949","31","img/117/4.5/0.5/bw/001.png","","","appealing"
"","","","","","animation","240","1716313","0.0-240.0","1920x1080","","6615","-33.99","img/238/2.5/0.5/bw/001.png","","","appealing"
"","","","","","animation","241","1725890","0.0-241.0","1920x1080","","9576.100000143051","33.60","img/117/2.5/2/bw/001.png","","","appealing"
"","","","","","animation","242","1729810","0.0-242.0","1920x1080","","3918.4000000953674","81.75","img/314/3.5/2/bw/001.png","","","appealing"
"","","","","","animation","243","1733357","0.0-243.0","1920x1080","","3545.2000000476837","70.11","img/314/4/2/bw/001.png","","","appealing"
"","","","","","animation","244","1737362","0.0-244.0","1920x1080","","4004.0999999046326","3.57","img/117/2.5/1/bw/001.png","","","appealing"
"","","","","","animation","245","1751352","0.0-245.0","1920x1080","","13987.400000095367","47","img/238/5.5/2/bw/001.png","","","appealing"
"","","","","","animation","246","1764058","0.0-246.0","1920x1080","","12704.099999904633","68.39","img/117/5.5/1.5/bw/001.png","","","appealing"
"","","","","","animation","247","1799791","0.0-247.0","1920x1080","","35730.90000009537","25.79","img/314/5.5/0.5/bw/001.png","","","appealing"
"","","","","","animation","248","1811724","0.0-248.0","1920x1080","","11928.600000143051","0.13","img/314/2.5/0.5/bw/001.png","","","appealing"
"","","","","","animation","249","1816043","0.0-249.0","1920x1080","","4317.5","13.36","img/314/2.5/1/bw/001.png","","","appealing"
"","","","","","animation","250","1822043","0.0-250.0","1920x1080","","5998.700000047684","69.44","img/238/4/0.5/bw/001.png","","","appealing"
"","","","","","animation","251","1826573","0.0-251.0","1920x1080","","4528.300000190735","78.04","img/117/4/1.5/bw/001.png","","","appealing"
"","","","","","animation","252","1829979","0.0-252.0","1920x1080","","3405.4000000953674","100","img/117/3.5/2/bw/001.png","","","appealing"
"","","","","","animation","253","1833859","0.0-253.0","1920x1080","","3878","54.89","img/314/4.5/0.5/bw/001.png","","","appealing"
"","","","","","animation","254","1849347","0.0-254.0","1920x1080","","15487.200000047684","78.97","img/117/4/2/bw/001.png","","","appealing"
"","","","","","animation","255","1852174","0.0-255.0","1920x1080","","2825.2000000476837","51.06","img/238/5.5/0.66667/bw/001.png","","","appealing"
"","","","","","animation","256","1855724","0.0-256.0","1920x1080","","3548.9000000953674","84.26","img/117/4/0.5/bw/001.png","","","appealing"
"","","","","","animation","257","1858449","0.0-257.0","1920x1080","","2722","100","img/117/3.5/1.5/bw/001.png","","","appealing"
"","","","","","animation","258","1863075","0.0-258.0","1920x1080","","4624.099999904633","42.59","img/238/5.5/1/bw/001.png","","","appealing"
"","","","","","animation","259","1865391","0.0-259.0","1920x1080","","2314.899999856949","37.30","img/314/5.5/1.5/bw/001.png","","","appealing"
"","","","","","animation","260","1867524","0.0-260.0","1920x1080","","2131","63.89","img/238/3.5/2/bw/001.png","","","appealing"
"","","","","","animation","261","1869445","0.0-261.0","1920x1080","","1920.3999998569489","74.60","img/238/4/1/bw/001.png","","","appealing"
"","","","","","animation","262","1873100","0.0-262.0","1920x1080","","3653.2999999523163","28.04","img/117/5.5/0.5/bw/001.png","","","appealing"
"","","","","","animation","263","1884843","0.0-263.0","1920x1080","","11742","100","img/117/3.5/0.66667/bw/001.png","","","appealing"
"","","","","","animation","264","1887459","0.0-264.0","1920x1080","","2614.2999999523163","79.23","img/238/4.5/2/bw/001.png","","","appealing"
"","","","","","animation","265","1893373","0.0-265.0","1920x1080","","5913","41.67","img/238/4.5/1.5/bw/001.png","","","appealing"
"","","","","","animation","266","1895874","0.0-266.0","1920x1080","","2499.5","3.04","img/238/2.5/2/bw/001.png","","","appealing"
"","","","","","animation","267","1899747","0.0-267.0","1920x1080","","3871.5","23","img/314/4.5/2/bw/001.png","","","appealing"
"","","","","","animation","268","1902275","0.0-268.0","1920x1080","","2526.2000000476837","0.40","img/117/2.5/0.66667/bw/001.png","","","appealing"
"","","","","","animation","269","1907028","0.0-269.0","1920x1080","","4751.900000095367","1.59","img/314/2.5/0.66667/bw/001.png","","","appealing"
"","","","","","animation","270","1910374","0.0-270.0","1920x1080","","3344.2999999523163","100","img/314/3.5/0.66667/bw/001.png","","","appealing"
"","","","","","animation","271","1913791","0.0-271.0","1920x1080","","3414.5999999046326","0.93","img/314/2.5/1.5/bw/001.png","","","appealing"
"","","","","","animation","272","1916323","0.0-272.0","1920x1080","","2532","61.51","img/117/4.5/1.5/bw/001.png","","","appealing"
"","","","","","animation","273","1929412","0.0-273.0","1920x1080","","13087.100000143051","78.57","img/314/4/0.5/bw/001.png","","","appealing"
"","","","","","animation","274","1934890","0.0-274.0","1920x1080","","5477.099999904633","44.31","img/314/4.5/1.5/bw/001.png","","","appealing"
"","","","","","animation","275","1937612","0.0-275.0","1920x1080","","2720.4000000953674","2.38","img/238/2.5/1/bw/001.png","","","appealing"
"","","","","","animation","276","1941024","0.0-276.0","1920x1080","","3404.0999999046326","98","img/238/4/0.66667/bw/001.png","","","appealing"
"","","","","","animation","277","1944926","0.0-277.0","1920x1080","","3900.9000000953674","12.04","img/117/2.5/0.5/bw/001.png","","","appealing"
"","","","","","animation","278","1948714","0.0-278.0","1920x1080","","3786.399999856949","68.39","img/238/3.5/1.5/bw/001.png","","","appealing"
"","","","","","animation","279","1951613","0.0-279.0","1920x1080","","2897.5999999046326","53.44","img/238/4.5/0.5/bw/001.png","","","appealing"
"","","","","","animation","280","1955491","0.0-280.0","1920x1080","","3875.899999856949","83.99","img/314/3.5/1.5/bw/001.png","","","appealing"
"","","","","","animation","281","1970379","0.0-281.0","1920x1080","","14886.200000047684","68.65","img/238/4.5/1/bw/001.png","","","appealing"
"","","","","","animation","282","1973239","0.0-282.0","1920x1080","","2858.5","1.98","img/314/2.5/2/bw/001.png","","","appealing"
"","","","","","animation","283","1976670","0.0-283.0","1920x1080","","3429.4000000953674","49","img/117/4.5/2/bw/001.png","","","appealing"
"","","","","","animation","284","1979724","0.0-284.0","1920x1080","","3052.2999999523163","67.99","img/238/4/2/bw/001.png","","","appealing"
"","","","","","animation","285","1984748","0.0-285.0","1920x1080","","5022.099999904633","52.38","img/117/5.5/2/bw/001.png","","","appealing"
"","","","","","animation","286","1994464","0.0-286.0","1920x1080","","9712.800000190735","82","img/314/3.5/1/bw/001.png","","","appealing"
"","","","","","animation","287","2018066","0.0-287.0","1920x1080","","23600.5","40","img/314/5.5/0.66667/bw/001.png","","","appealing"
"","","","","","animation","288","2020374","0.0-288.0","1920x1080","","2306.9000000953674","70.11","img/117/4.5/0.66667/bw/001.png","","","appealing"
"","","","","","animation","289","2025564","0.0-289.0","1920x1080","","5189","71.96","img/314/3.5/0.5/bw/001.png","","","appealing"
"","","","","","animation","290","2029467","0.0-290.0","1920x1080","","3901.800000190735","69.44","img/238/3.5/0.5/bw/001.png","","","appealing"
"","","","","","animation","291","2040750","0.0-291.0","1920x1080","","11281.5","59.52","img/314/4/1/bw/001.png","","","appealing"
"","","","","","animation","292","2051829","0.0-292.0","1920x1080","","11077.299999952316","96","img/117/5.5/1/bw/001.png","","","appealing"
"","","","","","animation","293","2054427","0.0-293.0","1920x1080","","2595.4000000953674","91.14","img/314/4.5/0.66667/bw/001.png","","","appealing"
"","","","","","animation","294","2081923","0.0-294.0","1920x1080","","27494.099999904633","64.68","img/314/4.5/1/bw/001.png","","","appealing"
"","","","","","animation","295","2085411","0.0-295.0","1920x1080","","3487.2999999523163","47.62","img/314/5.5/1/bw/001.png","","","appealing"
"","","","","","animation","296","2091673","0.0-296.0","1920x1080","","6259.199999809265","62.30","img/238/5.5/0.5/bw/001.png","","","appealing"
"","","","","","animation","297","2094330","0.0-297.0","1920x1080","","2655.2999999523163","67.59","img/117/4.5/1/bw/001.png","","","appealing"
"","","","","","animation","298","2096730","0.0-298.0","1920x1080","","2397.600000143051","0","img/238/2.5/0.66667/bw/001.png","","","appealing"
"","","","","","animation","299","2099991","0.0-299.0","1920x1080","","3259.2999999523163","97","img/238/3.5/1/bw/001.png","","","appealing"
"","","","","","animation","300","2104869","0.0-300.0","1920x1080","","4876.400000095367","100","img/238/4/1.5/bw/001.png","","","appealing"
"","","","","","animation","301","2118073","0.0-301.0","1920x1080","","13202.799999952316","77","img/117/4/1/bw/001.png","","","appealing"
"","","","","","animation","302","2143144","0.0-302.0","1920x1080","","25069.700000047684","69.05","img/117/3.5/0.5/bw/001.png","","","appealing"
"","","","","","animation","303","2146174","0.0-303.0","1920x1080","","3028.399999856949","71.43","img/314/4/1.5/bw/001.png","","","appealing"
"","","","","","animation","304","2148474","0.0-304.0","1920x1080","","2298.7999999523163","3.44","img/117/2.5/1.5/bw/001.png","","","appealing"
"","","","","","animation","305","2151302","0.0-305.0","1920x1080","","2826.2000000476837","84.52","img/117/4/0.66667/bw/001.png","","","appealing"
"","","","","","animation","306","2154228","0.0-306.0","1920x1080","","2924.2000000476837","3.57","img/238/2.5/1.5/bw/001.png","","","appealing"
"","","","","","animation","307","2156980","0.0-307.0","1920x1080","","2751.399999856949","78.17","img/314/4/0.66667/bw/001.png","","","appealing"
"","","","","","animation","308","2160028","0.0-308.0","1920x1080","","3047.2000000476837","52.38","img/117/5.5/0.66667/bw/001.png","","","appealing"
"","","","","","animation","309","2165413","0.0-309.0","1920x1080","","5383.199999809265","92.06","img/117/3.5/1/bw/001.png","","","appealing"
"","","","","","animation","310","2168891","0.0-310.0","1920x1080","","3476.5","34.92","img/314/5.5/2/bw/001.png","","","appealing"
"","","","","","animation","311","2179991","0.0-311.0","1920x1080","","11098.299999952316","58","img/238/4.5/0.66667/bw/001.png","","","appealing"
"","","","","","animation","312","2184857","0.0-312.0","1920x1080","","4864.200000047684","13.36","img/238/5.5/1.5/bw/001.png","","","appealing"
"","","","","","html-button-response","313","2244416","0.0-313.0","1920x1080","","59557.90000009537","","<div class=""intro"">You are about to view a new series of animations.<br><br></div><div class=""intro"">You will evaluate them based on a different descriptor.<br><br></div><div class=""intro"">Move the slider to indicate how <strong style=""text-transform:capitalize"">RELAXING</strong> you find each animation.<br><br></div><div class=""intro"">0 = Least Relaxing<br></div><div class=""intro"">1 = Most Relaxing<br><br></div><div class=""intro"">Remember to use the <strong><em>entire range</em></strong> of the slider to make your ratings.<br></div><div class=""intro"">Please <strong><em>take your time</em></strong> and carefully consider each rating you make.<br><br></div>","0","",""
"","","","","","call-function","314","2244421","0.0-314.0","1920x1080","","","","","","",""
"","","","","","animation","315","2254998","0.0-315.0","1920x1080","","10575.299999952316","74.87","img/238/4.5/1/bw/001.png","","","relaxing"
"","","","","","animation","316","2259364","0.0-316.0","1920x1080","","4364.799999952316","31.35","img/238/4.5/0.5/bw/001.png","","","relaxing"
"","","","","","animation","317","2263875","0.0-317.0","1920x1080","","4509.700000047684","79.37","img/238/5.5/0.66667/bw/001.png","","","relaxing"
"","","","","","animation","318","2268911","0.0-318.0","1920x1080","","5033.5","89.02","img/238/5.5/1.5/bw/001.png","","","relaxing"
"","","","","","animation","319","2280227","0.0-319.0","1920x1080","","11314.599999904633","58.86","img/117/4.5/0.66667/bw/001.png","","","relaxing"
"","","","","","animation","320","2283597","0.0-320.0","1920x1080","","3368.5999999046326","68.78","img/314/5.5/1.5/bw/001.png","","","relaxing"
"","","","","","animation","321","2287107","0.0-321.0","1920x1080","","3508.699999809265","74.47","img/314/4.5/1.5/bw/001.png","","","relaxing"
"","","","","","animation","322","2291411","0.0-322.0","1920x1080","","4302.5","0.79","img/238/3.5/0.5/bw/001.png","","","relaxing"
"","","","","","animation","323","2294941","0.0-323.0","1920x1080","","3527.7000000476837","76.72","img/117/4/1.5/bw/001.png","","","relaxing"
"","","","","","animation","324","2302564","0.0-324.0","1920x1080","","7621.600000143051","52","img/314/3.5/1/bw/001.png","","","relaxing"
"","","","","","animation","325","2313823","0.0-325.0","1920x1080","","11256.399999856949","15.34","img/238/4/0.66667/bw/001.png","","","relaxing"
"","","","","","animation","326","2324226","0.0-326.0","1920x1080","","10402.099999904633","12.30","img/314/4.5/0.5/bw/001.png","","","relaxing"
"","","","","","animation","327","2328859","0.0-327.0","1920x1080","","4631.799999952316","0","img/314/2.5/1.5/bw/001.png","","","relaxing"
"","","","","","animation","328","2332828","0.0-328.0","1920x1080","","3966","0","img/238/3.5/0.66667/bw/001.png","","","relaxing"
"","","","","","animation","329","2353956","0.0-329.0","1920x1080","","21126","17.59","img/238/5.5/0.5/bw/001.png","","","relaxing"
"","","","","","animation","330","2357924","0.0-330.0","1920x1080","","3965.7999999523163","19.31","img/238/3.5/1/bw/001.png","","","relaxing"
"","","","","","animation","331","2363692","0.0-331.0","1920x1080","","5766.599999904633","30.82","img/238/4.5/0.66667/bw/001.png","","","relaxing"
"","","","","","animation","332","2366592","0.0-332.0","1920x1080","","2898.5","0.00","img/314/2.5/0.5/bw/001.png","","","relaxing"
"","","","","","animation","333","2372629","0.0-333.0","1920x1080","","6034.900000095367","44.18","img/314/4/1/bw/001.png","","","relaxing"
"","","","","","animation","334","2374940","0.0-334.0","1920x1080","","2310","0","img/117/2.5/0.5/bw/001.png","","","relaxing"
"","","","","","animation","335","2380828","0.0-335.0","1920x1080","","5886.199999809265","48.54","img/314/5.5/0.5/bw/001.png","","","relaxing"
"","","","","","animation","336","2412216","0.0-336.0","1920x1080","","31385.200000047684","7.14","img/117/3.5/0.5/bw/001.png","","","relaxing"
"","","","","","animation","337","2415590","0.0-337.0","1920x1080","","3369.7999999523163","69.31","img/238/4/1/bw/001.png","","","relaxing"
"","","","","","animation","338","2420860","0.0-338.0","1920x1080","","5269.399999856949","81.48","img/238/4.5/1.5/bw/001.png","","","relaxing"
"","","","","","animation","339","2424300","0.0-339.0","1920x1080","","3436.100000143051","32.14","img/314/4.5/0.66667/bw/001.png","","","relaxing"
"","","","","","animation","340","2429758","0.0-340.0","1920x1080","","5455.700000047684","75.53","img/314/5.5/1/bw/001.png","","","relaxing"
"","","","","","animation","341","2435757","0.0-341.0","1920x1080","","5998.400000095367","47.62","img/314/3.5/1.5/bw/001.png","","","relaxing"
"","","","","","animation","342","2441165","0.0-342.0","1920x1080","","5406.199999809265","59.52","img/117/4/2/bw/001.png","","","relaxing"
"","","","","","animation","343","2459932","0.0-343.0","1920x1080","","18765.599999904633","74.87","img/314/4.5/2/bw/001.png","","","relaxing"
"","","","","","animation","344","2467123","0.0-344.0","1920x1080","","7189","60.45","img/117/3.5/2/bw/001.png","","","relaxing"
"","","","","","animation","345","2471924","0.0-345.0","1920x1080","","4799.899999856949","67.20","img/314/4/1.5/bw/001.png","","","relaxing"
"","","","","","animation","346","2475469","0.0-346.0","1920x1080","","3542.5999999046326","0.93","img/238/2.5/1/bw/001.png","","","relaxing"
"","","","","","animation","347","2480393","0.0-347.0","1920x1080","","4921.200000047684","60.71","img/238/5.5/1/bw/001.png","","","relaxing"
"","","","","","animation","348","2492746","0.0-348.0","1920x1080","","12348.400000095367","59.52","img/314/5.5/2/bw/001.png","","","relaxing"
"","","","","","animation","349","2497416","0.0-349.0","1920x1080","","4667.299999952316","38.23","img/314/4.5/1/bw/001.png","","","relaxing"
"","","","","","animation","350","2501594","0.0-350.0","1920x1080","","4176.900000095367","20.11","img/117/3.5/1/bw/001.png","","","relaxing"
"","","","","","animation","351","2507161","0.0-351.0","1920x1080","","5564.699999809265","53.57","img/314/4/2/bw/001.png","","","relaxing"
"","","","","","animation","352","2510540","0.0-352.0","1920x1080","","3377.7999999523163","0","img/238/2.5/0.5/bw/001.png","","","relaxing"
"","","","","","animation","353","2516922","0.0-353.0","1920x1080","","6380.900000095367","10.85","img/314/4/0.5/bw/001.png","","","relaxing"
"","","","","","animation","354","2520266","0.0-354.0","1920x1080","","3341.699999809265","11.11","img/314/3.5/0.66667/bw/001.png","","","relaxing"
"","","","","","animation","355","2523190","0.0-355.0","1920x1080","","2922.7000000476837","0","img/117/2.5/1/bw/001.png","","","relaxing"
"","","","","","animation","356","2529773","0.0-356.0","1920x1080","","6580.299999952316","44","img/238/4/1.5/bw/001.png","","","relaxing"
"","","","","","animation","357","2549806","0.0-357.0","1920x1080","","20031.400000095367","72.35","img/117/4.5/2/bw/001.png","","","relaxing"
"","","","","","animation","358","2552617","0.0-358.0","1920x1080","","2809.899999856949","17.59","img/117/4.5/0.5/bw/001.png","","","relaxing"
"","","","","","animation","359","2555640","0.0-359.0","1920x1080","","3021.0999999046326","12.17","img/117/4/0.66667/bw/001.png","","","relaxing"
"","","","","","animation","360","2562124","0.0-360.0","1920x1080","","6481.900000095367","81.61","img/117/5.5/1.5/bw/001.png","","","relaxing"
"","","","","","animation","361","2568962","0.0-361.0","1920x1080","","6834","21.03","img/117/3.5/0.66667/bw/001.png","","","relaxing"
"","","","","","animation","362","2578783","0.0-362.0","1920x1080","","9818.5","44.97","img/117/4.5/1/bw/001.png","","","relaxing"
"","","","","","animation","363","2580951","0.0-363.0","1920x1080","","2166.0999999046326","1.19","img/238/2.5/0.66667/bw/001.png","","","relaxing"
"","","","","","animation","364","2583841","0.0-364.0","1920x1080","","2888.899999856949","4.50","img/117/2.5/1.5/bw/001.png","","","relaxing"
"","","","","","animation","365","2586241","0.0-365.0","1920x1080","","2398.4000000953674","0","img/238/2.5/1.5/bw/001.png","","","relaxing"
"","","","","","animation","366","2592658","0.0-366.0","1920x1080","","6415.700000047684","28.44","img/314/5.5/0.66667/bw/001.png","","","relaxing"
"","","","","","animation","367","2601909","0.0-367.0","1920x1080","","9249.5","35.85","img/238/3.5/2/bw/001.png","","","relaxing"
"","","","","","animation","368","2611827","0.0-368.0","1920x1080","","9916.700000047684","-73.81","img/314/2.5/0.66667/bw/001.png","","","relaxing"
"","","","","","animation","369","2619986","0.0-369.0","1920x1080","","8156.400000095367","55.82","img/238/3.5/1.5/bw/001.png","","","relaxing"
"","","","","","animation","370","2623144","0.0-370.0","1920x1080","","3156","14.55","img/117/4/0.5/bw/001.png","","","relaxing"
"","","","","","animation","371","2627808","0.0-371.0","1920x1080","","4662.5","68.52","img/117/4.5/1.5/bw/001.png","","","relaxing"
"","","","","","animation","372","2630191","0.0-372.0","1920x1080","","2381.699999809265","5.29","img/117/2.5/2/bw/001.png","","","relaxing"
"","","","","","animation","373","2633293","0.0-373.0","1920x1080","","3100.4000000953674","2.38","img/238/2.5/2/bw/001.png","","","relaxing"
"","","","","","animation","374","2641501","0.0-374.0","1920x1080","","8205.900000095367","45.63","img/117/3.5/1.5/bw/001.png","","","relaxing"
"","","","","","animation","375","2644491","0.0-375.0","1920x1080","","2988.7999999523163","0.00","img/117/2.5/0.66667/bw/001.png","","","relaxing"
"","","","","","animation","376","2650648","0.0-376.0","1920x1080","","6155.900000095367","60.05","img/117/5.5/1/bw/001.png","","","relaxing"
"","","","","","animation","377","2654818","0.0-377.0","1920x1080","","4168.300000190735","64.95","img/238/4/2/bw/001.png","","","relaxing"
"","","","","","animation","378","2659407","0.0-378.0","1920x1080","","4586.900000095367","58.33","img/117/5.5/0.66667/bw/001.png","","","relaxing"
"","","","","","animation","379","2685853","0.0-379.0","1920x1080","","26443","33.60","img/314/3.5/2/bw/001.png","","","relaxing"
"","","","","","animation","380","2691657","0.0-380.0","1920x1080","","5801.900000095367","71","img/117/5.5/2/bw/001.png","","","relaxing"
"","","","","","animation","381","2694293","0.0-381.0","1920x1080","","2634.199999809265","5.42","img/314/3.5/0.5/bw/001.png","","","relaxing"
"","","","","","animation","382","2707990","0.0-382.0","1920x1080","","13695.600000143051","75.00","img/238/4.5/2/bw/001.png","","","relaxing"
"","","","","","animation","383","2711273","0.0-383.0","1920x1080","","3281.600000143051","0","img/314/2.5/2/bw/001.png","","","relaxing"
"","","","","","animation","384","2714477","0.0-384.0","1920x1080","","3202.600000143051","37.96","img/117/5.5/0.5/bw/001.png","","","relaxing"
"","","","","","animation","385","2721224","0.0-385.0","1920x1080","","6744.799999952316","80.29","img/238/5.5/2/bw/001.png","","","relaxing"
"","","","","","animation","386","2724407","0.0-386.0","1920x1080","","3178.4000000953674","0.93","img/314/2.5/1/bw/001.png","","","relaxing"
"","","","","","animation","387","2727973","0.0-387.0","1920x1080","","3564.800000190735","13.76","img/238/4/0.5/bw/001.png","","","relaxing"
"","","","","","animation","388","2730558","0.0-388.0","1920x1080","","2582.5","18.39","img/314/4/0.66667/bw/001.png","","","relaxing"
"","","","","","animation","389","2734851","0.0-389.0","1920x1080","","4291.5","33.07","img/117/4/1/bw/001.png","","","relaxing"
"","","","","","html-button-response","390","2804106","0.0-390.0","1920x1080","","69253.20000004768","","<strong>Study Debriefing</strong><br><p class=""debrief""><strong>Background:</strong> The patterns you rated are called <em>fractals</em>. The term fractal describes a class of irregular curves or shapes for which any suitably chosen part is similar in shape to a given larger or smaller part when magnified or reduced to the same size. Fractal properties are found throughout the natural and manmade world. The series of animations you saw today displayed animated fractal patterns of a varying complexity.</p><p class=""debrief""><strong>Purpose of this study:</strong> We hope to better understand how the perception of static fractals differs from the perception of animated fractals, and how the speed of the animated patterns influences people&apos;s perception of them. Fractals allow us to study the perception of aesthetic properties (e.g. the perceived level of beauty in an image) without using recognizable content, which makes them an excellent tool for studying abstract aesthetic judgement.</p><p class=""debrief""><strong>Your part:</strong> Your participation has helped us to further understand how humans perceive these patterns across different levels of speed and complexity. This research with allow us to better understand how the visual system and brain process our ever-changing visual environments.<p class=""debrief""><strong>Feedback and Further information:</strong> If you have additional questions about this study, please feel free to ask the researcher, Nathan Gonzales-Hess at nhess @ uoregon.edu. If you have any questions concerning your rights as a research participant, please contact Research Compliance Services, 5237 University of Oregon, Eugene, OR 97403, 541-346-2510, or email researchCompliance @ uoregon.edu. You can also email the Human Subjects Coordinator for psychology and linguistics research at hscoord @ uoregon.edu. ","0","",""
"","","","","","html-button-response","391","2807741","0.0-391.0","1920x1080","","3630.7999999523163","","Thank you for participating in this study. <br>Please click below to finish the experiment and submit your responses.<br><br>","0","",""
"true","","","","","fullscreen","392","2808750","0.0-392.0","1920x1080","15:22 2/6/2022","","","","","",""
