"success","timeout","failed_images","failed_audio","failed_video","trial_type","trial_index","time_elapsed","internal_node_id","resolution","timeStamp","rt","response","stimulus","button_pressed","value","descriptor"
"true","false","[]","[]","[]","preload","0","46317","0.0-0.0","1920x1080","","","","","","",""
"true","false","[]","[]","[]","preload","1","87393","0.0-1.0","1920x1080","","","","","","",""
"true","false","[]","[]","[]","preload","2","131219","0.0-2.0","1920x1080","","","","","","",""
"true","","","","","fullscreen","3","136035","0.0-3.0","1920x1080","11:1 31/10/2022","","","","","",""
"","","","","","survey-html-form","4","146548","0.0-4.0","1920x1080","","10510.5","{""age"":""18"",""gender"":""male""}","","","",""
"","","","","","html-button-response","5","237005","0.0-5.0","1920x1080","","90456","","<div class=""complex"">You are going to see a series of animations.<br><br></div><div class=""complex"">Move the slider to indicate how <strong style=""text-transform:capitalize"">COMPLEX</strong> you find each animation.<br><br></div><div class=""complex"">0 = Least Complex<br></div><div class=""complex"">1 = Most Complex<br><br></div><div class=""complex"">Remember to use the <strong><em>entire range</em></strong> of the slider to make your ratings.<br></div><div class=""complex"">Please <strong><em>take your time</em></strong> and carefully consider each rating you make.<br><br></div><div class=""complex"">The study has five sections and will take about 45 minutes to complete.<br><br></div>","0","",""
"","","","","","call-function","6","237006","0.0-6.0","1920x1080","","","","","","",""
"","","","","","animation","7","256813","0.0-7.0","1920x1080","","19804","80","img/117/4/2/bw/001.png","","","complex"
"","","","","","animation","8","271733","0.0-8.0","1920x1080","","14918.800000000047","91.93","img/314/2.5/2/bw/001.png","","","complex"
"","","","","","animation","9","284285","0.0-9.0","1920x1080","","12551","78.44","img/238/3.5/0.66667/bw/001.png","","","complex"
"","","","","","animation","10","293005","0.0-10.0","1920x1080","","8719.099999999977","29.76","img/314/5.5/2/bw/001.png","","","complex"
"","","","","","animation","11","300468","0.0-11.0","1920x1080","","7551.5","38.10","img/117/5.5/0.5/bw/001.png","","","complex"
"","","","","","animation","12","309468","0.0-12.0","1920x1080","","8999.200000000012","51.85","img/314/4.5/1/bw/001.png","","","complex"
"","","","","","animation","13","321875","0.0-13.0","1920x1080","","12406.299999999988","96","img/314/2.5/1.5/bw/001.png","","","complex"
"","","","","","animation","14","330323","0.0-14.0","1920x1080","","8447.200000000012","11.77","img/314/5.5/0.66667/bw/001.png","","","complex"
"","","","","","animation","15","338851","0.0-15.0","1920x1080","","8526.600000000035","98","img/117/2.5/0.5/bw/001.png","","","complex"
"","","","","","animation","16","350763","0.0-16.0","1920x1080","","11911.400000000023","44.18","img/117/4.5/1.5/bw/001.png","","","complex"
"","","","","","animation","17","357006","0.0-17.0","1920x1080","","6335.100000000035","64.29","img/314/3.5/2/bw/001.png","","","complex"
"","","","","","animation","18","366775","0.0-18.0","1920x1080","","9767.700000000012","10.45","img/238/5.5/0.5/bw/001.png","","","complex"
"","","","","","animation","19","372910","0.0-19.0","1920x1080","","6134.399999999965","34.13","img/238/4.5/1/bw/001.png","","","complex"
"","","","","","animation","20","380062","0.0-20.0","1920x1080","","7151.299999999988","55.82","img/314/4/0.66667/bw/001.png","","","complex"
"","","","","","animation","21","390375","0.0-21.0","1920x1080","","10312.199999999953","100","img/314/2.5/0.5/bw/001.png","","","complex"
"","","","","","animation","22","400838","0.0-22.0","1920x1080","","10462.700000000012","66","img/117/3.5/1.5/bw/001.png","","","complex"
"","","","","","animation","23","407359","0.0-23.0","1920x1080","","6519.400000000023","74.47","img/117/3.5/1/bw/001.png","","","complex"
"","","","","","animation","24","419348","0.0-24.0","1920x1080","","12070.700000000012","66.01","img/238/4.5/0.66667/bw/001.png","","","complex"
"","","","","","animation","25","431836","0.0-25.0","1920x1080","","12487.300000000047","6","img/238/5.5/1.5/bw/001.png","","","complex"
"","","","","","animation","26","446364","0.0-26.0","1920x1080","","14526.5","55.82","img/314/4.5/0.5/bw/001.png","","","complex"
"","","","","","animation","27","452043","0.0-27.0","1920x1080","","5678.79999999993","8.33","img/238/5.5/1/bw/001.png","","","complex"
"","","","","","animation","28","460068","0.0-28.0","1920x1080","","8023.79999999993","90.48","img/314/3.5/0.66667/bw/001.png","","","complex"
"","","","","","animation","29","470068","0.0-29.0","1920x1080","","9998.900000000023","88.23","img/117/4/0.5/bw/001.png","","","complex"
"","","","","","animation","30","474435","0.0-30.0","1920x1080","","4456.699999999953","7.80","img/117/5.5/2/bw/001.png","","","complex"
"","","","","","animation","31","487658","0.0-31.0","1920x1080","","13221.20000000007","81.75","img/238/3.5/2/bw/001.png","","","complex"
"","","","","","animation","32","497874","0.0-32.0","1920x1080","","10215.20000000007","16.40","img/238/5.5/0.66667/bw/001.png","","","complex"
"","","","","","animation","33","507642","0.0-33.0","1920x1080","","9767.400000000023","64.15","img/117/4/1/bw/001.png","","","complex"
"","","","","","animation","34","512498","0.0-34.0","1920x1080","","4855.29999999993","74","img/314/3.5/1/bw/001.png","","","complex"
"","","","","","animation","35","518442","0.0-35.0","1920x1080","","5943.099999999977","18.12","img/314/5.5/1/bw/001.png","","","complex"
"","","","","","animation","36","532002","0.0-36.0","1920x1080","","13558.999999999942","56","img/238/4/2/bw/001.png","","","complex"
"","","","","","animation","37","539853","0.0-37.0","1920x1080","","7934.800000000047","96","img/117/2.5/2/bw/001.png","","","complex"
"","","","","","animation","38","555437","0.0-38.0","1920x1080","","15583.100000000093","73.68","img/238/4.5/0.5/bw/001.png","","","complex"
"","","","","","animation","39","567918","0.0-39.0","1920x1080","","12479.599999999977","64.15","img/117/4.5/1/bw/001.png","","","complex"
"","","","","","animation","40","576478","0.0-40.0","1920x1080","","8559","86","img/238/3.5/0.5/bw/001.png","","","complex"
"","","","","","animation","41","583814","0.0-41.0","1920x1080","","7335.100000000093","69.58","img/117/4/1.5/bw/001.png","","","complex"
"","","","","","animation","42","595420","0.0-42.0","1920x1080","","11606.400000000023","98","img/238/2.5/1/bw/001.png","","","complex"
"","","","","","animation","43","603061","0.0-43.0","1920x1080","","7639.5","100","img/117/2.5/0.66667/bw/001.png","","","complex"
"","","","","","animation","44","614245","0.0-44.0","1920x1080","","11182.400000000023","6","img/117/5.5/1.5/bw/001.png","","","complex"
"","","","","","animation","45","626189","0.0-45.0","1920x1080","","11942.899999999907","6","img/117/5.5/1/bw/001.png","","","complex"
"","","","","","animation","46","637037","0.0-46.0","1920x1080","","10847.300000000047","52","img/238/4/0.66667/bw/001.png","","","complex"
"","","","","","animation","47","641997","0.0-47.0","1920x1080","","4959","58.33","img/238/3.5/1.5/bw/001.png","","","complex"
"","","","","","animation","48","647197","0.0-48.0","1920x1080","","5198.900000000023","92.06","img/238/2.5/2/bw/001.png","","","complex"
"","","","","","animation","49","661584","0.0-49.0","1920x1080","","14390.400000000023","12","img/238/4.5/2/bw/001.png","","","complex"
"","","","","","animation","50","665209","0.0-50.0","1920x1080","","3623.5","17.99","img/314/4/1.5/bw/001.png","","","complex"
"","","","","","animation","51","671921","0.0-51.0","1920x1080","","6710.900000000023","96","img/117/2.5/1.5/bw/001.png","","","complex"
"","","","","","animation","52","675648","0.0-52.0","1920x1080","","3726.6999999999534","73.94","img/314/3.5/1.5/bw/001.png","","","complex"
"","","","","","animation","53","678816","0.0-53.0","1920x1080","","3167.0999999999767","56.22","img/314/4.5/1.5/bw/001.png","","","complex"
"","","","","","animation","54","681752","0.0-54.0","1920x1080","","2935.0999999999767","93.78","img/238/2.5/1.5/bw/001.png","","","complex"
"","","","","","animation","55","693313","0.0-55.0","1920x1080","","11559.800000000047","30","img/314/4/2/bw/001.png","","","complex"
"","","","","","animation","56","698979","0.0-56.0","1920x1080","","5664.800000000047","2.38","img/314/5.5/1.5/bw/001.png","","","complex"
"","","","","","animation","57","703562","0.0-57.0","1920x1080","","4581.599999999977","79.63","img/238/3.5/1/bw/001.png","","","complex"
"","","","","","animation","58","706480","0.0-58.0","1920x1080","","2917.4000000000233","72.35","img/117/3.5/2/bw/001.png","","","complex"
"","","","","","animation","59","711841","0.0-59.0","1920x1080","","5359.800000000047","40.08","img/117/4.5/0.66667/bw/001.png","","","complex"
"","","","","","animation","60","717144","0.0-60.0","1920x1080","","5303.600000000093","19.97","img/314/5.5/0.5/bw/001.png","","","complex"
"","","","","","animation","61","721995","0.0-61.0","1920x1080","","4849.699999999953","76.32","img/314/4/0.5/bw/001.png","","","complex"
"","","","","","animation","62","727367","0.0-62.0","1920x1080","","5371.70000000007","14.29","img/238/4.5/1.5/bw/001.png","","","complex"
"","","","","","animation","63","730336","0.0-63.0","1920x1080","","2967.5","100","img/238/2.5/0.66667/bw/001.png","","","complex"
"","","","","","animation","64","737216","0.0-64.0","1920x1080","","6878.599999999977","5.95","img/117/5.5/0.66667/bw/001.png","","","complex"
"","","","","","animation","65","745962","0.0-65.0","1920x1080","","8745.20000000007","16","img/314/4.5/2/bw/001.png","","","complex"
"","","","","","animation","66","754496","0.0-66.0","1920x1080","","8533.100000000093","32","img/314/4.5/0.66667/bw/001.png","","","complex"
"","","","","","animation","67","759448","0.0-67.0","1920x1080","","4950.300000000047","2.25","img/238/5.5/2/bw/001.png","","","complex"
"","","","","","animation","68","765400","0.0-68.0","1920x1080","","5951.400000000023","80.42","img/117/3.5/0.66667/bw/001.png","","","complex"
"","","","","","animation","69","770962","0.0-69.0","1920x1080","","5561.199999999953","60.19","img/238/4/0.5/bw/001.png","","","complex"
"","","","","","animation","70","777052","0.0-70.0","1920x1080","","6084.800000000047","68.25","img/314/4/1/bw/001.png","","","complex"
"","","","","","animation","71","781700","0.0-71.0","1920x1080","","4647.29999999993","75.79","img/238/4/1.5/bw/001.png","","","complex"
"","","","","","animation","72","784820","0.0-72.0","1920x1080","","3119.0999999999767","91.53","img/314/2.5/1/bw/001.png","","","complex"
"","","","","","animation","73","788618","0.0-73.0","1920x1080","","3796.8000000000466","81.88","img/314/3.5/0.5/bw/001.png","","","complex"
"","","","","","animation","74","792436","0.0-74.0","1920x1080","","3816.1999999999534","83.86","img/117/3.5/0.5/bw/001.png","","","complex"
"","","","","","animation","75","798228","0.0-75.0","1920x1080","","5791.5","96","img/238/2.5/0.5/bw/001.png","","","complex"
"","","","","","animation","76","803076","0.0-76.0","1920x1080","","4847.099999999977","16.14","img/117/4.5/2/bw/001.png","","","complex"
"","","","","","animation","77","806750","0.0-77.0","1920x1080","","3672.399999999907","29.50","img/238/4/1/bw/001.png","","","complex"
"","","","","","animation","78","810220","0.0-78.0","1920x1080","","3469.5999999999767","44.44","img/117/4/0.66667/bw/001.png","","","complex"
"","","","","","animation","79","814583","0.0-79.0","1920x1080","","4361.5","88.10","img/117/2.5/1/bw/001.png","","","complex"
"","","","","","animation","80","819772","0.0-80.0","1920x1080","","5188","94.18","img/314/2.5/0.66667/bw/001.png","","","complex"
"","","","","","animation","81","824204","0.0-81.0","1920x1080","","4431.400000000023","19.84","img/117/4.5/0.5/bw/001.png","","","complex"
"","","","","","html-button-response","82","843745","0.0-82.0","1920x1080","","19535","","<div class=""intro"">You are about to view a new series of animations.<br><br></div><div class=""intro"">You will evaluate them based on a different descriptor.<br><br></div><div class=""intro"">Move the slider to indicate how <strong style=""text-transform:capitalize"">RELAXING</strong> you find each animation.<br><br></div><div class=""intro"">0 = Least Relaxing<br></div><div class=""intro"">1 = Most Relaxing<br><br></div><div class=""intro"">Remember to use the <strong><em>entire range</em></strong> of the slider to make your ratings.<br></div><div class=""intro"">Please <strong><em>take your time</em></strong> and carefully consider each rating you make.<br><br></div>","0","",""
"","","","","","call-function","83","843746","0.0-83.0","1920x1080","","","","","","",""
"","","","","","animation","84","862680","0.0-84.0","1920x1080","","18934","91.80","img/314/5.5/2/bw/001.png","","","relaxing"
"","","","","","animation","85","869824","0.0-85.0","1920x1080","","7142.699999999953","96","img/314/5.5/1.5/bw/001.png","","","relaxing"
"","","","","","animation","86","884905","0.0-86.0","1920x1080","","15079.099999999977","58","img/117/4/2/bw/001.png","","","relaxing"
"","","","","","animation","87","893056","0.0-87.0","1920x1080","","8150.199999999953","12.04","img/238/3.5/0.66667/bw/001.png","","","relaxing"
"","","","","","animation","88","899190","0.0-88.0","1920x1080","","6134.399999999907","18.12","img/117/4/0.5/bw/001.png","","","relaxing"
"","","","","","animation","89","906006","0.0-89.0","1920x1080","","6815","87.57","img/117/5.5/2/bw/001.png","","","relaxing"
"","","","","","animation","90","912678","0.0-90.0","1920x1080","","6670.900000000023","70.24","img/238/4.5/1.5/bw/001.png","","","relaxing"
"","","","","","animation","91","921638","0.0-91.0","1920x1080","","8958.20000000007","74.07","img/238/5.5/0.66667/bw/001.png","","","relaxing"
"","","","","","animation","92","925870","0.0-92.0","1920x1080","","4231","27.65","img/314/4.5/0.5/bw/001.png","","","relaxing"
"","","","","","animation","93","931334","0.0-93.0","1920x1080","","5462.79999999993","0.00","img/117/2.5/1.5/bw/001.png","","","relaxing"
"","","","","","animation","94","935469","0.0-94.0","1920x1080","","4134.400000000023","0.13","img/117/2.5/0.66667/bw/001.png","","","relaxing"
"","","","","","animation","95","940221","0.0-95.0","1920x1080","","4750.900000000023","28.04","img/314/4/1/bw/001.png","","","relaxing"
"","","","","","animation","96","943990","0.0-96.0","1920x1080","","3767.20000000007","68.25","img/314/5.5/0.66667/bw/001.png","","","relaxing"
"","","","","","animation","97","948134","0.0-97.0","1920x1080","","4142.899999999907","0.13","img/238/2.5/1/bw/001.png","","","relaxing"
"","","","","","animation","98","952401","0.0-98.0","1920x1080","","4265.899999999907","33.99","img/238/4/0.66667/bw/001.png","","","relaxing"
"","","","","","animation","99","956403","0.0-99.0","1920x1080","","4004.100000000093","20.11","img/117/3.5/0.66667/bw/001.png","","","relaxing"
"","","","","","animation","100","963619","0.0-100.0","1920x1080","","7215","44","img/238/3.5/1.5/bw/001.png","","","relaxing"
"","","","","","animation","101","967613","0.0-101.0","1920x1080","","3992.6999999999534","3.97","img/314/2.5/2/bw/001.png","","","relaxing"
"","","","","","animation","102","975403","0.0-102.0","1920x1080","","7788.90000000014","66.40","img/117/5.5/0.66667/bw/001.png","","","relaxing"
"","","","","","animation","103","979797","0.0-103.0","1920x1080","","4392.600000000093","0","img/238/2.5/0.5/bw/001.png","","","relaxing"
"","","","","","animation","104","984907","0.0-104.0","1920x1080","","5109.299999999814","75.66","img/238/4/2/bw/001.png","","","relaxing"
"","","","","","animation","105","990651","0.0-105.0","1920x1080","","5741.899999999907","30.29","img/314/4/0.66667/bw/001.png","","","relaxing"
"","","","","","animation","106","995732","0.0-106.0","1920x1080","","5079.899999999907","75.53","img/314/5.5/0.5/bw/001.png","","","relaxing"
"","","","","","animation","107","998715","0.0-107.0","1920x1080","","2982.6999999999534","0.40","img/238/2.5/0.66667/bw/001.png","","","relaxing"
"","","","","","animation","108","1014996","0.0-108.0","1920x1080","","16280.300000000047","98","img/238/5.5/2/bw/001.png","","","relaxing"
"","","","","","animation","109","1020914","0.0-109.0","1920x1080","","5917","51.72","img/238/3.5/1/bw/001.png","","","relaxing"
"","","","","","animation","110","1024674","0.0-110.0","1920x1080","","3759.5","34.26","img/314/4/0.5/bw/001.png","","","relaxing"
"","","","","","animation","111","1031122","0.0-111.0","1920x1080","","6446.5","0","img/117/2.5/0.5/bw/001.png","","","relaxing"
"","","","","","animation","112","1042498","0.0-112.0","1920x1080","","11374.399999999907","94","img/314/5.5/1/bw/001.png","","","relaxing"
"","","","","","animation","113","1049474","0.0-113.0","1920x1080","","6975.199999999953","0","img/314/2.5/0.5/bw/001.png","","","relaxing"
"","","","","","animation","114","1054754","0.0-114.0","1920x1080","","5278.5","9.92","img/314/3.5/0.66667/bw/001.png","","","relaxing"
"","","","","","animation","115","1059596","0.0-115.0","1920x1080","","4840.40000000014","66.01","img/117/4.5/1.5/bw/001.png","","","relaxing"
"","","","","","animation","116","1064290","0.0-116.0","1920x1080","","4693.600000000093","72.35","img/314/4.5/2/bw/001.png","","","relaxing"
"","","","","","animation","117","1069662","0.0-117.0","1920x1080","","5370.199999999953","55.82","img/238/4/1/bw/001.png","","","relaxing"
"","","","","","animation","118","1073106","0.0-118.0","1920x1080","","3443.5","3.70","img/314/2.5/1/bw/001.png","","","relaxing"
"","","","","","animation","119","1077297","0.0-119.0","1920x1080","","4183","4.37","img/117/3.5/1/bw/001.png","","","relaxing"
"","","","","","animation","120","1080521","0.0-120.0","1920x1080","","3223.1999999999534","34.13","img/314/4.5/1/bw/001.png","","","relaxing"
"","","","","","animation","121","1085425","0.0-121.0","1920x1080","","4902.59999999986","14.29","img/314/3.5/1.5/bw/001.png","","","relaxing"
"","","","","","animation","122","1091569","0.0-122.0","1920x1080","","6143","45.77","img/117/4.5/0.66667/bw/001.png","","","relaxing"
"","","","","","animation","123","1097869","0.0-123.0","1920x1080","","6299.5","63.76","img/117/4/1.5/bw/001.png","","","relaxing"
"","","","","","animation","124","1105420","0.0-124.0","1920x1080","","7550.199999999953","16.27","img/238/4/0.5/bw/001.png","","","relaxing"
"","","","","","animation","125","1117161","0.0-125.0","1920x1080","","11739.199999999953","70","img/238/3.5/2/bw/001.png","","","relaxing"
"","","","","","animation","126","1123761","0.0-126.0","1920x1080","","6598.699999999953","80","img/117/4.5/1/bw/001.png","","","relaxing"
"","","","","","animation","127","1133025","0.0-127.0","1920x1080","","9262.800000000047","90.48","img/238/5.5/1/bw/001.png","","","relaxing"
"","","","","","animation","128","1137072","0.0-128.0","1920x1080","","4046","63.89","img/314/4/1.5/bw/001.png","","","relaxing"
"","","","","","animation","129","1142803","0.0-129.0","1920x1080","","5729.300000000047","40.48","img/238/4.5/0.66667/bw/001.png","","","relaxing"
"","","","","","animation","130","1149856","0.0-130.0","1920x1080","","7052.699999999953","50.00","img/117/5.5/0.5/bw/001.png","","","relaxing"
"","","","","","animation","131","1153620","0.0-131.0","1920x1080","","3762.1999999999534","62.43","img/238/4.5/2/bw/001.png","","","relaxing"
"","","","","","animation","132","1157225","0.0-132.0","1920x1080","","3603.6999999999534","52.38","img/314/4/2/bw/001.png","","","relaxing"
"","","","","","animation","133","1168929","0.0-133.0","1920x1080","","11703.199999999953","88","img/117/5.5/1/bw/001.png","","","relaxing"
"","","","","","animation","134","1173769","0.0-134.0","1920x1080","","4838.5","30.29","img/117/4/0.66667/bw/001.png","","","relaxing"
"","","","","","animation","135","1178993","0.0-135.0","1920x1080","","5222.699999999953","9.92","img/314/3.5/1/bw/001.png","","","relaxing"
"","","","","","animation","136","1181656","0.0-136.0","1920x1080","","2662.2999999998137","0.40","img/314/3.5/0.5/bw/001.png","","","relaxing"
"","","","","","animation","137","1187736","0.0-137.0","1920x1080","","6078.800000000047","72.09","img/314/4.5/1.5/bw/001.png","","","relaxing"
"","","","","","animation","138","1191761","0.0-138.0","1920x1080","","4023.600000000093","22.09","img/238/4.5/0.5/bw/001.png","","","relaxing"
"","","","","","animation","139","1196140","0.0-139.0","1920x1080","","4374.600000000093","30.16","img/117/3.5/1.5/bw/001.png","","","relaxing"
"","","","","","animation","140","1199533","0.0-140.0","1920x1080","","3391.600000000093","0.00","img/117/3.5/0.5/bw/001.png","","","relaxing"
"","","","","","animation","141","1202456","0.0-141.0","1920x1080","","2922.100000000093","0","img/117/2.5/1/bw/001.png","","","relaxing"
"","","","","","animation","142","1205692","0.0-142.0","1920x1080","","3235.399999999907","0","img/238/3.5/0.5/bw/001.png","","","relaxing"
"","","","","","animation","143","1214845","0.0-143.0","1920x1080","","9151.5","22","img/314/3.5/2/bw/001.png","","","relaxing"
"","","","","","animation","144","1220340","0.0-144.0","1920x1080","","5494.399999999907","39.68","img/238/4.5/1/bw/001.png","","","relaxing"
"","","","","","animation","145","1224190","0.0-145.0","1920x1080","","3848.5","49.87","img/117/4.5/2/bw/001.png","","","relaxing"
"","","","","","animation","146","1228072","0.0-146.0","1920x1080","","3881.5999999998603","14","img/314/2.5/1.5/bw/001.png","","","relaxing"
"","","","","","animation","147","1234565","0.0-147.0","1920x1080","","6491.199999999953","15.87","img/117/2.5/2/bw/001.png","","","relaxing"
"","","","","","animation","148","1238290","0.0-148.0","1920x1080","","3723.4000000001397","8.07","img/238/2.5/1.5/bw/001.png","","","relaxing"
"","","","","","animation","149","1245397","0.0-149.0","1920x1080","","7106.299999999814","88.23","img/238/5.5/1.5/bw/001.png","","","relaxing"
"","","","","","animation","150","1249641","0.0-150.0","1920x1080","","4243.100000000093","53.70","img/314/4.5/0.66667/bw/001.png","","","relaxing"
"","","","","","animation","151","1255614","0.0-151.0","1920x1080","","5970","63.89","img/238/5.5/0.5/bw/001.png","","","relaxing"
"","","","","","animation","152","1258357","0.0-152.0","1920x1080","","2742.399999999907","15.61","img/117/4.5/0.5/bw/001.png","","","relaxing"
"","","","","","animation","153","1263062","0.0-153.0","1920x1080","","4703.5","0","img/314/2.5/0.66667/bw/001.png","","","relaxing"
"","","","","","animation","154","1271975","0.0-154.0","1920x1080","","8912.5","94","img/117/5.5/1.5/bw/001.png","","","relaxing"
"","","","","","animation","155","1281257","0.0-155.0","1920x1080","","9280.299999999814","26.46","img/117/4/1/bw/001.png","","","relaxing"
"","","","","","animation","156","1288565","0.0-156.0","1920x1080","","7307.399999999907","15.87","img/238/2.5/2/bw/001.png","","","relaxing"
"","","","","","animation","157","1300506","0.0-157.0","1920x1080","","11939.799999999814","48","img/117/3.5/2/bw/001.png","","","relaxing"
"","","","","","animation","158","1307173","0.0-158.0","1920x1080","","6665.800000000047","56.22","img/238/4/1.5/bw/001.png","","","relaxing"
"","","","","","html-button-response","159","1326339","0.0-159.0","1920x1080","","19158.90000000014","","<div class=""intro"">You are about to view a new series of animations.<br><br></div><div class=""intro"">You will evaluate them based on a different descriptor.<br><br></div><div class=""intro"">Move the slider to indicate how <strong style=""text-transform:capitalize"">INTERESTING</strong> you find each animation.<br><br></div><div class=""intro"">0 = Least Interesting<br></div><div class=""intro"">1 = Most Interesting<br><br></div><div class=""intro"">Remember to use the <strong><em>entire range</em></strong> of the slider to make your ratings.<br></div><div class=""intro"">Please <strong><em>take your time</em></strong> and carefully consider each rating you make.<br><br></div>","0","",""
"","","","","","call-function","160","1326339","0.0-160.0","1920x1080","","","","","","",""
"","","","","","animation","161","1339330","0.0-161.0","1920x1080","","12990","70.24","img/314/5.5/1.5/bw/001.png","","","interesting"
"","","","","","animation","162","1349546","0.0-162.0","1920x1080","","10214.699999999953","78.44","img/238/5.5/1/bw/001.png","","","interesting"
"","","","","","animation","163","1353378","0.0-163.0","1920x1080","","3830.600000000093","0.00","img/314/2.5/0.5/bw/001.png","","","interesting"
"","","","","","animation","164","1359278","0.0-164.0","1920x1080","","5898.600000000093","90.08","img/314/5.5/0.5/bw/001.png","","","interesting"
"","","","","","animation","165","1369978","0.0-165.0","1920x1080","","10698.899999999907","51.98","img/238/5.5/1.5/bw/001.png","","","interesting"
"","","","","","animation","166","1375548","0.0-166.0","1920x1080","","5575.199999999953","37.83","img/117/3.5/0.66667/bw/001.png","","","interesting"
"","","","","","animation","167","1384675","0.0-167.0","1920x1080","","9126.699999999953","86","img/238/5.5/0.5/bw/001.png","","","interesting"
"","","","","","animation","168","1390523","0.0-168.0","1920x1080","","5846.699999999953","38.23","img/314/4/0.66667/bw/001.png","","","interesting"
"","","","","","animation","169","1395860","0.0-169.0","1920x1080","","5335.199999999953","84.26","img/314/5.5/1/bw/001.png","","","interesting"
"","","","","","animation","170","1407955","0.0-170.0","1920x1080","","12094.40000000014","92","img/117/4.5/2/bw/001.png","","","interesting"
"","","","","","animation","171","1417508","0.0-171.0","1920x1080","","9550.799999999814","94","img/117/4/1.5/bw/001.png","","","interesting"
"","","","","","animation","172","1422621","0.0-172.0","1920x1080","","5111.699999999953","66.40","img/314/4.5/0.66667/bw/001.png","","","interesting"
"","","","","","animation","173","1427580","0.0-173.0","1920x1080","","4958.300000000047","72.35","img/314/4.5/0.5/bw/001.png","","","interesting"
"","","","","","animation","174","1432723","0.0-174.0","1920x1080","","5142.5","30.16","img/238/3.5/0.66667/bw/001.png","","","interesting"
"","","","","","animation","175","1438001","0.0-175.0","1920x1080","","5278.90000000014","89.68","img/314/4.5/2/bw/001.png","","","interesting"
"","","","","","animation","176","1441256","0.0-176.0","1920x1080","","3254.8000000000466","41.93","img/117/4/0.66667/bw/001.png","","","interesting"
"","","","","","animation","177","1450744","0.0-177.0","1920x1080","","9487.199999999953","46","img/117/5.5/2/bw/001.png","","","interesting"
"","","","","","animation","178","1455867","0.0-178.0","1920x1080","","5121.40000000014","84","img/117/4.5/0.66667/bw/001.png","","","interesting"
"","","","","","animation","179","1461304","0.0-179.0","1920x1080","","5435.800000000047","8.47","img/117/2.5/0.66667/bw/001.png","","","interesting"
"","","","","","animation","180","1464117","0.0-180.0","1920x1080","","2812.1999999999534","5.69","img/238/2.5/0.66667/bw/001.png","","","interesting"
"","","","","","animation","181","1467656","0.0-181.0","1920x1080","","3538.3000000000466","21.96","img/314/3.5/1/bw/001.png","","","interesting"
"","","","","","animation","182","1472504","0.0-182.0","1920x1080","","4846.800000000047","31.61","img/314/3.5/1.5/bw/001.png","","","interesting"
"","","","","","animation","183","1475437","0.0-183.0","1920x1080","","2931.9000000001397","43.65","img/314/3.5/2/bw/001.png","","","interesting"
"","","","","","animation","184","1481117","0.0-184.0","1920x1080","","5679","12.43","img/117/2.5/1.5/bw/001.png","","","interesting"
"","","","","","animation","185","1485133","0.0-185.0","1920x1080","","4014.8000000000466","9.66","img/238/2.5/2/bw/001.png","","","interesting"
"","","","","","animation","186","1494894","0.0-186.0","1920x1080","","9754.100000000093","79.63","img/238/4/2/bw/001.png","","","interesting"
"","","","","","animation","187","1501966","0.0-187.0","1920x1080","","7070.700000000186","56.48","img/238/3.5/2/bw/001.png","","","interesting"
"","","","","","animation","188","1505662","0.0-188.0","1920x1080","","3694.8000000000466","44.31","img/238/3.5/1/bw/001.png","","","interesting"
"","","","","","animation","189","1523174","0.0-189.0","1920x1080","","17510.600000000093","98","img/238/5.5/0.66667/bw/001.png","","","interesting"
"","","","","","animation","190","1529094","0.0-190.0","1920x1080","","5918.699999999953","84","img/314/4/2/bw/001.png","","","interesting"
"","","","","","animation","191","1533040","0.0-191.0","1920x1080","","3940","87.96","img/238/4.5/1.5/bw/001.png","","","interesting"
"","","","","","animation","192","1543294","0.0-192.0","1920x1080","","10253.300000000047","90.21","img/314/5.5/0.66667/bw/001.png","","","interesting"
"","","","","","animation","193","1546798","0.0-193.0","1920x1080","","3502.8000000000466","73.94","img/117/4/2/bw/001.png","","","interesting"
"","","","","","animation","194","1553073","0.0-194.0","1920x1080","","6273.40000000014","49.87","img/238/4/1/bw/001.png","","","interesting"
"","","","","","animation","195","1556308","0.0-195.0","1920x1080","","3236.600000000093","10.32","img/314/2.5/0.66667/bw/001.png","","","interesting"
"","","","","","animation","196","1560720","0.0-196.0","1920x1080","","4411.59999999986","72.22","img/314/4/1.5/bw/001.png","","","interesting"
"","","","","","animation","197","1563476","0.0-197.0","1920x1080","","2753.8000000000466","23.94","img/238/4/0.5/bw/001.png","","","interesting"
"","","","","","animation","198","1569580","0.0-198.0","1920x1080","","6103.09999999986","75.53","img/314/4.5/1/bw/001.png","","","interesting"
"","","","","","animation","199","1576037","0.0-199.0","1920x1080","","6455.90000000014","40.21","img/117/2.5/2/bw/001.png","","","interesting"
"","","","","","animation","200","1582123","0.0-200.0","1920x1080","","6085.699999999953","44.18","img/117/4.5/0.5/bw/001.png","","","interesting"
"","","","","","animation","201","1592123","0.0-201.0","1920x1080","","9998.600000000093","57.67","img/117/5.5/0.5/bw/001.png","","","interesting"
"","","","","","animation","202","1597908","0.0-202.0","1920x1080","","5782.899999999907","77.65","img/117/4.5/1/bw/001.png","","","interesting"
"","","","","","animation","203","1602637","0.0-203.0","1920x1080","","4727.899999999907","4.23","img/238/2.5/1.5/bw/001.png","","","interesting"
"","","","","","animation","204","1606320","0.0-204.0","1920x1080","","3682.100000000093","61.64","img/117/4/1/bw/001.png","","","interesting"
"","","","","","animation","205","1611644","0.0-205.0","1920x1080","","5322.600000000093","69.84","img/238/4/1.5/bw/001.png","","","interesting"
"","","","","","animation","206","1615773","0.0-206.0","1920x1080","","4126.600000000093","3.57","img/314/2.5/1/bw/001.png","","","interesting"
"","","","","","animation","207","1621638","0.0-207.0","1920x1080","","5864","50.40","img/117/4.5/1.5/bw/001.png","","","interesting"
"","","","","","animation","208","1625072","0.0-208.0","1920x1080","","3432.4000000001397","62.30","img/117/5.5/1/bw/001.png","","","interesting"
"","","","","","animation","209","1629548","0.0-209.0","1920x1080","","4475.199999999953","54.37","img/314/4/0.5/bw/001.png","","","interesting"
"","","","","","animation","210","1634006","0.0-210.0","1920x1080","","4456.600000000093","26.19","img/117/3.5/1/bw/001.png","","","interesting"
"","","","","","animation","211","1638326","0.0-211.0","1920x1080","","4318.399999999907","64.15","img/117/5.5/0.66667/bw/001.png","","","interesting"
"","","","","","animation","212","1641110","0.0-212.0","1920x1080","","2783","5.69","img/117/2.5/1/bw/001.png","","","interesting"
"","","","","","animation","213","1650239","0.0-213.0","1920x1080","","9128","18","img/117/4/0.5/bw/001.png","","","interesting"
"","","","","","animation","214","1659056","0.0-214.0","1920x1080","","8815.59999999986","10.19","img/314/2.5/2/bw/001.png","","","interesting"
"","","","","","animation","215","1669462","0.0-215.0","1920x1080","","10404.699999999953","90","img/238/4.5/2/bw/001.png","","","interesting"
"","","","","","animation","216","1673987","0.0-216.0","1920x1080","","4524.699999999953","6.48","img/238/3.5/0.5/bw/001.png","","","interesting"
"","","","","","animation","217","1685197","0.0-217.0","1920x1080","","11208.199999999953","75.93","img/238/5.5/2/bw/001.png","","","interesting"
"","","","","","animation","218","1689293","0.0-218.0","1920x1080","","4094.1999999999534","27.91","img/314/5.5/2/bw/001.png","","","interesting"
"","","","","","animation","219","1693971","0.0-219.0","1920x1080","","4677","73.94","img/314/4/1/bw/001.png","","","interesting"
"","","","","","animation","220","1699988","0.0-220.0","1920x1080","","6016","83.73","img/117/5.5/1.5/bw/001.png","","","interesting"
"","","","","","animation","221","1705821","0.0-221.0","1920x1080","","5831.300000000047","85.85","img/238/4.5/1/bw/001.png","","","interesting"
"","","","","","animation","222","1712124","0.0-222.0","1920x1080","","6302.399999999907","40","img/238/3.5/1.5/bw/001.png","","","interesting"
"","","","","","animation","223","1715493","0.0-223.0","1920x1080","","3366.9000000001397","32","img/238/4/0.66667/bw/001.png","","","interesting"
"","","","","","animation","224","1719538","0.0-224.0","1920x1080","","4043.600000000093","37.57","img/238/4.5/0.5/bw/001.png","","","interesting"
"","","","","","animation","225","1723554","0.0-225.0","1920x1080","","4015.600000000093","59.66","img/238/4.5/0.66667/bw/001.png","","","interesting"
"","","","","","animation","226","1727154","0.0-226.0","1920x1080","","3599.0999999998603","10.19","img/117/3.5/0.5/bw/001.png","","","interesting"
"","","","","","animation","227","1730821","0.0-227.0","1920x1080","","3665.7999999998137","20.37","img/117/3.5/1.5/bw/001.png","","","interesting"
"","","","","","animation","228","1735187","0.0-228.0","1920x1080","","4365.699999999953","14.42","img/314/3.5/0.66667/bw/001.png","","","interesting"
"","","","","","animation","229","1738019","0.0-229.0","1920x1080","","2831.399999999907","0","img/238/2.5/0.5/bw/001.png","","","interesting"
"","","","","","animation","230","1743043","0.0-230.0","1920x1080","","5022.5","37.83","img/117/3.5/2/bw/001.png","","","interesting"
"","","","","","animation","231","1752171","0.0-231.0","1920x1080","","9126.300000000047","14.15","img/314/3.5/0.5/bw/001.png","","","interesting"
"","","","","","animation","232","1757907","0.0-232.0","1920x1080","","5734.90000000014","86","img/314/4.5/1.5/bw/001.png","","","interesting"
"","","","","","animation","233","1762869","0.0-233.0","1920x1080","","4960.699999999953","0.40","img/238/2.5/1/bw/001.png","","","interesting"
"","","","","","animation","234","1766787","0.0-234.0","1920x1080","","3916.6999999999534","7.54","img/314/2.5/1.5/bw/001.png","","","interesting"
"","","","","","animation","235","1769723","0.0-235.0","1920x1080","","2934.6999999999534","0","img/117/2.5/0.5/bw/001.png","","","interesting"
"","","","","","html-button-response","236","1789071","0.0-236.0","1920x1080","","19346.600000000093","","<div class=""intro"">You are about to view a new series of animations.<br><br></div><div class=""intro"">You will evaluate them based on a different descriptor.<br><br></div><div class=""intro"">Move the slider to indicate how <strong style=""text-transform:capitalize"">APPEALING</strong> you find each animation.<br><br></div><div class=""intro"">0 = Least Appealing<br></div><div class=""intro"">1 = Most Appealing<br><br></div><div class=""intro"">Remember to use the <strong><em>entire range</em></strong> of the slider to make your ratings.<br></div><div class=""intro"">Please <strong><em>take your time</em></strong> and carefully consider each rating you make.<br><br></div>","0","",""
"","","","","","call-function","237","1789072","0.0-237.0","1920x1080","","","","","","",""
"","","","","","animation","238","1797787","0.0-238.0","1920x1080","","8712.799999999814","90.34","img/117/5.5/2/bw/001.png","","","appealing"
"","","","","","animation","239","1803709","0.0-239.0","1920x1080","","5920.199999999953","0.13","img/314/2.5/1.5/bw/001.png","","","appealing"
"","","","","","animation","240","1810877","0.0-240.0","1920x1080","","7166.699999999953","22.09","img/117/3.5/1/bw/001.png","","","appealing"
"","","","","","animation","241","1817940","0.0-241.0","1920x1080","","7062.40000000014","0","img/238/2.5/1/bw/001.png","","","appealing"
"","","","","","animation","242","1822587","0.0-242.0","1920x1080","","4645.199999999953","57.54","img/238/4.5/1/bw/001.png","","","appealing"
"","","","","","animation","243","1826687","0.0-243.0","1920x1080","","4098.899999999907","8.07","img/117/4/0.5/bw/001.png","","","appealing"
"","","","","","animation","244","1836354","0.0-244.0","1920x1080","","9665.40000000014","45.90","img/238/4/1.5/bw/001.png","","","appealing"
"","","","","","animation","245","1842157","0.0-245.0","1920x1080","","5801.600000000093","41.67","img/117/5.5/0.5/bw/001.png","","","appealing"
"","","","","","animation","246","1846004","0.0-246.0","1920x1080","","3846.5","32.14","img/314/4/0.5/bw/001.png","","","appealing"
"","","","","","animation","247","1849845","0.0-247.0","1920x1080","","3839.399999999907","-0.13","img/117/2.5/0.5/bw/001.png","","","appealing"
"","","","","","animation","248","1857736","0.0-248.0","1920x1080","","7891.199999999953","96","img/238/5.5/1/bw/001.png","","","appealing"
"","","","","","animation","249","1863418","0.0-249.0","1920x1080","","5681.300000000047","53.70","img/314/5.5/0.66667/bw/001.png","","","appealing"
"","","","","","animation","250","1869552","0.0-250.0","1920x1080","","6133.299999999814","13.89","img/238/4.5/0.5/bw/001.png","","","appealing"
"","","","","","animation","251","1874386","0.0-251.0","1920x1080","","4832.90000000014","82.28","img/314/5.5/1/bw/001.png","","","appealing"
"","","","","","animation","252","1879218","0.0-252.0","1920x1080","","4829.90000000014","54.37","img/314/4.5/1.5/bw/001.png","","","appealing"
"","","","","","animation","253","1885691","0.0-253.0","1920x1080","","6471.300000000047","64.29","img/117/3.5/2/bw/001.png","","","appealing"
"","","","","","animation","254","1888755","0.0-254.0","1920x1080","","3062.8000000000466","0.00","img/314/2.5/2/bw/001.png","","","appealing"
"","","","","","animation","255","1893923","0.0-255.0","1920x1080","","5167","55.69","img/238/3.5/1.5/bw/001.png","","","appealing"
"","","","","","animation","256","1899427","0.0-256.0","1920x1080","","5502.90000000014","43.78","img/117/4.5/0.66667/bw/001.png","","","appealing"
"","","","","","animation","257","1904043","0.0-257.0","1920x1080","","4614.600000000093","62.04","img/238/3.5/2/bw/001.png","","","appealing"
"","","","","","animation","258","1910827","0.0-258.0","1920x1080","","6782.600000000093","82","img/238/4.5/1.5/bw/001.png","","","appealing"
"","","","","","animation","259","1913868","0.0-259.0","1920x1080","","3040.3000000000466","37.57","img/314/4.5/0.66667/bw/001.png","","","appealing"
"","","","","","animation","260","1917802","0.0-260.0","1920x1080","","3932.7000000001863","29.63","img/314/4/1/bw/001.png","","","appealing"
"","","","","","animation","261","1921002","0.0-261.0","1920x1080","","3198.8000000000466","7.80","img/314/4.5/0.5/bw/001.png","","","appealing"
"","","","","","animation","262","1924435","0.0-262.0","1920x1080","","3431.5","7.94","img/238/4/1/bw/001.png","","","appealing"
"","","","","","animation","263","1928922","0.0-263.0","1920x1080","","4486.399999999907","20.37","img/314/3.5/2/bw/001.png","","","appealing"
"","","","","","animation","264","1932170","0.0-264.0","1920x1080","","3246.2000000001863","17.99","img/117/3.5/1.5/bw/001.png","","","appealing"
"","","","","","animation","265","1938335","0.0-265.0","1920x1080","","6163.40000000014","98","img/238/5.5/2/bw/001.png","","","appealing"
"","","","","","animation","266","1941784","0.0-266.0","1920x1080","","3448.6999999999534","37.83","img/117/4/1/bw/001.png","","","appealing"
"","","","","","animation","267","1947386","0.0-267.0","1920x1080","","5600.199999999953","58.33","img/314/4/1.5/bw/001.png","","","appealing"
"","","","","","animation","268","1951951","0.0-268.0","1920x1080","","4563.40000000014","74","img/117/4.5/2/bw/001.png","","","appealing"
"","","","","","animation","269","1955185","0.0-269.0","1920x1080","","3232.3000000000466","0","img/238/2.5/0.66667/bw/001.png","","","appealing"
"","","","","","animation","270","1961351","0.0-270.0","1920x1080","","6165.300000000047","76","img/117/5.5/1/bw/001.png","","","appealing"
"","","","","","animation","271","1966186","0.0-271.0","1920x1080","","4832.800000000047","62.30","img/314/5.5/0.5/bw/001.png","","","appealing"
"","","","","","animation","272","1969635","0.0-272.0","1920x1080","","3447.5","65.74","img/238/5.5/0.5/bw/001.png","","","appealing"
"","","","","","animation","273","1972738","0.0-273.0","1920x1080","","3102.100000000093","31.88","img/238/3.5/1/bw/001.png","","","appealing"
"","","","","","animation","274","1982804","0.0-274.0","1920x1080","","10062.5","58","img/238/4.5/2/bw/001.png","","","appealing"
"","","","","","animation","275","1990324","0.0-275.0","1920x1080","","7519","54","img/314/4/2/bw/001.png","","","appealing"
"","","","","","animation","276","1993036","0.0-276.0","1920x1080","","2710.3000000002794","0.40","img/117/2.5/1.5/bw/001.png","","","appealing"
"","","","","","animation","277","1997540","0.0-277.0","1920x1080","","4502.700000000186","11.64","img/238/4/0.66667/bw/001.png","","","appealing"
"","","","","","animation","278","2002202","0.0-278.0","1920x1080","","4660.899999999907","0.40","img/314/3.5/1/bw/001.png","","","appealing"
"","","","","","animation","279","2008486","0.0-279.0","1920x1080","","6282.199999999721","71.56","img/117/4.5/1.5/bw/001.png","","","appealing"
"","","","","","animation","280","2014340","0.0-280.0","1920x1080","","5852.399999999907","86","img/117/5.5/0.66667/bw/001.png","","","appealing"
"","","","","","animation","281","2019404","0.0-281.0","1920x1080","","5062.299999999814","78","img/117/4.5/1/bw/001.png","","","appealing"
"","","","","","animation","282","2023140","0.0-282.0","1920x1080","","3734.2999999998137","7.94","img/314/3.5/0.66667/bw/001.png","","","appealing"
"","","","","","animation","283","2026936","0.0-283.0","1920x1080","","3795","31.61","img/117/4/2/bw/001.png","","","appealing"
"","","","","","animation","284","2033253","0.0-284.0","1920x1080","","6315.5","40.08","img/238/4.5/0.66667/bw/001.png","","","appealing"
"","","","","","animation","285","2041954","0.0-285.0","1920x1080","","8698.69999999972","82","img/314/4.5/2/bw/001.png","","","appealing"
"","","","","","animation","286","2052854","0.0-286.0","1920x1080","","10898.30000000028","94","img/314/5.5/1.5/bw/001.png","","","appealing"
"","","","","","animation","287","2056789","0.0-287.0","1920x1080","","3933.2000000001863","0","img/238/2.5/1.5/bw/001.png","","","appealing"
"","","","","","animation","288","2068137","0.0-288.0","1920x1080","","11346.899999999907","0","img/238/3.5/0.5/bw/001.png","","","appealing"
"","","","","","animation","289","2077787","0.0-289.0","1920x1080","","9646.5","88.36","img/238/5.5/1.5/bw/001.png","","","appealing"
"","","","","","animation","290","2082575","0.0-290.0","1920x1080","","4786.5","0.40","img/117/2.5/1/bw/001.png","","","appealing"
"","","","","","animation","291","2092154","0.0-291.0","1920x1080","","9577.399999999907","83.99","img/314/5.5/2/bw/001.png","","","appealing"
"","","","","","animation","292","2095203","0.0-292.0","1920x1080","","3049.000000000233","0","img/314/2.5/0.66667/bw/001.png","","","appealing"
"","","","","","animation","293","2099020","0.0-293.0","1920x1080","","3815.2999999998137","62.30","img/117/4/1.5/bw/001.png","","","appealing"
"","","","","","animation","294","2103187","0.0-294.0","1920x1080","","4164.899999999907","14.15","img/238/3.5/0.66667/bw/001.png","","","appealing"
"","","","","","animation","295","2108804","0.0-295.0","1920x1080","","5616.5999999996275","2.25","img/314/3.5/0.5/bw/001.png","","","appealing"
"","","","","","animation","296","2114420","0.0-296.0","1920x1080","","5614.199999999721","10.32","img/238/2.5/2/bw/001.png","","","appealing"
"","","","","","animation","297","2117254","0.0-297.0","1920x1080","","2832.7999999998137","21.83","img/314/3.5/1.5/bw/001.png","","","appealing"
"","","","","","animation","298","2120820","0.0-298.0","1920x1080","","3562.7999999998137","16.14","img/117/4/0.66667/bw/001.png","","","appealing"
"","","","","","animation","299","2127478","0.0-299.0","1920x1080","","6656.5","78.17","img/238/5.5/0.66667/bw/001.png","","","appealing"
"","","","","","animation","300","2131086","0.0-300.0","1920x1080","","3605","0.00","img/117/2.5/0.66667/bw/001.png","","","appealing"
"","","","","","animation","301","2135372","0.0-301.0","1920x1080","","4285","40.21","img/314/4/0.66667/bw/001.png","","","appealing"
"","","","","","animation","302","2140004","0.0-302.0","1920x1080","","4630.799999999814","9.92","img/238/4/0.5/bw/001.png","","","appealing"
"","","","","","animation","303","2153406","0.0-303.0","1920x1080","","13397","94","img/117/5.5/1.5/bw/001.png","","","appealing"
"","","","","","animation","304","2156008","0.0-304.0","1920x1080","","2600.1999999997206","3.84","img/314/2.5/1/bw/001.png","","","appealing"
"","","","","","animation","305","2159928","0.0-305.0","1920x1080","","3918.6999999997206","8.07","img/117/2.5/2/bw/001.png","","","appealing"
"","","","","","animation","306","2163656","0.0-306.0","1920x1080","","3727.1999999997206","26.46","img/117/4.5/0.5/bw/001.png","","","appealing"
"","","","","","animation","307","2166990","0.0-307.0","1920x1080","","3332.399999999907","11.90","img/117/3.5/0.5/bw/001.png","","","appealing"
"","","","","","animation","308","2173728","0.0-308.0","1920x1080","","6736.700000000186","79.76","img/314/4.5/1/bw/001.png","","","appealing"
"","","","","","animation","309","2179528","0.0-309.0","1920x1080","","5798.299999999814","57.67","img/238/4/2/bw/001.png","","","appealing"
"","","","","","animation","310","2187590","0.0-310.0","1920x1080","","8061.100000000093","0.40","img/238/2.5/0.5/bw/001.png","","","appealing"
"","","","","","animation","311","2195057","0.0-311.0","1920x1080","","7464.700000000186","9.66","img/117/3.5/0.66667/bw/001.png","","","appealing"
"","","","","","animation","312","2198424","0.0-312.0","1920x1080","","3365.899999999907","0.40","img/314/2.5/0.5/bw/001.png","","","appealing"
"","","","","","html-button-response","313","2222083","0.0-313.0","1920x1080","","23647.600000000093","","<div class=""intro"">You are about to view a new series of animations.<br><br></div><div class=""intro"">You will evaluate them based on a different descriptor.<br><br></div><div class=""intro"">Move the slider to indicate how <strong style=""text-transform:capitalize"">NATURAL</strong> you find each animation.<br><br></div><div class=""intro"">0 = Least Natural<br></div><div class=""intro"">1 = Most Natural<br><br></div><div class=""intro"">Remember to use the <strong><em>entire range</em></strong> of the slider to make your ratings.<br></div><div class=""intro"">Please <strong><em>take your time</em></strong> and carefully consider each rating you make.<br><br></div>","0","",""
"","","","","","call-function","314","2222086","0.0-314.0","1920x1080","","","","","","",""
"","","","","","animation","315","2236758","0.0-315.0","1920x1080","","14671.100000000093","81.88","img/238/4.5/2/bw/001.png","","","natural"
"","","","","","animation","316","2246555","0.0-316.0","1920x1080","","9792.200000000186","40","img/117/5.5/1/bw/001.png","","","natural"
"","","","","","animation","317","2249950","0.0-317.0","1920x1080","","3392.899999999907","3.57","img/117/4/0.66667/bw/001.png","","","natural"
"","","","","","animation","318","2256883","0.0-318.0","1920x1080","","6931.699999999721","5.82","img/238/2.5/0.66667/bw/001.png","","","natural"
"","","","","","animation","319","2263418","0.0-319.0","1920x1080","","6534.200000000186","45.90","img/117/5.5/1.5/bw/001.png","","","natural"
"","","","","","animation","320","2269722","0.0-320.0","1920x1080","","6302.600000000093","79.89","img/314/4.5/1.5/bw/001.png","","","natural"
"","","","","","animation","321","2272450","0.0-321.0","1920x1080","","2725.899999999907","0.40","img/238/2.5/0.5/bw/001.png","","","natural"
"","","","","","animation","322","2281751","0.0-322.0","1920x1080","","9298.5","11.77","img/117/5.5/0.66667/bw/001.png","","","natural"
"","","","","","animation","323","2286376","0.0-323.0","1920x1080","","4623.399999999907","61.77","img/117/4/1.5/bw/001.png","","","natural"
"","","","","","animation","324","2291136","0.0-324.0","1920x1080","","4758.200000000186","30","img/117/4.5/0.5/bw/001.png","","","natural"
"","","","","","animation","325","2295651","0.0-325.0","1920x1080","","4514.200000000186","8","img/117/2.5/1.5/bw/001.png","","","natural"
"","","","","","animation","326","2303019","0.0-326.0","1920x1080","","7366.299999999814","40","img/238/3.5/2/bw/001.png","","","natural"
"","","","","","animation","327","2308990","0.0-327.0","1920x1080","","5968.4000000003725","44","img/314/4/1/bw/001.png","","","natural"
"","","","","","animation","328","2318701","0.0-328.0","1920x1080","","9709.80000000028","82.14","img/314/4.5/1/bw/001.png","","","natural"
"","","","","","animation","329","2322003","0.0-329.0","1920x1080","","3301.2000000001863","16.14","img/314/3.5/0.66667/bw/001.png","","","natural"
"","","","","","animation","330","2324540","0.0-330.0","1920x1080","","2534.5","39.55","img/314/3.5/1/bw/001.png","","","natural"
"","","","","","animation","331","2327004","0.0-331.0","1920x1080","","2462.600000000093","10.45","img/238/4/0.5/bw/001.png","","","natural"
"","","","","","animation","332","2335911","0.0-332.0","1920x1080","","8913","82","img/238/4.5/1.5/bw/001.png","","","natural"
"","","","","","animation","333","2338749","0.0-333.0","1920x1080","","2836.399999999907","23.81","img/238/3.5/0.66667/bw/001.png","","","natural"
"","","","","","animation","334","2343094","0.0-334.0","1920x1080","","4343.600000000093","42.33","img/314/4/1.5/bw/001.png","","","natural"
"","","","","","animation","335","2345380","0.0-335.0","1920x1080","","2285.399999999907","11.77","img/117/4/0.5/bw/001.png","","","natural"
"","","","","","animation","336","2352532","0.0-336.0","1920x1080","","7150.5","20","img/117/4/1/bw/001.png","","","natural"
"","","","","","animation","337","2360533","0.0-337.0","1920x1080","","7998.799999999814","79.76","img/117/4.5/1.5/bw/001.png","","","natural"
"","","","","","animation","338","2367294","0.0-338.0","1920x1080","","6759.600000000093","62.30","img/238/4/1.5/bw/001.png","","","natural"
"","","","","","animation","339","2369812","0.0-339.0","1920x1080","","2517.3000000002794","52.12","img/314/3.5/2/bw/001.png","","","natural"
"","","","","","animation","340","2374544","0.0-340.0","1920x1080","","4730","53.84","img/117/4.5/1/bw/001.png","","","natural"
"","","","","","animation","341","2381894","0.0-341.0","1920x1080","","7348.199999999721","27.91","img/314/2.5/1.5/bw/001.png","","","natural"
"","","","","","animation","342","2388993","0.0-342.0","1920x1080","","7098.100000000093","48.41","img/238/4.5/1/bw/001.png","","","natural"
"","","","","","animation","343","2395676","0.0-343.0","1920x1080","","6682.700000000186","6","img/238/2.5/1.5/bw/001.png","","","natural"
"","","","","","animation","344","2401364","0.0-344.0","1920x1080","","5685.5","14.29","img/117/3.5/1.5/bw/001.png","","","natural"
"","","","","","animation","345","2406995","0.0-345.0","1920x1080","","5630.5","2","img/117/2.5/1/bw/001.png","","","natural"
"","","","","","animation","346","2411610","0.0-346.0","1920x1080","","4612.699999999721","34","img/117/5.5/0.5/bw/001.png","","","natural"
"","","","","","animation","347","2418843","0.0-347.0","1920x1080","","7232.5","81.88","img/238/5.5/1.5/bw/001.png","","","natural"
"","","","","","animation","348","2427575","0.0-348.0","1920x1080","","8729.600000000093","28.17","img/238/3.5/1/bw/001.png","","","natural"
"","","","","","animation","349","2431276","0.0-349.0","1920x1080","","3699.600000000093","22.22","img/117/4.5/0.66667/bw/001.png","","","natural"
"","","","","","animation","350","2438843","0.0-350.0","1920x1080","","7565.700000000186","64.02","img/314/4.5/2/bw/001.png","","","natural"
"","","","","","animation","351","2443509","0.0-351.0","1920x1080","","4664","66","img/238/5.5/2/bw/001.png","","","natural"
"","","","","","animation","352","2450396","0.0-352.0","1920x1080","","6884.800000000279","78.17","img/314/5.5/1.5/bw/001.png","","","natural"
"","","","","","animation","353","2453348","0.0-353.0","1920x1080","","2951","5.95","img/314/3.5/0.5/bw/001.png","","","natural"
"","","","","","animation","354","2456119","0.0-354.0","1920x1080","","2760.2000000001863","18.39","img/238/4.5/0.5/bw/001.png","","","natural"
"","","","","","animation","355","2458818","0.0-355.0","1920x1080","","2698.5","0.40","img/314/2.5/0.66667/bw/001.png","","","natural"
"","","","","","animation","356","2467735","0.0-356.0","1920x1080","","8915.299999999814","30.16","img/314/4.5/0.66667/bw/001.png","","","natural"
"","","","","","animation","357","2470535","0.0-357.0","1920x1080","","2798.3000000002794","0","img/117/2.5/0.5/bw/001.png","","","natural"
"","","","","","animation","358","2477469","0.0-358.0","1920x1080","","6931.9000000003725","26.46","img/238/4.5/0.66667/bw/001.png","","","natural"
"","","","","","animation","359","2482905","0.0-359.0","1920x1080","","5434.899999999907","9","img/238/3.5/0.5/bw/001.png","","","natural"
"","","","","","animation","360","2492085","0.0-360.0","1920x1080","","9178.299999999814","73.68","img/117/4.5/2/bw/001.png","","","natural"
"","","","","","animation","361","2497853","0.0-361.0","1920x1080","","5765.700000000186","2","img/238/2.5/1/bw/001.png","","","natural"
"","","","","","animation","362","2502618","0.0-362.0","1920x1080","","4763.399999999907","68","img/314/5.5/1/bw/001.png","","","natural"
"","","","","","animation","363","2508102","0.0-363.0","1920x1080","","5482.199999999721","73.94","img/238/5.5/1/bw/001.png","","","natural"
"","","","","","animation","364","2511647","0.0-364.0","1920x1080","","3544","83.73","img/238/5.5/0.66667/bw/001.png","","","natural"
"","","","","","animation","365","2517535","0.0-365.0","1920x1080","","5886","2","img/314/2.5/0.5/bw/001.png","","","natural"
"","","","","","animation","366","2523351","0.0-366.0","1920x1080","","5814.100000000093","63.62","img/314/5.5/0.66667/bw/001.png","","","natural"
"","","","","","animation","367","2530956","0.0-367.0","1920x1080","","7604.100000000093","38","img/238/3.5/1.5/bw/001.png","","","natural"
"","","","","","animation","368","2534852","0.0-368.0","1920x1080","","3893.1999999997206","33.99","img/117/3.5/2/bw/001.png","","","natural"
"","","","","","animation","369","2545318","0.0-369.0","1920x1080","","10463.30000000028","53.84","img/238/4/2/bw/001.png","","","natural"
"","","","","","animation","370","2561693","0.0-370.0","1920x1080","","16373.80000000028","63.76","img/314/5.5/2/bw/001.png","","","natural"
"","","","","","animation","371","2565084","0.0-371.0","1920x1080","","3389.9000000003725","32.28","img/314/4/2/bw/001.png","","","natural"
"","","","","","animation","372","2568973","0.0-372.0","1920x1080","","3887.5","8.20","img/238/2.5/2/bw/001.png","","","natural"
"","","","","","animation","373","2574418","0.0-373.0","1920x1080","","5442.700000000186","22.22","img/117/4/2/bw/001.png","","","natural"
"","","","","","animation","374","2579557","0.0-374.0","1920x1080","","5136.399999999907","26","img/314/5.5/0.5/bw/001.png","","","natural"
"","","","","","animation","375","2584418","0.0-375.0","1920x1080","","4859.299999999814","12","img/238/4/0.66667/bw/001.png","","","natural"
"","","","","","animation","376","2591617","0.0-376.0","1920x1080","","7195.4000000003725","10.05","img/314/4/0.66667/bw/001.png","","","natural"
"","","","","","animation","377","2597204","0.0-377.0","1920x1080","","5585.699999999721","4","img/314/2.5/1/bw/001.png","","","natural"
"","","","","","animation","378","2600847","0.0-378.0","1920x1080","","3640.8000000002794","19.97","img/238/5.5/0.5/bw/001.png","","","natural"
"","","","","","animation","379","2604025","0.0-379.0","1920x1080","","3176.5","6.48","img/314/2.5/2/bw/001.png","","","natural"
"","","","","","animation","380","2606926","0.0-380.0","1920x1080","","2899.0999999996275","1.59","img/117/2.5/2/bw/001.png","","","natural"
"","","","","","animation","381","2610751","0.0-381.0","1920x1080","","3823.399999999907","10.45","img/314/4/0.5/bw/001.png","","","natural"
"","","","","","animation","382","2614351","0.0-382.0","1920x1080","","3598.2000000001863","24.34","img/314/4.5/0.5/bw/001.png","","","natural"
"","","","","","animation","383","2617283","0.0-383.0","1920x1080","","2930.100000000093","13.76","img/117/3.5/0.5/bw/001.png","","","natural"
"","","","","","animation","384","2622189","0.0-384.0","1920x1080","","4903.899999999907","0","img/117/2.5/0.66667/bw/001.png","","","natural"
"","","","","","animation","385","2627173","0.0-385.0","1920x1080","","4980.899999999907","5.82","img/117/3.5/0.66667/bw/001.png","","","natural"
"","","","","","animation","386","2630604","0.0-386.0","1920x1080","","3430","18.39","img/314/3.5/1.5/bw/001.png","","","natural"
"","","","","","animation","387","2634301","0.0-387.0","1920x1080","","3695.6999999997206","33.99","img/238/4/1/bw/001.png","","","natural"
"","","","","","animation","388","2637718","0.0-388.0","1920x1080","","3414.1999999997206","7.67","img/117/3.5/1/bw/001.png","","","natural"
"","","","","","animation","389","2642570","0.0-389.0","1920x1080","","4850.899999999907","74.21","img/117/5.5/2/bw/001.png","","","natural"
"","","","","","html-button-response","390","2685594","0.0-390.0","1920x1080","","43021.59999999963","","<strong>Study Debriefing</strong><br><p class=""debrief""><strong>Background:</strong> The patterns you rated are called <em>fractals</em>. The term fractal describes a class of irregular curves or shapes for which any suitably chosen part is similar in shape to a given larger or smaller part when magnified or reduced to the same size. Fractal properties are found throughout the natural and manmade world. The series of animations you saw today displayed animated fractal patterns of a varying complexity.</p><p class=""debrief""><strong>Purpose of this study:</strong> We hope to better understand how the perception of static fractals differs from the perception of animated fractals, and how the speed of the animated patterns influences people&apos;s perception of them. Fractals allow us to study the perception of aesthetic properties (e.g. the perceived level of beauty in an image) without using recognizable content, which makes them an excellent tool for studying abstract aesthetic judgement.</p><p class=""debrief""><strong>Your part:</strong> Your participation has helped us to further understand how humans perceive these patterns across different levels of speed and complexity. This research with allow us to better understand how the visual system and brain process our ever-changing visual environments.<p class=""debrief""><strong>Feedback and Further information:</strong> If you have additional questions about this study, please feel free to ask the researcher, Nathan Gonzales-Hess at nhess @ uoregon.edu. If you have any questions concerning your rights as a research participant, please contact Research Compliance Services, 5237 University of Oregon, Eugene, OR 97403, 541-346-2510, or email researchCompliance @ uoregon.edu. You can also email the Human Subjects Coordinator for psychology and linguistics research at hscoord @ uoregon.edu. ","0","",""
"","","","","","html-button-response","391","2690055","0.0-391.0","1920x1080","","4456.800000000279","","Thank you for participating in this study. <br>Please click below to finish the experiment and submit your responses.<br><br>","0","",""
"true","","","","","fullscreen","392","2691095","0.0-392.0","1920x1080","11:44 31/10/2022","","","","","",""
