"success","timeout","failed_images","failed_audio","failed_video","trial_type","trial_index","time_elapsed","internal_node_id","resolution","timeStamp","rt","response","stimulus","button_pressed","value","descriptor"
"true","false","[]","[]","[]","preload","0","20670","0.0-0.0","1920x1080","","","","","","",""
"true","false","[]","[]","[]","preload","1","40163","0.0-1.0","1920x1080","","","","","","",""
"true","false","[]","[]","[]","preload","2","60015","0.0-2.0","1920x1080","","","","","","",""
"true","","","","","fullscreen","3","192379","0.0-3.0","1920x1080","10:2 26/10/2022","","","","","",""
"","","","","","survey-html-form","4","201456","0.0-4.0","1920x1080","","9074.899999999994","{""age"":""21"",""gender"":""female""}","","","",""
"","","","","","html-button-response","5","311809","0.0-5.0","1920x1080","","110351.20000000004","","<div class=""complex"">You are going to see a series of animations.<br><br></div><div class=""complex"">Move the slider to indicate how <strong style=""text-transform:capitalize"">COMPLEX</strong> you find each animation.<br><br></div><div class=""complex"">0 = Least Complex<br></div><div class=""complex"">1 = Most Complex<br><br></div><div class=""complex"">Remember to use the <strong><em>entire range</em></strong> of the slider to make your ratings.<br></div><div class=""complex"">Please <strong><em>take your time</em></strong> and carefully consider each rating you make.<br><br></div><div class=""complex"">The study has five sections and will take about 45 minutes to complete.<br><br></div>","0","",""
"","","","","","call-function","6","311810","0.0-6.0","1920x1080","","","","","","",""
"","","","","","animation","7","326081","0.0-7.0","1920x1080","","14268.100000000035","58.99","img/314/2.5/0.66667/bw/001.png","","","complex"
"","","","","","animation","8","332600","0.0-8.0","1920x1080","","6518.099999999977","24.34","img/314/4.5/0.66667/bw/001.png","","","complex"
"","","","","","animation","9","337232","0.0-9.0","1920x1080","","4631.400000000023","74.60","img/117/2.5/0.5/bw/001.png","","","complex"
"","","","","","animation","10","343457","0.0-10.0","1920x1080","","6223.599999999977","24.87","img/314/4/0.66667/bw/001.png","","","complex"
"","","","","","animation","11","349353","0.0-11.0","1920x1080","","5894.700000000012","23.02","img/117/3.5/2/bw/001.png","","","complex"
"","","","","","animation","12","357512","0.0-12.0","1920x1080","","8158.900000000023","39.42","img/117/4.5/0.5/bw/001.png","","","complex"
"","","","","","animation","13","366696","0.0-13.0","1920x1080","","9183.5","69.18","img/117/3.5/0.5/bw/001.png","","","complex"
"","","","","","animation","14","375481","0.0-14.0","1920x1080","","8767.099999999977","58.47","img/314/3.5/0.5/bw/001.png","","","complex"
"","","","","","animation","15","382041","0.0-15.0","1920x1080","","6559.299999999988","4.89","img/117/5.5/1/bw/001.png","","","complex"
"","","","","","animation","16","390993","0.0-16.0","1920x1080","","8951.099999999977","62.04","img/238/2.5/1.5/bw/001.png","","","complex"
"","","","","","animation","17","402593","0.0-17.0","1920x1080","","11598.299999999988","48.54","img/314/3.5/1/bw/001.png","","","complex"
"","","","","","animation","18","409969","0.0-18.0","1920x1080","","7375.899999999965","9.13","img/314/5.5/0.66667/bw/001.png","","","complex"
"","","","","","animation","19","419513","0.0-19.0","1920x1080","","9543","36","img/117/4/2/bw/001.png","","","complex"
"","","","","","animation","20","432424","0.0-20.0","1920x1080","","12878.899999999965","23.94","img/238/4.5/1/bw/001.png","","","complex"
"","","","","","animation","21","441776","0.0-21.0","1920x1080","","9351.699999999953","19.18","img/314/4/1/bw/001.png","","","complex"
"","","","","","animation","22","451008","0.0-22.0","1920x1080","","9231.099999999977","60.98","img/238/3.5/1/bw/001.png","","","complex"
"","","","","","animation","23","462464","0.0-23.0","1920x1080","","11455","5.42","img/238/5.5/2/bw/001.png","","","complex"
"","","","","","animation","24","468080","0.0-24.0","1920x1080","","5615.200000000012","73.02","img/238/3.5/0.5/bw/001.png","","","complex"
"","","","","","animation","25","473280","0.0-25.0","1920x1080","","5199.5","75.40","img/117/3.5/0.66667/bw/001.png","","","complex"
"","","","","","animation","26","481152","0.0-26.0","1920x1080","","7871.099999999977","71.96","img/117/4/0.5/bw/001.png","","","complex"
"","","","","","animation","27","489616","0.0-27.0","1920x1080","","8463.200000000012","61","img/117/4.5/0.66667/bw/001.png","","","complex"
"","","","","","animation","28","493974","0.0-28.0","1920x1080","","4327.300000000047","92.33","img/238/2.5/2/bw/001.png","","","complex"
"","","","","","animation","29","500958","0.0-29.0","1920x1080","","6983","73.68","img/238/3.5/1.5/bw/001.png","","","complex"
"","","","","","animation","30","508678","0.0-30.0","1920x1080","","7719.100000000093","68.39","img/314/4/0.5/bw/001.png","","","complex"
"","","","","","animation","31","516382","0.0-31.0","1920x1080","","7703.399999999907","2","img/314/5.5/1/bw/001.png","","","complex"
"","","","","","animation","32","519182","0.0-32.0","1920x1080","","2799.0999999999767","97","img/314/2.5/0.5/bw/001.png","","","complex"
"","","","","","animation","33","531894","0.0-33.0","1920x1080","","12711","31","img/238/4/2/bw/001.png","","","complex"
"","","","","","animation","34","535462","0.0-34.0","1920x1080","","3567.0999999999767","94","img/238/2.5/0.5/bw/001.png","","","complex"
"","","","","","animation","35","543854","0.0-35.0","1920x1080","","8391.599999999977","13.62","img/238/4.5/2/bw/001.png","","","complex"
"","","","","","animation","36","547519","0.0-36.0","1920x1080","","3663.4000000000233","66.80","img/314/3.5/0.66667/bw/001.png","","","complex"
"","","","","","animation","37","551982","0.0-37.0","1920x1080","","4431.400000000023","75.40","img/117/3.5/1/bw/001.png","","","complex"
"","","","","","animation","38","556566","0.0-38.0","1920x1080","","4583.599999999977","82.67","img/314/3.5/1.5/bw/001.png","","","complex"
"","","","","","animation","39","564652","0.0-39.0","1920x1080","","8085.399999999907","16","img/238/4.5/1.5/bw/001.png","","","complex"
"","","","","","animation","40","571220","0.0-40.0","1920x1080","","6567.099999999977","45","img/238/4/1/bw/001.png","","","complex"
"","","","","","animation","41","576366","0.0-41.0","1920x1080","","5144.70000000007","82.01","img/117/2.5/0.66667/bw/001.png","","","complex"
"","","","","","animation","42","581821","0.0-42.0","1920x1080","","5453.699999999953","3.57","img/117/5.5/2/bw/001.png","","","complex"
"","","","","","animation","43","591852","0.0-43.0","1920x1080","","10030.699999999953","38","img/117/4/1.5/bw/001.png","","","complex"
"","","","","","animation","44","599252","0.0-44.0","1920x1080","","7398.400000000023","8.20","img/314/5.5/1.5/bw/001.png","","","complex"
"","","","","","animation","45","613813","0.0-45.0","1920x1080","","14526.300000000047","68.12","img/238/4/0.5/bw/001.png","","","complex"
"","","","","","animation","46","623492","0.0-46.0","1920x1080","","9678","8.33","img/238/5.5/0.66667/bw/001.png","","","complex"
"","","","","","animation","47","631620","0.0-47.0","1920x1080","","8126.900000000023","50.53","img/238/4.5/0.66667/bw/001.png","","","complex"
"","","","","","animation","48","641460","0.0-48.0","1920x1080","","9839.199999999953","16.01","img/117/4.5/2/bw/001.png","","","complex"
"","","","","","animation","49","644756","0.0-49.0","1920x1080","","3295.0999999999767","86.90","img/117/2.5/1.5/bw/001.png","","","complex"
"","","","","","animation","50","652235","0.0-50.0","1920x1080","","7478.79999999993","52.12","img/314/4/2/bw/001.png","","","complex"
"","","","","","animation","51","655644","0.0-51.0","1920x1080","","3407.5999999999767","99","img/238/2.5/1/bw/001.png","","","complex"
"","","","","","animation","52","663604","0.0-52.0","1920x1080","","7958.900000000023","69","img/117/4/0.66667/bw/001.png","","","complex"
"","","","","","animation","53","669756","0.0-53.0","1920x1080","","6151.099999999977","33.07","img/314/5.5/0.5/bw/001.png","","","complex"
"","","","","","animation","54","673106","0.0-54.0","1920x1080","","3335.0999999999767","96","img/238/2.5/0.66667/bw/001.png","","","complex"
"","","","","","animation","55","678858","0.0-55.0","1920x1080","","5751","9.39","img/238/5.5/1.5/bw/001.png","","","complex"
"","","","","","animation","56","685386","0.0-56.0","1920x1080","","6526.800000000047","69.18","img/314/3.5/2/bw/001.png","","","complex"
"","","","","","animation","57","692482","0.0-57.0","1920x1080","","7094.800000000047","4.89","img/314/5.5/2/bw/001.png","","","complex"
"","","","","","animation","58","696018","0.0-58.0","1920x1080","","3535","90.08","img/117/2.5/1/bw/001.png","","","complex"
"","","","","","animation","59","705060","0.0-59.0","1920x1080","","9041.100000000093","55.42","img/238/4/0.66667/bw/001.png","","","complex"
"","","","","","animation","60","719962","0.0-60.0","1920x1080","","14901.300000000047","48","img/117/3.5/1.5/bw/001.png","","","complex"
"","","","","","animation","61","727538","0.0-61.0","1920x1080","","7575","52.91","img/314/4/1.5/bw/001.png","","","complex"
"","","","","","animation","62","730361","0.0-62.0","1920x1080","","2822.5999999999767","94.58","img/314/2.5/2/bw/001.png","","","complex"
"","","","","","animation","63","736631","0.0-63.0","1920x1080","","6271","51.59","img/238/3.5/2/bw/001.png","","","complex"
"","","","","","animation","64","744647","0.0-64.0","1920x1080","","8014.699999999953","42.20","img/238/4/1.5/bw/001.png","","","complex"
"","","","","","animation","65","749168","0.0-65.0","1920x1080","","4519.300000000047","32.14","img/238/5.5/0.5/bw/001.png","","","complex"
"","","","","","animation","66","752642","0.0-66.0","1920x1080","","3473.1999999999534","36.77","img/117/5.5/0.5/bw/001.png","","","complex"
"","","","","","animation","67","756305","0.0-67.0","1920x1080","","3662.4000000000233","37.17","img/117/5.5/0.66667/bw/001.png","","","complex"
"","","","","","animation","68","761143","0.0-68.0","1920x1080","","4836.800000000047","67.59","img/117/4/1/bw/001.png","","","complex"
"","","","","","animation","69","765263","0.0-69.0","1920x1080","","4119.099999999977","91.80","img/314/2.5/1.5/bw/001.png","","","complex"
"","","","","","animation","70","769858","0.0-70.0","1920x1080","","4594.199999999953","58","img/314/4.5/2/bw/001.png","","","complex"
"","","","","","animation","71","773479","0.0-71.0","1920x1080","","3620.0999999999767","6.35","img/117/5.5/1.5/bw/001.png","","","complex"
"","","","","","animation","72","777792","0.0-72.0","1920x1080","","4311.900000000023","81.35","img/238/3.5/0.66667/bw/001.png","","","complex"
"","","","","","animation","73","785760","0.0-73.0","1920x1080","","7965.800000000047","33.47","img/117/4.5/1/bw/001.png","","","complex"
"","","","","","animation","74","788887","0.0-74.0","1920x1080","","3126.6999999999534","65.61","img/238/4.5/0.5/bw/001.png","","","complex"
"","","","","","animation","75","792180","0.0-75.0","1920x1080","","3288.100000000093","32.01","img/117/4.5/1.5/bw/001.png","","","complex"
"","","","","","animation","76","795146","0.0-76.0","1920x1080","","2965.79999999993","23.68","img/314/4.5/1/bw/001.png","","","complex"
"","","","","","animation","77","802861","0.0-77.0","1920x1080","","7714.099999999977","9","img/238/5.5/1/bw/001.png","","","complex"
"","","","","","animation","78","808682","0.0-78.0","1920x1080","","5819.70000000007","28.04","img/314/4.5/1.5/bw/001.png","","","complex"
"","","","","","animation","79","812930","0.0-79.0","1920x1080","","4247","65.87","img/314/4.5/0.5/bw/001.png","","","complex"
"","","","","","animation","80","816506","0.0-80.0","1920x1080","","3575.399999999907","95","img/117/2.5/2/bw/001.png","","","complex"
"","","","","","animation","81","820434","0.0-81.0","1920x1080","","3926.29999999993","100","img/314/2.5/1/bw/001.png","","","complex"
"","","","","","html-button-response","82","876622","0.0-82.0","1920x1080","","56183.40000000002","","<div class=""intro"">You are about to view a new series of animations.<br><br></div><div class=""intro"">You will evaluate them based on a different descriptor.<br><br></div><div class=""intro"">Move the slider to indicate how <strong style=""text-transform:capitalize"">APPEALING</strong> you find each animation.<br><br></div><div class=""intro"">0 = Least Appealing<br></div><div class=""intro"">1 = Most Appealing<br><br></div><div class=""intro"">Remember to use the <strong><em>entire range</em></strong> of the slider to make your ratings.<br></div><div class=""intro"">Please <strong><em>take your time</em></strong> and carefully consider each rating you make.<br><br></div>","0","",""
"","","","","","call-function","83","876625","0.0-83.0","1920x1080","","","","","","",""
"","","","","","animation","84","896029","0.0-84.0","1920x1080","","19403","24.60","img/117/3.5/0.66667/bw/001.png","","","appealing"
"","","","","","animation","85","901398","0.0-85.0","1920x1080","","5367.400000000023","80","img/314/4.5/2/bw/001.png","","","appealing"
"","","","","","animation","86","905297","0.0-86.0","1920x1080","","3897.8000000000466","17","img/238/4/1.5/bw/001.png","","","appealing"
"","","","","","animation","87","909173","0.0-87.0","1920x1080","","3874.9000000000233","0","img/314/2.5/2/bw/001.png","","","appealing"
"","","","","","animation","88","918566","0.0-88.0","1920x1080","","9398.800000000047","0.53","img/238/2.5/0.66667/bw/001.png","","","appealing"
"","","","","","animation","89","922798","0.0-89.0","1920x1080","","4231","18.25","img/117/4/1/bw/001.png","","","appealing"
"","","","","","animation","90","927182","0.0-90.0","1920x1080","","4383.099999999977","6.61","img/238/3.5/1.5/bw/001.png","","","appealing"
"","","","","","animation","91","929541","0.0-91.0","1920x1080","","2358.5999999999767","4","img/314/3.5/0.66667/bw/001.png","","","appealing"
"","","","","","animation","92","932046","0.0-92.0","1920x1080","","2503.3000000000466","1.32","img/117/2.5/1/bw/001.png","","","appealing"
"","","","","","animation","93","934062","0.0-93.0","1920x1080","","2014.9000000000233","10.58","img/314/4/0.66667/bw/001.png","","","appealing"
"","","","","","animation","94","936773","0.0-94.0","1920x1080","","2710.5","7.54","img/238/4/2/bw/001.png","","","appealing"
"","","","","","animation","95","940289","0.0-95.0","1920x1080","","3514.5","3.57","img/314/3.5/0.5/bw/001.png","","","appealing"
"","","","","","animation","96","944125","0.0-96.0","1920x1080","","3835.5999999999767","-0.66","img/314/2.5/0.5/bw/001.png","","","appealing"
"","","","","","animation","97","950078","0.0-97.0","1920x1080","","5951.400000000023","50.53","img/117/4.5/1/bw/001.png","","","appealing"
"","","","","","animation","98","953857","0.0-98.0","1920x1080","","3778","0","img/238/2.5/0.5/bw/001.png","","","appealing"
"","","","","","animation","99","960030","0.0-99.0","1920x1080","","6172","50","img/314/5.5/0.5/bw/001.png","","","appealing"
"","","","","","animation","100","962382","0.0-100.0","1920x1080","","2351","3.97","img/238/4/0.5/bw/001.png","","","appealing"
"","","","","","animation","101","966478","0.0-101.0","1920x1080","","4095.0999999999767","4","img/238/4/0.66667/bw/001.png","","","appealing"
"","","","","","animation","102","971682","0.0-102.0","1920x1080","","5198.5","89","img/117/5.5/0.66667/bw/001.png","","","appealing"
"","","","","","animation","103","976466","0.0-103.0","1920x1080","","4783.5","53.84","img/117/4.5/2/bw/001.png","","","appealing"
"","","","","","animation","104","980244","0.0-104.0","1920x1080","","3776.4000000000233","11.64","img/117/3.5/1.5/bw/001.png","","","appealing"
"","","","","","animation","105","983866","0.0-105.0","1920x1080","","3621.600000000093","0","img/238/3.5/0.66667/bw/001.png","","","appealing"
"","","","","","animation","106","986618","0.0-106.0","1920x1080","","2751.20000000007","19.31","img/238/4.5/0.66667/bw/001.png","","","appealing"
"","","","","","animation","107","989250","0.0-107.0","1920x1080","","2631","6.61","img/238/4/1/bw/001.png","","","appealing"
"","","","","","animation","108","992450","0.0-108.0","1920x1080","","3199","5.69","img/314/4/1.5/bw/001.png","","","appealing"
"","","","","","animation","109","995570","0.0-109.0","1920x1080","","3119.1999999999534","1.98","img/238/3.5/2/bw/001.png","","","appealing"
"","","","","","animation","110","998618","0.0-110.0","1920x1080","","3046.8000000000466","0","img/117/2.5/0.5/bw/001.png","","","appealing"
"","","","","","animation","111","1002322","0.0-111.0","1920x1080","","3703.0999999999767","0","img/117/3.5/0.5/bw/001.png","","","appealing"
"","","","","","animation","112","1005066","0.0-112.0","1920x1080","","2742.8000000000466","0","img/117/3.5/1/bw/001.png","","","appealing"
"","","","","","animation","113","1009346","0.0-113.0","1920x1080","","4278.400000000023","4","img/314/4/0.5/bw/001.png","","","appealing"
"","","","","","animation","114","1014634","0.0-114.0","1920x1080","","5287.600000000093","80.82","img/117/5.5/1.5/bw/001.png","","","appealing"
"","","","","","animation","115","1020122","0.0-115.0","1920x1080","","5486.699999999953","20","img/117/4.5/0.5/bw/001.png","","","appealing"
"","","","","","animation","116","1025402","0.0-116.0","1920x1080","","5278.5","19.71","img/314/3.5/1.5/bw/001.png","","","appealing"
"","","","","","animation","117","1028666","0.0-117.0","1920x1080","","3262.8000000000466","-0.79","img/117/2.5/0.66667/bw/001.png","","","appealing"
"","","","","","animation","118","1033024","0.0-118.0","1920x1080","","4359.199999999953","20.37","img/238/4.5/1.5/bw/001.png","","","appealing"
"","","","","","animation","119","1036312","0.0-119.0","1920x1080","","3286.899999999907","5.82","img/314/4/1/bw/001.png","","","appealing"
"","","","","","animation","120","1040691","0.0-120.0","1920x1080","","4378","2.51","img/238/3.5/0.5/bw/001.png","","","appealing"
"","","","","","animation","121","1046248","0.0-121.0","1920x1080","","5556.29999999993","90","img/314/5.5/1/bw/001.png","","","appealing"
"","","","","","animation","122","1049912","0.0-122.0","1920x1080","","3663","8","img/314/4.5/0.5/bw/001.png","","","appealing"
"","","","","","animation","123","1056400","0.0-123.0","1920x1080","","6487.199999999953","29","img/314/5.5/0.66667/bw/001.png","","","appealing"
"","","","","","animation","124","1060696","0.0-124.0","1920x1080","","4295","23","img/117/4.5/1.5/bw/001.png","","","appealing"
"","","","","","animation","125","1064392","0.0-125.0","1920x1080","","3695.899999999907","-0.40","img/117/2.5/2/bw/001.png","","","appealing"
"","","","","","animation","126","1067912","0.0-126.0","1920x1080","","3518","5","img/314/3.5/2/bw/001.png","","","appealing"
"","","","","","animation","127","1070432","0.0-127.0","1920x1080","","2519.1999999999534","-19.71","img/314/2.5/1.5/bw/001.png","","","appealing"
"","","","","","animation","128","1073975","0.0-128.0","1920x1080","","3542.4000000001397","7","img/314/4.5/0.66667/bw/001.png","","","appealing"
"","","","","","animation","129","1081800","0.0-129.0","1920x1080","","7823.300000000047","87.57","img/238/5.5/1.5/bw/001.png","","","appealing"
"","","","","","animation","130","1090874","0.0-130.0","1920x1080","","9074.59999999986","3","img/238/3.5/1/bw/001.png","","","appealing"
"","","","","","animation","131","1096306","0.0-131.0","1920x1080","","5431.300000000047","1","img/117/4.5/0.66667/bw/001.png","","","appealing"
"","","","","","animation","132","1100558","0.0-132.0","1920x1080","","4250.59999999986","2","img/117/4/1.5/bw/001.png","","","appealing"
"","","","","","animation","133","1102923","0.0-133.0","1920x1080","","2364.5","-14.02","img/314/2.5/0.66667/bw/001.png","","","appealing"
"","","","","","animation","134","1106966","0.0-134.0","1920x1080","","4042","22","img/314/4.5/1/bw/001.png","","","appealing"
"","","","","","animation","135","1111342","0.0-135.0","1920x1080","","4374.40000000014","0","img/238/2.5/1/bw/001.png","","","appealing"
"","","","","","animation","136","1115223","0.0-136.0","1920x1080","","3879.8000000000466","0","img/238/2.5/2/bw/001.png","","","appealing"
"","","","","","animation","137","1119382","0.0-137.0","1920x1080","","4157.800000000047","5","img/117/4/2/bw/001.png","","","appealing"
"","","","","","animation","138","1125190","0.0-138.0","1920x1080","","5806.199999999953","10","img/117/3.5/2/bw/001.png","","","appealing"
"","","","","","animation","139","1130510","0.0-139.0","1920x1080","","5319.300000000047","50.93","img/238/5.5/0.66667/bw/001.png","","","appealing"
"","","","","","animation","140","1133340","0.0-140.0","1920x1080","","2828.899999999907","0","img/314/2.5/1/bw/001.png","","","appealing"
"","","","","","animation","141","1140806","0.0-141.0","1920x1080","","7464.699999999953","71","img/314/5.5/2/bw/001.png","","","appealing"
"","","","","","animation","142","1150590","0.0-142.0","1920x1080","","9783.09999999986","71","img/314/5.5/1.5/bw/001.png","","","appealing"
"","","","","","animation","143","1154222","0.0-143.0","1920x1080","","3623.5","21.83","img/117/5.5/0.5/bw/001.png","","","appealing"
"","","","","","animation","144","1157158","0.0-144.0","1920x1080","","2935","7.01","img/314/3.5/1/bw/001.png","","","appealing"
"","","","","","animation","145","1163549","0.0-145.0","1920x1080","","6390.5","15","img/117/5.5/1/bw/001.png","","","appealing"
"","","","","","animation","146","1173301","0.0-146.0","1920x1080","","9751.300000000047","30","img/238/5.5/0.5/bw/001.png","","","appealing"
"","","","","","animation","147","1182197","0.0-147.0","1920x1080","","8894.700000000186","47.88","img/238/5.5/1/bw/001.png","","","appealing"
"","","","","","animation","148","1195517","0.0-148.0","1920x1080","","13319","42.72","img/238/5.5/2/bw/001.png","","","appealing"
"","","","","","animation","149","1198885","0.0-149.0","1920x1080","","3367.100000000093","8.20","img/117/4/0.66667/bw/001.png","","","appealing"
"","","","","","animation","150","1206264","0.0-150.0","1920x1080","","7377.100000000093","11.90","img/238/4.5/2/bw/001.png","","","appealing"
"","","","","","animation","151","1212359","0.0-151.0","1920x1080","","6092.800000000047","10.05","img/117/4/0.5/bw/001.png","","","appealing"
"","","","","","animation","152","1220959","0.0-152.0","1920x1080","","8598.800000000047","15","img/314/4/2/bw/001.png","","","appealing"
"","","","","","animation","153","1229887","0.0-153.0","1920x1080","","8924.59999999986","8.47","img/238/4.5/0.5/bw/001.png","","","appealing"
"","","","","","animation","154","1233119","0.0-154.0","1920x1080","","3230.3000000000466","-0.13","img/117/2.5/1.5/bw/001.png","","","appealing"
"","","","","","animation","155","1235948","0.0-155.0","1920x1080","","2827.399999999907","6.61","img/314/4.5/1.5/bw/001.png","","","appealing"
"","","","","","animation","156","1240991","0.0-156.0","1920x1080","","5042.299999999814","4","img/238/4.5/1/bw/001.png","","","appealing"
"","","","","","animation","157","1244087","0.0-157.0","1920x1080","","3094.6999999999534","0","img/238/2.5/1.5/bw/001.png","","","appealing"
"","","","","","animation","158","1248551","0.0-158.0","1920x1080","","4462.90000000014","72.62","img/117/5.5/2/bw/001.png","","","appealing"
"","","","","","html-button-response","159","1301111","0.0-159.0","1920x1080","","52551.09999999986","","<div class=""intro"">You are about to view a new series of animations.<br><br></div><div class=""intro"">You will evaluate them based on a different descriptor.<br><br></div><div class=""intro"">Move the slider to indicate how <strong style=""text-transform:capitalize"">NATURAL</strong> you find each animation.<br><br></div><div class=""intro"">0 = Least Natural<br></div><div class=""intro"">1 = Most Natural<br><br></div><div class=""intro"">Remember to use the <strong><em>entire range</em></strong> of the slider to make your ratings.<br></div><div class=""intro"">Please <strong><em>take your time</em></strong> and carefully consider each rating you make.<br><br></div>","0","",""
"","","","","","call-function","160","1301115","0.0-160.0","1920x1080","","","","","","",""
"","","","","","animation","161","1306727","0.0-161.0","1920x1080","","5611.199999999953","70.63","img/117/2.5/1/bw/001.png","","","natural"
"","","","","","animation","162","1311390","0.0-162.0","1920x1080","","4662.600000000093","75.13","img/117/5.5/1.5/bw/001.png","","","natural"
"","","","","","animation","163","1315159","0.0-163.0","1920x1080","","3767.100000000093","33.07","img/314/4/1.5/bw/001.png","","","natural"
"","","","","","animation","164","1319631","0.0-164.0","1920x1080","","4471.199999999953","52.51","img/314/3.5/1/bw/001.png","","","natural"
"","","","","","animation","165","1323879","0.0-165.0","1920x1080","","4246.90000000014","36","img/117/4/1.5/bw/001.png","","","natural"
"","","","","","animation","166","1330987","0.0-166.0","1920x1080","","7108.100000000093","40","img/238/5.5/1.5/bw/001.png","","","natural"
"","","","","","animation","167","1336190","0.0-167.0","1920x1080","","5201.799999999814","58.07","img/238/3.5/1/bw/001.png","","","natural"
"","","","","","animation","168","1342542","0.0-168.0","1920x1080","","6351.5","37.96","img/117/4/1/bw/001.png","","","natural"
"","","","","","animation","169","1349742","0.0-169.0","1920x1080","","7197.199999999953","24.34","img/117/5.5/0.66667/bw/001.png","","","natural"
"","","","","","animation","170","1353390","0.0-170.0","1920x1080","","3646.6999999999534","30.95","img/238/5.5/1/bw/001.png","","","natural"
"","","","","","animation","171","1358287","0.0-171.0","1920x1080","","4897","32.67","img/314/5.5/1/bw/001.png","","","natural"
"","","","","","animation","172","1361422","0.0-172.0","1920x1080","","3132.2999999998137","63.62","img/117/3.5/1/bw/001.png","","","natural"
"","","","","","animation","173","1364614","0.0-173.0","1920x1080","","3191.1999999999534","81.08","img/238/2.5/1.5/bw/001.png","","","natural"
"","","","","","animation","174","1369326","0.0-174.0","1920x1080","","4710.90000000014","86","img/314/2.5/0.66667/bw/001.png","","","natural"
"","","","","","animation","175","1375126","0.0-175.0","1920x1080","","5798.800000000047","47","img/314/4.5/0.66667/bw/001.png","","","natural"
"","","","","","animation","176","1378121","0.0-176.0","1920x1080","","2993.399999999907","85.05","img/238/2.5/2/bw/001.png","","","natural"
"","","","","","animation","177","1386142","0.0-177.0","1920x1080","","8020.100000000093","46.16","img/314/4.5/1/bw/001.png","","","natural"
"","","","","","animation","178","1399711","0.0-178.0","1920x1080","","13567.09999999986","46.56","img/238/5.5/0.5/bw/001.png","","","natural"
"","","","","","animation","179","1407695","0.0-179.0","1920x1080","","7982.700000000186","0","img/238/2.5/0.66667/bw/001.png","","","natural"
"","","","","","animation","180","1416927","0.0-180.0","1920x1080","","9230.600000000093","64","img/238/4/1/bw/001.png","","","natural"
"","","","","","animation","181","1425574","0.0-181.0","1920x1080","","8646.5","44.71","img/238/4.5/1/bw/001.png","","","natural"
"","","","","","animation","182","1430338","0.0-182.0","1920x1080","","4762.399999999907","48.15","img/238/3.5/0.66667/bw/001.png","","","natural"
"","","","","","animation","183","1434055","0.0-183.0","1920x1080","","3715.8000000000466","74.21","img/238/3.5/1.5/bw/001.png","","","natural"
"","","","","","animation","184","1438990","0.0-184.0","1920x1080","","4934.300000000047","67.06","img/117/3.5/2/bw/001.png","","","natural"
"","","","","","animation","185","1442279","0.0-185.0","1920x1080","","3287","91.01","img/117/2.5/2/bw/001.png","","","natural"
"","","","","","animation","186","1450206","0.0-186.0","1920x1080","","7926.300000000047","68.12","img/314/5.5/1.5/bw/001.png","","","natural"
"","","","","","animation","187","1455404","0.0-187.0","1920x1080","","5199","74.07","img/117/5.5/2/bw/001.png","","","natural"
"","","","","","animation","188","1459341","0.0-188.0","1920x1080","","3934.8000000000466","55","img/314/4/1/bw/001.png","","","natural"
"","","","","","animation","189","1474525","0.0-189.0","1920x1080","","15183","69","img/117/4/2/bw/001.png","","","natural"
"","","","","","animation","190","1492756","0.0-190.0","1920x1080","","18230.699999999953","69","img/238/5.5/2/bw/001.png","","","natural"
"","","","","","animation","191","1495385","0.0-191.0","1920x1080","","2627.6999999999534","83","img/117/2.5/0.5/bw/001.png","","","natural"
"","","","","","animation","192","1498452","0.0-192.0","1920x1080","","3065.6999999999534","88.89","img/117/2.5/1.5/bw/001.png","","","natural"
"","","","","","animation","193","1502772","0.0-193.0","1920x1080","","4319.100000000093","53","img/314/4.5/2/bw/001.png","","","natural"
"","","","","","animation","194","1510452","0.0-194.0","1920x1080","","7677.799999999814","22.49","img/238/4/0.5/bw/001.png","","","natural"
"","","","","","animation","195","1513502","0.0-195.0","1920x1080","","3048.6999999999534","55","img/117/3.5/1.5/bw/001.png","","","natural"
"","","","","","animation","196","1520004","0.0-196.0","1920x1080","","6500.800000000047","23.81","img/314/4/0.66667/bw/001.png","","","natural"
"","","","","","animation","197","1524051","0.0-197.0","1920x1080","","4046.5","46.43","img/117/5.5/1/bw/001.png","","","natural"
"","","","","","animation","198","1528603","0.0-198.0","1920x1080","","4550.600000000093","81.48","img/314/2.5/1.5/bw/001.png","","","natural"
"","","","","","animation","199","1531835","0.0-199.0","1920x1080","","3230.6999999999534","73.41","img/238/4/1.5/bw/001.png","","","natural"
"","","","","","animation","200","1536244","0.0-200.0","1920x1080","","4407.199999999953","52.25","img/117/4.5/1.5/bw/001.png","","","natural"
"","","","","","animation","201","1542019","0.0-201.0","1920x1080","","5774.199999999953","78","img/314/5.5/2/bw/001.png","","","natural"
"","","","","","animation","202","1546603","0.0-202.0","1920x1080","","4582.899999999907","35.85","img/238/5.5/0.66667/bw/001.png","","","natural"
"","","","","","animation","203","1551584","0.0-203.0","1920x1080","","4980.200000000186","68.25","img/117/4/0.66667/bw/001.png","","","natural"
"","","","","","animation","204","1559908","0.0-204.0","1920x1080","","8322.09999999986","61.90","img/314/3.5/1.5/bw/001.png","","","natural"
"","","","","","animation","205","1564651","0.0-205.0","1920x1080","","4742.600000000093","19.71","img/314/4/0.5/bw/001.png","","","natural"
"","","","","","animation","206","1574430","0.0-206.0","1920x1080","","9775.300000000047","34","img/117/5.5/0.5/bw/001.png","","","natural"
"","","","","","animation","207","1577494","0.0-207.0","1920x1080","","3062.7999999998137","80.29","img/117/3.5/0.66667/bw/001.png","","","natural"
"","","","","","animation","208","1582004","0.0-208.0","1920x1080","","4508.300000000047","78.31","img/314/4/2/bw/001.png","","","natural"
"","","","","","animation","209","1585622","0.0-209.0","1920x1080","","3617","83.20","img/117/4.5/0.5/bw/001.png","","","natural"
"","","","","","animation","210","1590462","0.0-210.0","1920x1080","","4839.399999999907","60.45","img/117/4.5/0.66667/bw/001.png","","","natural"
"","","","","","animation","211","1594353","0.0-211.0","1920x1080","","3889.8000000000466","78.97","img/314/3.5/0.66667/bw/001.png","","","natural"
"","","","","","animation","212","1597478","0.0-212.0","1920x1080","","3123.5","23","img/117/4/0.5/bw/001.png","","","natural"
"","","","","","animation","213","1602753","0.0-213.0","1920x1080","","5274.300000000047","50","img/314/2.5/0.5/bw/001.png","","","natural"
"","","","","","animation","214","1607587","0.0-214.0","1920x1080","","4832.299999999814","55.29","img/238/4.5/0.5/bw/001.png","","","natural"
"","","","","","animation","215","1611094","0.0-215.0","1920x1080","","3506.3000000000466","19.97","img/238/2.5/0.5/bw/001.png","","","natural"
"","","","","","animation","216","1618254","0.0-216.0","1920x1080","","7158.600000000093","47.75","img/314/5.5/0.66667/bw/001.png","","","natural"
"","","","","","animation","217","1622326","0.0-217.0","1920x1080","","4070.5","68.65","img/314/4.5/1.5/bw/001.png","","","natural"
"","","","","","animation","218","1627262","0.0-218.0","1920x1080","","4934.800000000047","40.08","img/314/3.5/0.5/bw/001.png","","","natural"
"","","","","","animation","219","1633403","0.0-219.0","1920x1080","","6140.199999999953","77.78","img/238/4.5/1.5/bw/001.png","","","natural"
"","","","","","animation","220","1641262","0.0-220.0","1920x1080","","7857.699999999953","65.21","img/314/3.5/2/bw/001.png","","","natural"
"","","","","","animation","221","1645510","0.0-221.0","1920x1080","","4246.40000000014","20.90","img/314/4.5/0.5/bw/001.png","","","natural"
"","","","","","animation","222","1649803","0.0-222.0","1920x1080","","4292.199999999953","47","img/117/3.5/0.5/bw/001.png","","","natural"
"","","","","","animation","223","1654069","0.0-223.0","1920x1080","","4265.699999999953","74","img/117/4.5/2/bw/001.png","","","natural"
"","","","","","animation","224","1661294","0.0-224.0","1920x1080","","7222.800000000047","32.80","img/117/4.5/1/bw/001.png","","","natural"
"","","","","","animation","225","1665126","0.0-225.0","1920x1080","","3830.8000000000466","80.69","img/238/2.5/1/bw/001.png","","","natural"
"","","","","","animation","226","1669238","0.0-226.0","1920x1080","","4110.799999999814","17","img/117/2.5/0.66667/bw/001.png","","","natural"
"","","","","","animation","227","1675221","0.0-227.0","1920x1080","","5982","57.01","img/238/4.5/2/bw/001.png","","","natural"
"","","","","","animation","228","1681389","0.0-228.0","1920x1080","","6166.699999999953","62.30","img/238/3.5/2/bw/001.png","","","natural"
"","","","","","animation","229","1685069","0.0-229.0","1920x1080","","3679.1999999999534","83.33","img/314/2.5/1/bw/001.png","","","natural"
"","","","","","animation","230","1689519","0.0-230.0","1920x1080","","4448.800000000047","67.06","img/238/4/2/bw/001.png","","","natural"
"","","","","","animation","231","1693801","0.0-231.0","1920x1080","","4282.399999999907","30.29","img/314/5.5/0.5/bw/001.png","","","natural"
"","","","","","animation","232","1701301","0.0-232.0","1920x1080","","7498.699999999953","59","img/314/2.5/2/bw/001.png","","","natural"
"","","","","","animation","233","1705733","0.0-233.0","1920x1080","","4431.699999999953","52.65","img/238/3.5/0.5/bw/001.png","","","natural"
"","","","","","animation","234","1707371","0.0-234.0","1920x1080","","1637","51.46","img/238/4/0.66667/bw/001.png","","","natural"
"","","","","","animation","235","1712151","0.0-235.0","1920x1080","","4778.199999999953","42.46","img/238/4.5/0.66667/bw/001.png","","","natural"
"","","","","","html-button-response","236","1766781","0.0-236.0","1920x1080","","54621.30000000005","","<div class=""intro"">You are about to view a new series of animations.<br><br></div><div class=""intro"">You will evaluate them based on a different descriptor.<br><br></div><div class=""intro"">Move the slider to indicate how <strong style=""text-transform:capitalize"">INTERESTING</strong> you find each animation.<br><br></div><div class=""intro"">0 = Least Interesting<br></div><div class=""intro"">1 = Most Interesting<br><br></div><div class=""intro"">Remember to use the <strong><em>entire range</em></strong> of the slider to make your ratings.<br></div><div class=""intro"">Please <strong><em>take your time</em></strong> and carefully consider each rating you make.<br><br></div>","0","",""
"","","","","","call-function","237","1766785","0.0-237.0","1920x1080","","","","","","",""
"","","","","","animation","238","1774291","0.0-238.0","1920x1080","","7504.300000000047","75","img/117/5.5/1.5/bw/001.png","","","interesting"
"","","","","","animation","239","1779875","0.0-239.0","1920x1080","","5582.399999999907","74.21","img/117/4/2/bw/001.png","","","interesting"
"","","","","","animation","240","1783810","0.0-240.0","1920x1080","","3934.0999999998603","17.99","img/314/3.5/0.66667/bw/001.png","","","interesting"
"","","","","","animation","241","1788131","0.0-241.0","1920x1080","","4319.100000000093","35.45","img/314/2.5/1.5/bw/001.png","","","interesting"
"","","","","","animation","242","1792541","0.0-242.0","1920x1080","","4408.5","21.03","img/314/5.5/0.5/bw/001.png","","","interesting"
"","","","","","animation","243","1801357","0.0-243.0","1920x1080","","8815.5","41","img/117/5.5/1/bw/001.png","","","interesting"
"","","","","","animation","244","1804991","0.0-244.0","1920x1080","","3632.5","50.66","img/314/5.5/1.5/bw/001.png","","","interesting"
"","","","","","animation","245","1808995","0.0-245.0","1920x1080","","4002.600000000093","14.02","img/117/3.5/0.5/bw/001.png","","","interesting"
"","","","","","animation","246","1813334","0.0-246.0","1920x1080","","4344","35.05","img/117/2.5/1/bw/001.png","","","interesting"
"","","","","","animation","247","1819184","0.0-247.0","1920x1080","","5849.399999999907","75.93","img/238/5.5/2/bw/001.png","","","interesting"
"","","","","","animation","248","1830536","0.0-248.0","1920x1080","","11350.5","56.22","img/117/4.5/1/bw/001.png","","","interesting"
"","","","","","animation","249","1836725","0.0-249.0","1920x1080","","6187.600000000093","36.77","img/117/5.5/0.5/bw/001.png","","","interesting"
"","","","","","animation","250","1841389","0.0-250.0","1920x1080","","4662.800000000047","58.86","img/117/5.5/0.66667/bw/001.png","","","interesting"
"","","","","","animation","251","1847568","0.0-251.0","1920x1080","","6177.90000000014","45","img/314/4.5/1/bw/001.png","","","interesting"
"","","","","","animation","252","1856668","0.0-252.0","1920x1080","","9098.399999999907","62.04","img/238/3.5/1.5/bw/001.png","","","interesting"
"","","","","","animation","253","1864584","0.0-253.0","1920x1080","","7915.5","51.98","img/238/2.5/2/bw/001.png","","","interesting"
"","","","","","animation","254","1869801","0.0-254.0","1920x1080","","5215.600000000093","54.89","img/117/2.5/1.5/bw/001.png","","","interesting"
"","","","","","animation","255","1876582","0.0-255.0","1920x1080","","6782","18.25","img/238/3.5/1/bw/001.png","","","interesting"
"","","","","","animation","256","1881066","0.0-256.0","1920x1080","","4482.399999999907","16.67","img/238/2.5/1/bw/001.png","","","interesting"
"","","","","","animation","257","1888732","0.0-257.0","1920x1080","","7664.899999999907","38.49","img/314/3.5/2/bw/001.png","","","interesting"
"","","","","","animation","258","1893198","0.0-258.0","1920x1080","","4464.699999999953","67.72","img/314/5.5/2/bw/001.png","","","interesting"
"","","","","","animation","259","1900323","0.0-259.0","1920x1080","","7123","36.11","img/238/4.5/0.5/bw/001.png","","","interesting"
"","","","","","animation","260","1918155","0.0-260.0","1920x1080","","17830.5","21.43","img/117/4/1/bw/001.png","","","interesting"
"","","","","","animation","261","1924386","0.0-261.0","1920x1080","","6230.699999999953","35.58","img/238/4/1/bw/001.png","","","interesting"
"","","","","","animation","262","1929091","0.0-262.0","1920x1080","","4702.799999999814","43.78","img/117/2.5/0.66667/bw/001.png","","","interesting"
"","","","","","animation","263","1935082","0.0-263.0","1920x1080","","5989.799999999814","31.08","img/238/4.5/1.5/bw/001.png","","","interesting"
"","","","","","animation","264","1944898","0.0-264.0","1920x1080","","9815.399999999907","61.64","img/238/5.5/1.5/bw/001.png","","","interesting"
"","","","","","animation","265","1957098","0.0-265.0","1920x1080","","12198","46.16","img/314/4/1.5/bw/001.png","","","interesting"
"","","","","","animation","266","1964115","0.0-266.0","1920x1080","","7015.59999999986","28.31","img/117/4.5/2/bw/001.png","","","interesting"
"","","","","","animation","267","1969506","0.0-267.0","1920x1080","","5390.199999999953","45.77","img/117/4/0.66667/bw/001.png","","","interesting"
"","","","","","animation","268","1972798","0.0-268.0","1920x1080","","3290.5","46.69","img/314/3.5/1.5/bw/001.png","","","interesting"
"","","","","","animation","269","1976722","0.0-269.0","1920x1080","","3922.6999999999534","42.72","img/238/4/2/bw/001.png","","","interesting"
"","","","","","animation","270","1981770","0.0-270.0","1920x1080","","5046.59999999986","25.66","img/238/2.5/0.5/bw/001.png","","","interesting"
"","","","","","animation","271","1985634","0.0-271.0","1920x1080","","3862.1999999999534","23.94","img/314/4.5/0.66667/bw/001.png","","","interesting"
"","","","","","animation","272","1990634","0.0-272.0","1920x1080","","4998.399999999907","28.31","img/238/3.5/0.66667/bw/001.png","","","interesting"
"","","","","","animation","273","1994905","0.0-273.0","1920x1080","","4270.800000000047","32.01","img/314/2.5/0.66667/bw/001.png","","","interesting"
"","","","","","animation","274","1998464","0.0-274.0","1920x1080","","3557.5","21.03","img/117/3.5/1/bw/001.png","","","interesting"
"","","","","","animation","275","2005880","0.0-275.0","1920x1080","","7415.5","70.50","img/117/5.5/2/bw/001.png","","","interesting"
"","","","","","animation","276","2010546","0.0-276.0","1920x1080","","4664.699999999953","57.80","img/238/2.5/1.5/bw/001.png","","","interesting"
"","","","","","animation","277","2019121","0.0-277.0","1920x1080","","8573.199999999953","63.23","img/238/4.5/2/bw/001.png","","","interesting"
"","","","","","animation","278","2024080","0.0-278.0","1920x1080","","4958.09999999986","28","img/117/3.5/1.5/bw/001.png","","","interesting"
"","","","","","animation","279","2028832","0.0-279.0","1920x1080","","4750","33.86","img/314/4/1/bw/001.png","","","interesting"
"","","","","","animation","280","2032497","0.0-280.0","1920x1080","","3659.9000000001397","37.04","img/314/2.5/1/bw/001.png","","","interesting"
"","","","","","animation","281","2036296","0.0-281.0","1920x1080","","3798.5999999998603","40.08","img/238/4/0.66667/bw/001.png","","","interesting"
"","","","","","animation","282","2041264","0.0-282.0","1920x1080","","4966.5","30.56","img/117/3.5/2/bw/001.png","","","interesting"
"","","","","","animation","283","2048785","0.0-283.0","1920x1080","","7519.09999999986","32.67","img/117/3.5/0.66667/bw/001.png","","","interesting"
"","","","","","animation","284","2056933","0.0-284.0","1920x1080","","8143.5","19.84","img/117/4/0.5/bw/001.png","","","interesting"
"","","","","","animation","285","2061419","0.0-285.0","1920x1080","","4484.90000000014","63","img/314/5.5/0.66667/bw/001.png","","","interesting"
"","","","","","animation","286","2074499","0.0-286.0","1920x1080","","13078.30000000028","71.83","img/238/5.5/1/bw/001.png","","","interesting"
"","","","","","animation","287","2082699","0.0-287.0","1920x1080","","8198.5","32.80","img/314/3.5/1/bw/001.png","","","interesting"
"","","","","","animation","288","2087016","0.0-288.0","1920x1080","","4315.299999999814","37.43","img/117/2.5/0.5/bw/001.png","","","interesting"
"","","","","","animation","289","2094832","0.0-289.0","1920x1080","","7815.5999999996275","26.85","img/238/4/1.5/bw/001.png","","","interesting"
"","","","","","animation","290","2099316","0.0-290.0","1920x1080","","4482","23.68","img/314/4/0.66667/bw/001.png","","","interesting"
"","","","","","animation","291","2105665","0.0-291.0","1920x1080","","6348.5","34.52","img/238/5.5/0.66667/bw/001.png","","","interesting"
"","","","","","animation","292","2111164","0.0-292.0","1920x1080","","5499","18.12","img/238/4/0.5/bw/001.png","","","interesting"
"","","","","","animation","293","2115969","0.0-293.0","1920x1080","","4804.200000000186","35","img/314/3.5/0.5/bw/001.png","","","interesting"
"","","","","","animation","294","2121801","0.0-294.0","1920x1080","","5830.600000000093","26.59","img/238/3.5/2/bw/001.png","","","interesting"
"","","","","","animation","295","2128447","0.0-295.0","1920x1080","","6644.399999999907","32.54","img/314/4/0.5/bw/001.png","","","interesting"
"","","","","","animation","296","2131785","0.0-296.0","1920x1080","","3337","37.30","img/238/2.5/0.66667/bw/001.png","","","interesting"
"","","","","","animation","297","2135847","0.0-297.0","1920x1080","","4060.6999999997206","29.89","img/314/2.5/2/bw/001.png","","","interesting"
"","","","","","animation","298","2144614","0.0-298.0","1920x1080","","8765.5","71.03","img/238/5.5/0.5/bw/001.png","","","interesting"
"","","","","","animation","299","2152830","0.0-299.0","1920x1080","","8215.399999999907","48.94","img/238/4.5/0.66667/bw/001.png","","","interesting"
"","","","","","animation","300","2156614","0.0-300.0","1920x1080","","3782.2000000001863","44.44","img/117/4/1.5/bw/001.png","","","interesting"
"","","","","","animation","301","2162914","0.0-301.0","1920x1080","","6298.5999999996275","38.62","img/314/2.5/0.5/bw/001.png","","","interesting"
"","","","","","animation","302","2167947","0.0-302.0","1920x1080","","5032.100000000093","38.76","img/238/4.5/1/bw/001.png","","","interesting"
"","","","","","animation","303","2177863","0.0-303.0","1920x1080","","9915.400000000373","37.70","img/314/4/2/bw/001.png","","","interesting"
"","","","","","animation","304","2184329","0.0-304.0","1920x1080","","6465.300000000279","42.86","img/238/3.5/0.5/bw/001.png","","","interesting"
"","","","","","animation","305","2192096","0.0-305.0","1920x1080","","7765.800000000279","42.20","img/314/4.5/1.5/bw/001.png","","","interesting"
"","","","","","animation","306","2197032","0.0-306.0","1920x1080","","4934.5","25.00","img/117/2.5/2/bw/001.png","","","interesting"
"","","","","","animation","307","2202879","0.0-307.0","1920x1080","","5845.399999999907","32.14","img/314/4.5/0.5/bw/001.png","","","interesting"
"","","","","","animation","308","2210016","0.0-308.0","1920x1080","","7135.5","69.31","img/314/5.5/1/bw/001.png","","","interesting"
"","","","","","animation","309","2219912","0.0-309.0","1920x1080","","9894.799999999814","60.58","img/314/4.5/2/bw/001.png","","","interesting"
"","","","","","animation","310","2227562","0.0-310.0","1920x1080","","7648.899999999907","34.66","img/117/4.5/0.66667/bw/001.png","","","interesting"
"","","","","","animation","311","2231804","0.0-311.0","1920x1080","","4236.200000000186","22","img/117/4.5/1.5/bw/001.png","","","interesting"
"","","","","","animation","312","2238867","0.0-312.0","1920x1080","","7061.199999999721","33.47","img/117/4.5/0.5/bw/001.png","","","interesting"
"","","","","","html-button-response","313","2284973","0.0-313.0","1920x1080","","46104.60000000009","","<div class=""intro"">You are about to view a new series of animations.<br><br></div><div class=""intro"">You will evaluate them based on a different descriptor.<br><br></div><div class=""intro"">Move the slider to indicate how <strong style=""text-transform:capitalize"">RELAXING</strong> you find each animation.<br><br></div><div class=""intro"">0 = Least Relaxing<br></div><div class=""intro"">1 = Most Relaxing<br><br></div><div class=""intro"">Remember to use the <strong><em>entire range</em></strong> of the slider to make your ratings.<br></div><div class=""intro"">Please <strong><em>take your time</em></strong> and carefully consider each rating you make.<br><br></div>","0","",""
"","","","","","call-function","314","2284978","0.0-314.0","1920x1080","","","","","","",""
"","","","","","animation","315","2290188","0.0-315.0","1920x1080","","5209.5","50.40","img/314/4/1.5/bw/001.png","","","relaxing"
"","","","","","animation","316","2295791","0.0-316.0","1920x1080","","5598.299999999814","90","img/238/5.5/1.5/bw/001.png","","","relaxing"
"","","","","","animation","317","2299807","0.0-317.0","1920x1080","","4014.5","23.68","img/314/3.5/2/bw/001.png","","","relaxing"
"","","","","","animation","318","2302702","0.0-318.0","1920x1080","","2894.2999999998137","9.92","img/117/3.5/0.5/bw/001.png","","","relaxing"
"","","","","","animation","319","2305362","0.0-319.0","1920x1080","","2657.5","9.52","img/117/3.5/0.66667/bw/001.png","","","relaxing"
"","","","","","animation","320","2309286","0.0-320.0","1920x1080","","3923","0","img/314/2.5/1/bw/001.png","","","relaxing"
"","","","","","animation","321","2312301","0.0-321.0","1920x1080","","3013.5","11","img/238/4.5/0.66667/bw/001.png","","","relaxing"
"","","","","","animation","322","2315774","0.0-322.0","1920x1080","","3471.399999999907","86.77","img/117/5.5/1.5/bw/001.png","","","relaxing"
"","","","","","animation","323","2323185","0.0-323.0","1920x1080","","7409.100000000093","36.51","img/238/4.5/2/bw/001.png","","","relaxing"
"","","","","","animation","324","2326975","0.0-324.0","1920x1080","","3786.1999999997206","31.35","img/238/3.5/2/bw/001.png","","","relaxing"
"","","","","","animation","325","2330311","0.0-325.0","1920x1080","","3335.1999999997206","0","img/117/2.5/0.66667/bw/001.png","","","relaxing"
"","","","","","animation","326","2336551","0.0-326.0","1920x1080","","6237.899999999907","-0.26","img/117/3.5/1/bw/001.png","","","relaxing"
"","","","","","animation","327","2340354","0.0-327.0","1920x1080","","3800.8000000002794","-0.79","img/314/4/0.5/bw/001.png","","","relaxing"
"","","","","","animation","328","2346452","0.0-328.0","1920x1080","","6095.9000000003725","33.20","img/117/5.5/0.5/bw/001.png","","","relaxing"
"","","","","","animation","329","2349639","0.0-329.0","1920x1080","","3185.7000000001863","78.70","img/117/5.5/2/bw/001.png","","","relaxing"
"","","","","","animation","330","2356184","0.0-330.0","1920x1080","","6534.399999999907","56.48","img/238/5.5/0.66667/bw/001.png","","","relaxing"
"","","","","","animation","331","2360216","0.0-331.0","1920x1080","","4030.1999999997206","8.86","img/117/4.5/0.5/bw/001.png","","","relaxing"
"","","","","","animation","332","2363616","0.0-332.0","1920x1080","","3398.600000000093","6.35","img/238/4.5/1.5/bw/001.png","","","relaxing"
"","","","","","animation","333","2366362","0.0-333.0","1920x1080","","2744.4000000003725","8.07","img/117/4.5/1/bw/001.png","","","relaxing"
"","","","","","animation","334","2369828","0.0-334.0","1920x1080","","3462.6999999997206","4.63","img/314/4.5/0.5/bw/001.png","","","relaxing"
"","","","","","animation","335","2372632","0.0-335.0","1920x1080","","2802.7000000001863","0","img/117/2.5/1.5/bw/001.png","","","relaxing"
"","","","","","animation","336","2379320","0.0-336.0","1920x1080","","6686.200000000186","9.92","img/314/2.5/1.5/bw/001.png","","","relaxing"
"","","","","","animation","337","2384379","0.0-337.0","1920x1080","","5057","0.53","img/314/3.5/0.5/bw/001.png","","","relaxing"
"","","","","","animation","338","2388711","0.0-338.0","1920x1080","","4328.399999999907","-1.46","img/238/4/0.5/bw/001.png","","","relaxing"
"","","","","","animation","339","2395818","0.0-339.0","1920x1080","","7105","90.87","img/314/5.5/1.5/bw/001.png","","","relaxing"
"","","","","","animation","340","2400527","0.0-340.0","1920x1080","","4708","7.94","img/117/4.5/0.66667/bw/001.png","","","relaxing"
"","","","","","animation","341","2408666","0.0-341.0","1920x1080","","8136.600000000093","44","img/314/4/2/bw/001.png","","","relaxing"
"","","","","","animation","342","2412889","0.0-342.0","1920x1080","","4228.200000000186","3.70","img/117/2.5/2/bw/001.png","","","relaxing"
"","","","","","animation","343","2416704","0.0-343.0","1920x1080","","3813.600000000093","8.33","img/238/3.5/1.5/bw/001.png","","","relaxing"
"","","","","","animation","344","2422505","0.0-344.0","1920x1080","","5799.700000000186","13.10","img/314/4/1/bw/001.png","","","relaxing"
"","","","","","animation","345","2427771","0.0-345.0","1920x1080","","5264","1","img/117/4/1.5/bw/001.png","","","relaxing"
"","","","","","animation","346","2438857","0.0-346.0","1920x1080","","11084.900000000373","54","img/314/5.5/1/bw/001.png","","","relaxing"
"","","","","","animation","347","2444920","0.0-347.0","1920x1080","","6061.299999999814","74.47","img/238/5.5/1/bw/001.png","","","relaxing"
"","","","","","animation","348","2448836","0.0-348.0","1920x1080","","3915.2999999998137","1","img/238/2.5/1.5/bw/001.png","","","relaxing"
"","","","","","animation","349","2453273","0.0-349.0","1920x1080","","4435.100000000093","0","img/117/2.5/1/bw/001.png","","","relaxing"
"","","","","","animation","350","2457720","0.0-350.0","1920x1080","","4445.200000000186","1","img/117/3.5/1.5/bw/001.png","","","relaxing"
"","","","","","animation","351","2460920","0.0-351.0","1920x1080","","3198.5","-7.28","img/117/2.5/0.5/bw/001.png","","","relaxing"
"","","","","","animation","352","2467787","0.0-352.0","1920x1080","","6865","38","img/314/4.5/2/bw/001.png","","","relaxing"
"","","","","","animation","353","2470470","0.0-353.0","1920x1080","","2681.9000000003725","-2.91","img/314/2.5/0.5/bw/001.png","","","relaxing"
"","","","","","animation","354","2475392","0.0-354.0","1920x1080","","4924.299999999814","-5.69","img/238/4/0.66667/bw/001.png","","","relaxing"
"","","","","","animation","355","2480501","0.0-355.0","1920x1080","","5103","47.35","img/117/4/2/bw/001.png","","","relaxing"
"","","","","","animation","356","2485917","0.0-356.0","1920x1080","","5414.5","6","img/238/2.5/2/bw/001.png","","","relaxing"
"","","","","","animation","357","2490301","0.0-357.0","1920x1080","","4382.100000000093","0","img/314/3.5/0.66667/bw/001.png","","","relaxing"
"","","","","","animation","358","2499300","0.0-358.0","1920x1080","","8997.30000000028","20.11","img/238/5.5/0.5/bw/001.png","","","relaxing"
"","","","","","animation","359","2502469","0.0-359.0","1920x1080","","3167.3000000002794","2","img/314/4/0.66667/bw/001.png","","","relaxing"
"","","","","","animation","360","2506691","0.0-360.0","1920x1080","","4220","2","img/238/3.5/1/bw/001.png","","","relaxing"
"","","","","","animation","361","2510517","0.0-361.0","1920x1080","","3824.5","92.72","img/314/5.5/2/bw/001.png","","","relaxing"
"","","","","","animation","362","2514453","0.0-362.0","1920x1080","","3934.600000000093","3.04","img/238/2.5/1/bw/001.png","","","relaxing"
"","","","","","animation","363","2518422","0.0-363.0","1920x1080","","3966.3000000002794","2.78","img/117/4/1/bw/001.png","","","relaxing"
"","","","","","animation","364","2522022","0.0-364.0","1920x1080","","3598.2999999998137","1.19","img/314/4.5/0.66667/bw/001.png","","","relaxing"
"","","","","","animation","365","2527405","0.0-365.0","1920x1080","","5382","1.19","img/238/3.5/0.66667/bw/001.png","","","relaxing"
"","","","","","animation","366","2532115","0.0-366.0","1920x1080","","4709.800000000279","8.33","img/117/3.5/2/bw/001.png","","","relaxing"
"","","","","","animation","367","2536331","0.0-367.0","1920x1080","","4213","2.38","img/314/3.5/1/bw/001.png","","","relaxing"
"","","","","","animation","368","2541198","0.0-368.0","1920x1080","","4865.5","20.77","img/314/4.5/1.5/bw/001.png","","","relaxing"
"","","","","","animation","369","2544015","0.0-369.0","1920x1080","","2813.9000000003725","1.19","img/314/2.5/0.66667/bw/001.png","","","relaxing"
"","","","","","animation","370","2548564","0.0-370.0","1920x1080","","4548.100000000093","5.42","img/314/4.5/1/bw/001.png","","","relaxing"
"","","","","","animation","371","2553603","0.0-371.0","1920x1080","","5037.299999999814","1.19","img/238/4/1/bw/001.png","","","relaxing"
"","","","","","animation","372","2558130","0.0-372.0","1920x1080","","4525.299999999814","-1.19","img/238/2.5/0.66667/bw/001.png","","","relaxing"
"","","","","","animation","373","2562517","0.0-373.0","1920x1080","","4384.9000000003725","20","img/314/3.5/1.5/bw/001.png","","","relaxing"
"","","","","","animation","374","2565822","0.0-374.0","1920x1080","","3303.600000000093","0","img/117/4/0.66667/bw/001.png","","","relaxing"
"","","","","","animation","375","2576235","0.0-375.0","1920x1080","","10411.900000000373","17","img/117/4.5/2/bw/001.png","","","relaxing"
"","","","","","animation","376","2584667","0.0-376.0","1920x1080","","8430","19","img/314/5.5/0.66667/bw/001.png","","","relaxing"
"","","","","","animation","377","2588748","0.0-377.0","1920x1080","","4079.1999999997206","0","img/117/4/0.5/bw/001.png","","","relaxing"
"","","","","","animation","378","2593512","0.0-378.0","1920x1080","","4749.399999999907","84","img/117/5.5/1/bw/001.png","","","relaxing"
"","","","","","animation","379","2598896","0.0-379.0","1920x1080","","5382.5","81.35","img/117/5.5/0.66667/bw/001.png","","","relaxing"
"","","","","","animation","380","2608296","0.0-380.0","1920x1080","","9398.5","5.82","img/238/4.5/0.5/bw/001.png","","","relaxing"
"","","","","","animation","381","2611777","0.0-381.0","1920x1080","","3479.5","8.20","img/117/4.5/1.5/bw/001.png","","","relaxing"
"","","","","","animation","382","2619495","0.0-382.0","1920x1080","","7716.299999999814","31.88","img/314/5.5/0.5/bw/001.png","","","relaxing"
"","","","","","animation","383","2624344","0.0-383.0","1920x1080","","4846.399999999907","92.06","img/238/5.5/2/bw/001.png","","","relaxing"
"","","","","","animation","384","2639927","0.0-384.0","1920x1080","","15582","28.84","img/238/4.5/1/bw/001.png","","","relaxing"
"","","","","","animation","385","2643251","0.0-385.0","1920x1080","","3322.600000000093","-0.26","img/238/2.5/0.5/bw/001.png","","","relaxing"
"","","","","","animation","386","2654181","0.0-386.0","1920x1080","","10939.399999999907","38","img/238/4/2/bw/001.png","","","relaxing"
"","","","","","animation","387","2657132","0.0-387.0","1920x1080","","2949.1999999997206","-1.72","img/238/3.5/0.5/bw/001.png","","","relaxing"
"","","","","","animation","388","2663208","0.0-388.0","1920x1080","","6075.199999999721","8","img/238/4/1.5/bw/001.png","","","relaxing"
"","","","","","animation","389","2666484","0.0-389.0","1920x1080","","3271.600000000093","0","img/314/2.5/2/bw/001.png","","","relaxing"
"","","","","","html-button-response","390","2669736","0.0-390.0","1920x1080","","3250.1999999997206","","<strong>Study Debriefing</strong><br><p class=""debrief""><strong>Background:</strong> The patterns you rated are called <em>fractals</em>. The term fractal describes a class of irregular curves or shapes for which any suitably chosen part is similar in shape to a given larger or smaller part when magnified or reduced to the same size. Fractal properties are found throughout the natural and manmade world. The series of animations you saw today displayed animated fractal patterns of a varying complexity.</p><p class=""debrief""><strong>Purpose of this study:</strong> We hope to better understand how the perception of static fractals differs from the perception of animated fractals, and how the speed of the animated patterns influences people&apos;s perception of them. Fractals allow us to study the perception of aesthetic properties (e.g. the perceived level of beauty in an image) without using recognizable content, which makes them an excellent tool for studying abstract aesthetic judgement.</p><p class=""debrief""><strong>Your part:</strong> Your participation has helped us to further understand how humans perceive these patterns across different levels of speed and complexity. This research with allow us to better understand how the visual system and brain process our ever-changing visual environments.<p class=""debrief""><strong>Feedback and Further information:</strong> If you have additional questions about this study, please feel free to ask the researcher, Nathan Gonzales-Hess at nhess @ uoregon.edu. If you have any questions concerning your rights as a research participant, please contact Research Compliance Services, 5237 University of Oregon, Eugene, OR 97403, 541-346-2510, or email researchCompliance @ uoregon.edu. You can also email the Human Subjects Coordinator for psychology and linguistics research at hscoord @ uoregon.edu. ","0","",""
"","","","","","html-button-response","391","2674846","0.0-391.0","1920x1080","","5107.0999999996275","","Thank you for participating in this study. <br>Please click below to finish the experiment and submit your responses.<br><br>","0","",""
"true","","","","","fullscreen","392","2675850","0.0-392.0","1920x1080","10:46 26/10/2022","","","","","",""
