"success","timeout","failed_images","failed_audio","failed_video","trial_type","trial_index","time_elapsed","internal_node_id","resolution","timeStamp","rt","response","stimulus","button_pressed","value","descriptor"
"true","false","[]","[]","[]","preload","0","14117","0.0-0.0","1920x1080","","","","","","",""
"true","false","[]","[]","[]","preload","1","29680","0.0-1.0","1920x1080","","","","","","",""
"true","false","[]","[]","[]","preload","2","46245","0.0-2.0","1920x1080","","","","","","",""
"true","","","","","fullscreen","3","427023","0.0-3.0","1920x1080","12:55 19/5/2022","","","","","",""
"","","","","","survey-html-form","4","440468","0.0-4.0","1920x1080","","13441.40000000596","{""age"":""19"",""gender"":""female""}","","","",""
"","","","","","html-button-response","5","476036","0.0-5.0","1920x1080","","35567.09999999404","","<div class=""complex"">You are going to see a series of animations.<br><br></div><div class=""complex"">Move the slider to indicate how <strong style=""text-transform:capitalize"">COMPLEX</strong> you find each animation.<br><br></div><div class=""complex"">0 = Least Complex<br></div><div class=""complex"">1 = Most Complex<br><br></div><div class=""complex"">Remember to use the <strong><em>entire range</em></strong> of the slider to make your ratings.<br></div><div class=""complex"">Please <strong><em>take your time</em></strong> and carefully consider each rating you make.<br><br></div><div class=""complex"">The study has five sections and will take about 45 minutes to complete.<br><br></div>","0","",""
"","","","","","call-function","6","476036","0.0-6.0","1920x1080","","","","","","",""
"","","","","","animation","7","491876","0.0-7.0","1920x1080","","15852.699999988079","35.98","img/238/4/0.5/bw/001.png","","","complex"
"","","","","","animation","8","499771","0.0-8.0","1920x1080","","7894.200000017881","14.29","img/238/5.5/1/bw/001.png","","","complex"
"","","","","","animation","9","504884","0.0-9.0","1920x1080","","5111.200000017881","59.92","img/314/2.5/2/bw/001.png","","","complex"
"","","","","","animation","10","515684","0.0-10.0","1920x1080","","10799","43.39","img/117/4.5/2/bw/001.png","","","complex"
"","","","","","animation","11","525659","0.0-11.0","1920x1080","","9975","69.58","img/314/2.5/0.5/bw/001.png","","","complex"
"","","","","","animation","12","531316","0.0-12.0","1920x1080","","5655.300000011921","60.05","img/238/3.5/0.5/bw/001.png","","","complex"
"","","","","","animation","13","552485","0.0-13.0","1920x1080","","21183.59999999404","39.81","img/238/4/0.66667/bw/001.png","","","complex"
"","","","","","animation","14","558924","0.0-14.0","1920x1080","","6437.800000011921","78.31","img/238/2.5/0.66667/bw/001.png","","","complex"
"","","","","","animation","15","565988","0.0-15.0","1920x1080","","7062.799999982119","69.31","img/238/3.5/1.5/bw/001.png","","","complex"
"","","","","","animation","16","572412","0.0-16.0","1920x1080","","6423.299999982119","75.00","img/117/2.5/2/bw/001.png","","","complex"
"","","","","","animation","17","578333","0.0-17.0","1920x1080","","5919.5","71.56","img/314/3.5/0.5/bw/001.png","","","complex"
"","","","","","animation","18","587156","0.0-18.0","1920x1080","","8822.59999999404","54.89","img/117/4/1/bw/001.png","","","complex"
"","","","","","animation","19","594604","0.0-19.0","1920x1080","","7447.100000023842","57.94","img/117/3.5/1/bw/001.png","","","complex"
"","","","","","animation","20","601068","0.0-20.0","1920x1080","","6463.299999982119","11.77","img/117/5.5/2/bw/001.png","","","complex"
"","","","","","animation","21","611264","0.0-21.0","1920x1080","","10207.199999988079","33.60","img/314/3.5/2/bw/001.png","","","complex"
"","","","","","animation","22","631207","0.0-22.0","1920x1080","","19942.29999998212","24.07","img/314/4.5/1/bw/001.png","","","complex"
"","","","","","animation","23","639272","0.0-23.0","1920x1080","","8064.300000011921","10","img/238/5.5/0.66667/bw/001.png","","","complex"
"","","","","","animation","24","644032","0.0-24.0","1920x1080","","4758.4000000059605","10.58","img/238/5.5/0.5/bw/001.png","","","complex"
"","","","","","animation","25","650232","0.0-25.0","1920x1080","","6199.200000017881","20.37","img/238/4.5/0.66667/bw/001.png","","","complex"
"","","","","","animation","26","657360","0.0-26.0","1920x1080","","7126.4000000059605","58.60","img/314/3.5/0.66667/bw/001.png","","","complex"
"","","","","","animation","27","661648","0.0-27.0","1920x1080","","4286.799999982119","63","img/314/3.5/1/bw/001.png","","","complex"
"","","","","","animation","28","668064","0.0-28.0","1920x1080","","6414.9000000059605","25.66","img/117/5.5/1/bw/001.png","","","complex"
"","","","","","animation","29","673416","0.0-29.0","1920x1080","","5351.300000011921","63.89","img/117/3.5/0.66667/bw/001.png","","","complex"
"","","","","","animation","30","683048","0.0-30.0","1920x1080","","9631.09999999404","80","img/314/4/0.5/bw/001.png","","","complex"
"","","","","","animation","31","686336","0.0-31.0","1920x1080","","3287.5","83.20","img/117/4/0.5/bw/001.png","","","complex"
"","","","","","animation","32","696080","0.0-32.0","1920x1080","","9742.700000017881","80.29","img/238/4/2/bw/001.png","","","complex"
"","","","","","animation","33","706344","0.0-33.0","1920x1080","","10263.40000000596","82.80","img/117/4.5/0.66667/bw/001.png","","","complex"
"","","","","","animation","34","713600","0.0-34.0","1920x1080","","7254.800000011921","76.32","img/314/4/1.5/bw/001.png","","","complex"
"","","","","","animation","35","718832","0.0-35.0","1920x1080","","5231.300000011921","96","img/314/2.5/1.5/bw/001.png","","","complex"
"","","","","","animation","36","724336","0.0-36.0","1920x1080","","5503.199999988079","86","img/238/3.5/0.66667/bw/001.png","","","complex"
"","","","","","animation","37","728279","0.0-37.0","1920x1080","","3942.9000000059605","91.67","img/117/2.5/1.5/bw/001.png","","","complex"
"","","","","","animation","38","735800","0.0-38.0","1920x1080","","7519.5","50.13","img/238/4.5/1.5/bw/001.png","","","complex"
"","","","","","animation","39","740560","0.0-39.0","1920x1080","","4759","57.67","img/117/4.5/1/bw/001.png","","","complex"
"","","","","","animation","40","748984","0.0-40.0","1920x1080","","8423.40000000596","94.97","img/314/2.5/1/bw/001.png","","","complex"
"","","","","","animation","41","755512","0.0-41.0","1920x1080","","6526.700000017881","8.33","img/117/5.5/1.5/bw/001.png","","","complex"
"","","","","","animation","42","764384","0.0-42.0","1920x1080","","8871.299999982119","45.77","img/117/4/2/bw/001.png","","","complex"
"","","","","","animation","43","768032","0.0-43.0","1920x1080","","3646.4000000059605","97","img/238/2.5/1.5/bw/001.png","","","complex"
"","","","","","animation","44","788168","0.0-44.0","1920x1080","","20135.5","79.50","img/117/4/1.5/bw/001.png","","","complex"
"","","","","","animation","45","793984","0.0-45.0","1920x1080","","5815","87.30","img/314/4/0.66667/bw/001.png","","","complex"
"","","","","","animation","46","799800","0.0-46.0","1920x1080","","5815.199999988079","7.28","img/238/5.5/2/bw/001.png","","","complex"
"","","","","","animation","47","809088","0.0-47.0","1920x1080","","9287.59999999404","74.60","img/238/3.5/2/bw/001.png","","","complex"
"","","","","","animation","48","815584","0.0-48.0","1920x1080","","6494.799999982119","65.34","img/117/4.5/0.5/bw/001.png","","","complex"
"","","","","","animation","49","822775","0.0-49.0","1920x1080","","7190.699999988079","64.68","img/314/4/1/bw/001.png","","","complex"
"","","","","","animation","50","826800","0.0-50.0","1920x1080","","4023.4000000059605","90.87","img/314/2.5/0.66667/bw/001.png","","","complex"
"","","","","","animation","51","839600","0.0-51.0","1920x1080","","12798.799999982119","56.08","img/117/4.5/1.5/bw/001.png","","","complex"
"","","","","","animation","52","844367","0.0-52.0","1920x1080","","4766.5999999940395","3.04","img/314/5.5/2/bw/001.png","","","complex"
"","","","","","animation","53","849122","0.0-53.0","1920x1080","","4754","73.41","img/117/4/0.66667/bw/001.png","","","complex"
"","","","","","animation","54","855343","0.0-54.0","1920x1080","","6220.5","32.41","img/314/4.5/2/bw/001.png","","","complex"
"","","","","","animation","55","858951","0.0-55.0","1920x1080","","3607.0999999940395","97","img/117/2.5/1/bw/001.png","","","complex"
"","","","","","animation","56","864505","0.0-56.0","1920x1080","","5552.5","22.75","img/238/5.5/1.5/bw/001.png","","","complex"
"","","","","","animation","57","871663","0.0-57.0","1920x1080","","7158","26.46","img/314/5.5/1.5/bw/001.png","","","complex"
"","","","","","animation","58","878522","0.0-58.0","1920x1080","","6857.200000017881","73.02","img/117/3.5/2/bw/001.png","","","complex"
"","","","","","animation","59","885063","0.0-59.0","1920x1080","","6540.799999982119","71.43","img/238/4/1.5/bw/001.png","","","complex"
"","","","","","animation","60","891263","0.0-60.0","1920x1080","","6198.9000000059605","64.95","img/238/4.5/1/bw/001.png","","","complex"
"","","","","","animation","61","897143","0.0-61.0","1920x1080","","5878.899999976158","82.80","img/314/4.5/0.66667/bw/001.png","","","complex"
"","","","","","animation","62","901215","0.0-62.0","1920x1080","","4071.5","97","img/238/2.5/1/bw/001.png","","","complex"
"","","","","","animation","63","906302","0.0-63.0","1920x1080","","5085.199999988079","31.88","img/117/5.5/0.66667/bw/001.png","","","complex"
"","","","","","animation","64","912784","0.0-64.0","1920x1080","","6478.4000000059605","81.35","img/314/4.5/0.5/bw/001.png","","","complex"
"","","","","","animation","65","919639","0.0-65.0","1920x1080","","6854.800000011921","43.52","img/314/5.5/0.5/bw/001.png","","","complex"
"","","","","","animation","66","928288","0.0-66.0","1920x1080","","8647.199999988079","82.14","img/238/4/1/bw/001.png","","","complex"
"","","","","","animation","67","935289","0.0-67.0","1920x1080","","7000.0999999940395","98","img/117/2.5/0.5/bw/001.png","","","complex"
"","","","","","animation","68","941352","0.0-68.0","1920x1080","","6061.9000000059605","80.82","img/117/3.5/1.5/bw/001.png","","","complex"
"","","","","","animation","69","945800","0.0-69.0","1920x1080","","4446.9000000059605","32.14","img/117/5.5/0.5/bw/001.png","","","complex"
"","","","","","animation","70","954144","0.0-70.0","1920x1080","","8343","65.48","img/314/3.5/1.5/bw/001.png","","","complex"
"","","","","","animation","71","958759","0.0-71.0","1920x1080","","4614.699999988079","40.87","img/314/5.5/0.66667/bw/001.png","","","complex"
"","","","","","animation","72","963112","0.0-72.0","1920x1080","","4351.699999988079","95","img/238/2.5/2/bw/001.png","","","complex"
"","","","","","animation","73","972615","0.0-73.0","1920x1080","","9502.59999999404","50.00","img/238/4.5/2/bw/001.png","","","complex"
"","","","","","animation","74","979439","0.0-74.0","1920x1080","","6822.899999976158","55.69","img/314/4.5/1.5/bw/001.png","","","complex"
"","","","","","animation","75","982955","0.0-75.0","1920x1080","","3515","94.18","img/238/2.5/0.5/bw/001.png","","","complex"
"","","","","","animation","76","996863","0.0-76.0","1920x1080","","13907.5","63.10","img/314/4/2/bw/001.png","","","complex"
"","","","","","animation","77","1002607","0.0-77.0","1920x1080","","5742.5999999940395","22.35","img/314/5.5/1/bw/001.png","","","complex"
"","","","","","animation","78","1011122","0.0-78.0","1920x1080","","8513.699999988079","75.93","img/238/4.5/0.5/bw/001.png","","","complex"
"","","","","","animation","79","1024039","0.0-79.0","1920x1080","","12915.5","80.82","img/238/3.5/1/bw/001.png","","","complex"
"","","","","","animation","80","1028191","0.0-80.0","1920x1080","","4151.299999982119","95","img/117/2.5/0.66667/bw/001.png","","","complex"
"","","","","","animation","81","1032905","0.0-81.0","1920x1080","","4712.800000011921","88.89","img/117/3.5/0.5/bw/001.png","","","complex"
"","","","","","html-button-response","82","1052648","0.0-82.0","1920x1080","","19741.69999998808","","<div class=""intro"">You are about to view a new series of animations.<br><br></div><div class=""intro"">You will evaluate them based on a different descriptor.<br><br></div><div class=""intro"">Move the slider to indicate how <strong style=""text-transform:capitalize"">RELAXING</strong> you find each animation.<br><br></div><div class=""intro"">0 = Least Relaxing<br></div><div class=""intro"">1 = Most Relaxing<br><br></div><div class=""intro"">Remember to use the <strong><em>entire range</em></strong> of the slider to make your ratings.<br></div><div class=""intro"">Please <strong><em>take your time</em></strong> and carefully consider each rating you make.<br><br></div>","0","",""
"","","","","","call-function","83","1052649","0.0-83.0","1920x1080","","","","","","",""
"","","","","","animation","84","1060954","0.0-84.0","1920x1080","","8305","44.71","img/238/4.5/1/bw/001.png","","","relaxing"
"","","","","","animation","85","1064255","0.0-85.0","1920x1080","","3299.699999988079","1.19","img/117/2.5/1.5/bw/001.png","","","relaxing"
"","","","","","animation","86","1068599","0.0-86.0","1920x1080","","4343.4000000059605","20.24","img/314/3.5/1.5/bw/001.png","","","relaxing"
"","","","","","animation","87","1076559","0.0-87.0","1920x1080","","7959.0999999940395","79.23","img/314/4.5/2/bw/001.png","","","relaxing"
"","","","","","animation","88","1080399","0.0-88.0","1920x1080","","3839","97","img/117/5.5/1/bw/001.png","","","relaxing"
"","","","","","animation","89","1084631","0.0-89.0","1920x1080","","4231","96","img/314/5.5/1/bw/001.png","","","relaxing"
"","","","","","animation","90","1091183","0.0-90.0","1920x1080","","6550.800000011921","60","img/314/5.5/0.5/bw/001.png","","","relaxing"
"","","","","","animation","91","1095399","0.0-91.0","1920x1080","","4214.9000000059605","85.32","img/314/4/2/bw/001.png","","","relaxing"
"","","","","","animation","92","1101521","0.0-92.0","1920x1080","","6120.800000011921","46","img/238/5.5/0.5/bw/001.png","","","relaxing"
"","","","","","animation","93","1105006","0.0-93.0","1920x1080","","3484.7999999821186","4.10","img/314/2.5/0.5/bw/001.png","","","relaxing"
"","","","","","animation","94","1109095","0.0-94.0","1920x1080","","4087.199999988079","78.97","img/314/4.5/1.5/bw/001.png","","","relaxing"
"","","","","","animation","95","1120054","0.0-95.0","1920x1080","","10958.59999999404","2.38","img/238/2.5/1.5/bw/001.png","","","relaxing"
"","","","","","animation","96","1128727","0.0-96.0","1920x1080","","8671.300000011921","90.61","img/117/5.5/2/bw/001.png","","","relaxing"
"","","","","","animation","97","1134454","0.0-97.0","1920x1080","","5726.4000000059605","18.92","img/238/3.5/0.5/bw/001.png","","","relaxing"
"","","","","","animation","98","1137879","0.0-98.0","1920x1080","","3423.5","2.38","img/314/2.5/0.66667/bw/001.png","","","relaxing"
"","","","","","animation","99","1144479","0.0-99.0","1920x1080","","6598.5","34","img/117/4/1.5/bw/001.png","","","relaxing"
"","","","","","animation","100","1148045","0.0-100.0","1920x1080","","3567","3.70","img/117/2.5/2/bw/001.png","","","relaxing"
"","","","","","animation","101","1152445","0.0-101.0","1920x1080","","4398.9000000059605","96","img/238/5.5/1.5/bw/001.png","","","relaxing"
"","","","","","animation","102","1155461","0.0-102.0","1920x1080","","3014.899999976158","12.83","img/314/4/0.66667/bw/001.png","","","relaxing"
"","","","","","animation","103","1158781","0.0-103.0","1920x1080","","3318.899999976158","32.01","img/238/4/1/bw/001.png","","","relaxing"
"","","","","","animation","104","1162589","0.0-104.0","1920x1080","","3807","5.29","img/314/2.5/2/bw/001.png","","","relaxing"
"","","","","","animation","105","1176909","0.0-105.0","1920x1080","","14319.5","25.13","img/117/4.5/0.66667/bw/001.png","","","relaxing"
"","","","","","animation","106","1181005","0.0-106.0","1920x1080","","4094.199999988079","55.42","img/117/4/2/bw/001.png","","","relaxing"
"","","","","","animation","107","1189293","0.0-107.0","1920x1080","","8287.300000011921","23.15","img/117/4/0.66667/bw/001.png","","","relaxing"
"","","","","","animation","108","1196213","0.0-108.0","1920x1080","","6919.0999999940395","40.21","img/117/3.5/2/bw/001.png","","","relaxing"
"","","","","","animation","109","1199151","0.0-109.0","1920x1080","","2937.199999988079","16.53","img/314/4/0.5/bw/001.png","","","relaxing"
"","","","","","animation","110","1201909","0.0-110.0","1920x1080","","2756.7000000178814","29.23","img/314/4.5/1/bw/001.png","","","relaxing"
"","","","","","animation","111","1205317","0.0-111.0","1920x1080","","3408.0999999940395","1.32","img/238/2.5/0.5/bw/001.png","","","relaxing"
"","","","","","animation","112","1208924","0.0-112.0","1920x1080","","3606.2999999821186","18.92","img/238/3.5/1/bw/001.png","","","relaxing"
"","","","","","animation","113","1214276","0.0-113.0","1920x1080","","5351.0999999940395","11.77","img/117/3.5/0.5/bw/001.png","","","relaxing"
"","","","","","animation","114","1218152","0.0-114.0","1920x1080","","3874.5","25.13","img/117/4/1/bw/001.png","","","relaxing"
"","","","","","animation","115","1225156","0.0-115.0","1920x1080","","7003.4000000059605","28.17","img/314/4.5/0.66667/bw/001.png","","","relaxing"
"","","","","","animation","116","1229801","0.0-116.0","1920x1080","","4644.5999999940395","45.63","img/117/5.5/0.66667/bw/001.png","","","relaxing"
"","","","","","animation","117","1232950","0.0-117.0","1920x1080","","3147.9000000059605","27.38","img/117/3.5/1/bw/001.png","","","relaxing"
"","","","","","animation","118","1235860","0.0-118.0","1920x1080","","2909","25.66","img/117/4.5/1/bw/001.png","","","relaxing"
"","","","","","animation","119","1239028","0.0-119.0","1920x1080","","3167.300000011921","1.59","img/314/2.5/1.5/bw/001.png","","","relaxing"
"","","","","","animation","120","1242852","0.0-120.0","1920x1080","","3822.5","98","img/238/5.5/2/bw/001.png","","","relaxing"
"","","","","","animation","121","1248908","0.0-121.0","1920x1080","","6055.200000017881","2.38","img/117/2.5/0.5/bw/001.png","","","relaxing"
"","","","","","animation","122","1253068","0.0-122.0","1920x1080","","4158.4000000059605","12.17","img/117/4/0.5/bw/001.png","","","relaxing"
"","","","","","animation","123","1259468","0.0-123.0","1920x1080","","6399","11.24","img/238/3.5/2/bw/001.png","","","relaxing"
"","","","","","animation","124","1262436","0.0-124.0","1920x1080","","2967.199999988079","4.63","img/238/4/0.66667/bw/001.png","","","relaxing"
"","","","","","animation","125","1265644","0.0-125.0","1920x1080","","3207.4000000059605","7.94","img/314/3.5/1/bw/001.png","","","relaxing"
"","","","","","animation","126","1268612","0.0-126.0","1920x1080","","2967.199999988079","0.79","img/238/2.5/1/bw/001.png","","","relaxing"
"","","","","","animation","127","1273167","0.0-127.0","1920x1080","","4553.700000017881","60.98","img/238/4.5/2/bw/001.png","","","relaxing"
"","","","","","animation","128","1276212","0.0-128.0","1920x1080","","3044.4000000059605","3.04","img/117/2.5/0.66667/bw/001.png","","","relaxing"
"","","","","","animation","129","1279451","0.0-129.0","1920x1080","","3238.5","98","img/117/5.5/1.5/bw/001.png","","","relaxing"
"","","","","","animation","130","1283635","0.0-130.0","1920x1080","","4183","11.77","img/117/3.5/0.66667/bw/001.png","","","relaxing"
"","","","","","animation","131","1287460","0.0-131.0","1920x1080","","3823.5","11.90","img/314/4.5/0.5/bw/001.png","","","relaxing"
"","","","","","animation","132","1293651","0.0-132.0","1920x1080","","6190.5","84.92","img/314/5.5/1.5/bw/001.png","","","relaxing"
"","","","","","animation","133","1297676","0.0-133.0","1920x1080","","4023.5","77.51","img/238/5.5/0.66667/bw/001.png","","","relaxing"
"","","","","","animation","134","1301566","0.0-134.0","1920x1080","","3890","22.22","img/238/3.5/0.66667/bw/001.png","","","relaxing"
"","","","","","animation","135","1308492","0.0-135.0","1920x1080","","6924.200000017881","33.60","img/238/4/1.5/bw/001.png","","","relaxing"
"","","","","","animation","136","1313819","0.0-136.0","1920x1080","","5326.5","90.48","img/314/5.5/2/bw/001.png","","","relaxing"
"","","","","","animation","137","1318400","0.0-137.0","1920x1080","","4579.799999982119","71.56","img/314/5.5/0.66667/bw/001.png","","","relaxing"
"","","","","","animation","138","1323950","0.0-138.0","1920x1080","","5549.0999999940395","15.61","img/314/3.5/2/bw/001.png","","","relaxing"
"","","","","","animation","139","1330299","0.0-139.0","1920x1080","","6348.5","4","img/314/3.5/0.5/bw/001.png","","","relaxing"
"","","","","","animation","140","1334603","0.0-140.0","1920x1080","","4302.4000000059605","1.59","img/238/2.5/2/bw/001.png","","","relaxing"
"","","","","","animation","141","1337051","0.0-141.0","1920x1080","","2446.5999999940395","3.04","img/314/3.5/0.66667/bw/001.png","","","relaxing"
"","","","","","animation","142","1341043","0.0-142.0","1920x1080","","3991.5","3.31","img/238/4/0.5/bw/001.png","","","relaxing"
"","","","","","animation","143","1344435","0.0-143.0","1920x1080","","3390.5","2.78","img/117/2.5/1/bw/001.png","","","relaxing"
"","","","","","animation","144","1348583","0.0-144.0","1920x1080","","4147","71.96","img/238/5.5/1/bw/001.png","","","relaxing"
"","","","","","animation","145","1351835","0.0-145.0","1920x1080","","3250.800000011921","42.72","img/117/4.5/0.5/bw/001.png","","","relaxing"
"","","","","","animation","146","1385170","0.0-146.0","1920x1080","","33334.80000001192","23.41","img/117/4.5/1.5/bw/001.png","","","relaxing"
"","","","","","animation","147","1388386","0.0-147.0","1920x1080","","3214.9000000059605","14.95","img/314/4/1/bw/001.png","","","relaxing"
"","","","","","animation","148","1392058","0.0-148.0","1920x1080","","3670.7000000178814","43.78","img/117/5.5/0.5/bw/001.png","","","relaxing"
"","","","","","animation","149","1399418","0.0-149.0","1920x1080","","7358.799999982119","34","img/314/4/1.5/bw/001.png","","","relaxing"
"","","","","","animation","150","1402599","0.0-150.0","1920x1080","","3179.7999999821186","30","img/238/3.5/1.5/bw/001.png","","","relaxing"
"","","","","","animation","151","1405266","0.0-151.0","1920x1080","","2666.199999988079","30.69","img/117/3.5/1.5/bw/001.png","","","relaxing"
"","","","","","animation","152","1409490","0.0-152.0","1920x1080","","4223.5","55.95","img/117/4.5/2/bw/001.png","","","relaxing"
"","","","","","animation","153","1412298","0.0-153.0","1920x1080","","2806.5999999940395","37.70","img/238/4.5/0.66667/bw/001.png","","","relaxing"
"","","","","","animation","154","1422890","0.0-154.0","1920x1080","","10591.40000000596","31.61","img/238/4/2/bw/001.png","","","relaxing"
"","","","","","animation","155","1427634","0.0-155.0","1920x1080","","4742.699999988079","2.51","img/238/2.5/0.66667/bw/001.png","","","relaxing"
"","","","","","animation","156","1430666","0.0-156.0","1920x1080","","3031","12.30","img/238/4.5/0.5/bw/001.png","","","relaxing"
"","","","","","animation","157","1434999","0.0-157.0","1920x1080","","4332.300000011921","2.51","img/314/2.5/1/bw/001.png","","","relaxing"
"","","","","","animation","158","1440418","0.0-158.0","1920x1080","","5417.699999988079","51.46","img/238/4.5/1.5/bw/001.png","","","relaxing"
"","","","","","html-button-response","159","1472459","0.0-159.0","1920x1080","","32039.40000000596","","<div class=""intro"">You are about to view a new series of animations.<br><br></div><div class=""intro"">You will evaluate them based on a different descriptor.<br><br></div><div class=""intro"">Move the slider to indicate how <strong style=""text-transform:capitalize"">NATURAL</strong> you find each animation.<br><br></div><div class=""intro"">0 = Least Natural<br></div><div class=""intro"">1 = Most Natural<br><br></div><div class=""intro"">Remember to use the <strong><em>entire range</em></strong> of the slider to make your ratings.<br></div><div class=""intro"">Please <strong><em>take your time</em></strong> and carefully consider each rating you make.<br><br></div>","0","",""
"","","","","","call-function","160","1472463","0.0-160.0","1920x1080","","","","","","",""
"","","","","","animation","161","1480042","0.0-161.0","1920x1080","","7578.899999976158","10.98","img/238/4/0.5/bw/001.png","","","natural"
"","","","","","animation","162","1485618","0.0-162.0","1920x1080","","5574.800000011921","94","img/117/5.5/2/bw/001.png","","","natural"
"","","","","","animation","163","1493450","0.0-163.0","1920x1080","","7830.300000011921","2.25","img/314/2.5/2/bw/001.png","","","natural"
"","","","","","animation","164","1499820","0.0-164.0","1920x1080","","6368.800000011921","5.56","img/117/2.5/0.66667/bw/001.png","","","natural"
"","","","","","animation","165","1503275","0.0-165.0","1920x1080","","3451.5999999940395","4.76","img/238/2.5/2/bw/001.png","","","natural"
"","","","","","animation","166","1507554","0.0-166.0","1920x1080","","4279","39.02","img/117/4.5/0.66667/bw/001.png","","","natural"
"","","","","","animation","167","1517276","0.0-167.0","1920x1080","","9720.90000000596","32.01","img/314/3.5/1.5/bw/001.png","","","natural"
"","","","","","animation","168","1522582","0.0-168.0","1920x1080","","5303.699999988079","50.53","img/238/5.5/0.66667/bw/001.png","","","natural"
"","","","","","animation","169","1526986","0.0-169.0","1920x1080","","4403.699999988079","7.67","img/117/2.5/1/bw/001.png","","","natural"
"","","","","","animation","170","1532970","0.0-170.0","1920x1080","","5983.200000017881","44.44","img/314/4.5/1/bw/001.png","","","natural"
"","","","","","animation","171","1538965","0.0-171.0","1920x1080","","5993.299999982119","66.53","img/117/4.5/2/bw/001.png","","","natural"
"","","","","","animation","172","1541614","0.0-172.0","1920x1080","","2648.699999988079","30.42","img/117/4/1/bw/001.png","","","natural"
"","","","","","animation","173","1545018","0.0-173.0","1920x1080","","3403.0999999940395","5.16","img/314/3.5/0.5/bw/001.png","","","natural"
"","","","","","animation","174","1548948","0.0-174.0","1920x1080","","3928.699999988079","67.46","img/314/4.5/1.5/bw/001.png","","","natural"
"","","","","","animation","175","1554138","0.0-175.0","1920x1080","","5189.4000000059605","50.40","img/238/3.5/1.5/bw/001.png","","","natural"
"","","","","","animation","176","1557938","0.0-176.0","1920x1080","","3798.699999988079","19.31","img/117/3.5/0.66667/bw/001.png","","","natural"
"","","","","","animation","177","1562048","0.0-177.0","1920x1080","","4108.5","21.16","img/314/4.5/0.5/bw/001.png","","","natural"
"","","","","","animation","178","1566771","0.0-178.0","1920x1080","","4721.9000000059605","92.33","img/314/5.5/2/bw/001.png","","","natural"
"","","","","","animation","179","1570532","0.0-179.0","1920x1080","","3757.2000000178814","74.07","img/117/4/2/bw/001.png","","","natural"
"","","","","","animation","180","1577003","0.0-180.0","1920x1080","","6470.5","41.93","img/314/5.5/0.66667/bw/001.png","","","natural"
"","","","","","animation","181","1582632","0.0-181.0","1920x1080","","5628.199999988079","61.11","img/117/3.5/1.5/bw/001.png","","","natural"
"","","","","","animation","182","1585949","0.0-182.0","1920x1080","","3315.899999976158","3.70","img/238/2.5/0.5/bw/001.png","","","natural"
"","","","","","animation","183","1589651","0.0-183.0","1920x1080","","3700.300000011921","12.83","img/314/4/0.5/bw/001.png","","","natural"
"","","","","","animation","184","1594165","0.0-184.0","1920x1080","","4513.299999982119","33.47","img/314/5.5/0.5/bw/001.png","","","natural"
"","","","","","animation","185","1601998","0.0-185.0","1920x1080","","7832.200000017881","24.60","img/117/4.5/0.5/bw/001.png","","","natural"
"","","","","","animation","186","1605515","0.0-186.0","1920x1080","","3515.800000011921","66","img/117/4/1.5/bw/001.png","","","natural"
"","","","","","animation","187","1608515","0.0-187.0","1920x1080","","2999","67.99","img/238/4/2/bw/001.png","","","natural"
"","","","","","animation","188","1612649","0.0-188.0","1920x1080","","4132.699999988079","21.30","img/314/4/0.66667/bw/001.png","","","natural"
"","","","","","animation","189","1621132","0.0-189.0","1920x1080","","8482.199999988079","57.67","img/117/3.5/2/bw/001.png","","","natural"
"","","","","","animation","190","1626602","0.0-190.0","1920x1080","","5470.100000023842","79","img/238/5.5/1.5/bw/001.png","","","natural"
"","","","","","animation","191","1629850","0.0-191.0","1920x1080","","3246.5","43.78","img/314/3.5/1/bw/001.png","","","natural"
"","","","","","animation","192","1634215","0.0-192.0","1920x1080","","4363.5999999940395","50.26","img/314/4/1/bw/001.png","","","natural"
"","","","","","animation","193","1640264","0.0-193.0","1920x1080","","6048.5999999940395","3.97","img/314/2.5/1/bw/001.png","","","natural"
"","","","","","animation","194","1646547","0.0-194.0","1920x1080","","6280.9000000059605","42.86","img/117/5.5/0.5/bw/001.png","","","natural"
"","","","","","animation","195","1649850","0.0-195.0","1920x1080","","3301.199999988079","9.13","img/117/3.5/0.5/bw/001.png","","","natural"
"","","","","","animation","196","1653231","0.0-196.0","1920x1080","","3379.899999976158","84","img/117/5.5/1.5/bw/001.png","","","natural"
"","","","","","animation","197","1656538","0.0-197.0","1920x1080","","3305.9000000059605","13.49","img/238/4.5/0.5/bw/001.png","","","natural"
"","","","","","animation","198","1660834","0.0-198.0","1920x1080","","4294.5","62.17","img/117/5.5/0.66667/bw/001.png","","","natural"
"","","","","","animation","199","1664554","0.0-199.0","1920x1080","","3719.0999999940395","63.10","img/117/4.5/1/bw/001.png","","","natural"
"","","","","","animation","200","1678165","0.0-200.0","1920x1080","","13609.90000000596","50","img/238/4/1/bw/001.png","","","natural"
"","","","","","animation","201","1681798","0.0-201.0","1920x1080","","3631.399999976158","4","img/117/2.5/1.5/bw/001.png","","","natural"
"","","","","","animation","202","1686515","0.0-202.0","1920x1080","","4715.5","3.97","img/238/2.5/1/bw/001.png","","","natural"
"","","","","","animation","203","1689603","0.0-203.0","1920x1080","","3086.300000011921","4.10","img/314/2.5/1.5/bw/001.png","","","natural"
"","","","","","animation","204","1693034","0.0-204.0","1920x1080","","3430.5","0.00","img/117/2.5/0.5/bw/001.png","","","natural"
"","","","","","animation","205","1696698","0.0-205.0","1920x1080","","3662.699999988079","63.49","img/314/3.5/2/bw/001.png","","","natural"
"","","","","","animation","206","1699932","0.0-206.0","1920x1080","","3232.5","19.18","img/238/4/0.66667/bw/001.png","","","natural"
"","","","","","animation","207","1703882","0.0-207.0","1920x1080","","3949.5","33.07","img/238/3.5/1/bw/001.png","","","natural"
"","","","","","animation","208","1709415","0.0-208.0","1920x1080","","5531.199999988079","62.70","img/314/4/1.5/bw/001.png","","","natural"
"","","","","","animation","209","1715165","0.0-209.0","1920x1080","","5748.5","23.28","img/238/3.5/0.66667/bw/001.png","","","natural"
"","","","","","animation","210","1718539","0.0-210.0","1920x1080","","3373.0999999940395","64.95","img/238/4/1.5/bw/001.png","","","natural"
"","","","","","animation","211","1723987","0.0-211.0","1920x1080","","5447","90.21","img/314/5.5/1.5/bw/001.png","","","natural"
"","","","","","animation","212","1726832","0.0-212.0","1920x1080","","2843.5999999940395","82.80","img/314/4/2/bw/001.png","","","natural"
"","","","","","animation","213","1730466","0.0-213.0","1920x1080","","3633.5999999940395","2.12","img/314/2.5/0.66667/bw/001.png","","","natural"
"","","","","","animation","214","1749403","0.0-214.0","1920x1080","","18935","62.83","img/238/3.5/2/bw/001.png","","","natural"
"","","","","","animation","215","1753081","0.0-215.0","1920x1080","","3677.5999999940395","43.25","img/238/5.5/0.5/bw/001.png","","","natural"
"","","","","","animation","216","1758465","0.0-216.0","1920x1080","","5382.0999999940395","81.48","img/238/5.5/2/bw/001.png","","","natural"
"","","","","","animation","217","1762682","0.0-217.0","1920x1080","","4216.300000011921","21.43","img/314/3.5/0.66667/bw/001.png","","","natural"
"","","","","","animation","218","1767123","0.0-218.0","1920x1080","","4439.200000017881","83.33","img/238/4.5/1.5/bw/001.png","","","natural"
"","","","","","animation","219","1770133","0.0-219.0","1920x1080","","3009.5","5.16","img/117/4/0.5/bw/001.png","","","natural"
"","","","","","animation","220","1773564","0.0-220.0","1920x1080","","3429.5999999940395","22.49","img/314/4.5/0.66667/bw/001.png","","","natural"
"","","","","","animation","221","1779987","0.0-221.0","1920x1080","","6421","42.59","img/117/5.5/1/bw/001.png","","","natural"
"","","","","","animation","222","1783714","0.0-222.0","1920x1080","","3726.899999976158","41.93","img/117/4.5/1.5/bw/001.png","","","natural"
"","","","","","animation","223","1789339","0.0-223.0","1920x1080","","5622.800000011921","50.40","img/314/5.5/1/bw/001.png","","","natural"
"","","","","","animation","224","1795123","0.0-224.0","1920x1080","","5782.700000017881","63.62","img/314/4.5/2/bw/001.png","","","natural"
"","","","","","animation","225","1797865","0.0-225.0","1920x1080","","2741.0999999940395","2.25","img/314/2.5/0.5/bw/001.png","","","natural"
"","","","","","animation","226","1801365","0.0-226.0","1920x1080","","3498.800000011921","5.69","img/238/2.5/1.5/bw/001.png","","","natural"
"","","","","","animation","227","1806851","0.0-227.0","1920x1080","","5484.300000011921","3.04","img/238/3.5/0.5/bw/001.png","","","natural"
"","","","","","animation","228","1810782","0.0-228.0","1920x1080","","3929.9000000059605","11.11","img/117/3.5/1/bw/001.png","","","natural"
"","","","","","animation","229","1813139","0.0-229.0","1920x1080","","2356.2000000178814","2.78","img/238/2.5/0.66667/bw/001.png","","","natural"
"","","","","","animation","230","1818748","0.0-230.0","1920x1080","","5608.200000017881","62","img/238/5.5/1/bw/001.png","","","natural"
"","","","","","animation","231","1823435","0.0-231.0","1920x1080","","4684.800000011921","43.12","img/238/4.5/1/bw/001.png","","","natural"
"","","","","","animation","232","1842971","0.0-232.0","1920x1080","","19535.09999999404","38.36","img/117/4/0.66667/bw/001.png","","","natural"
"","","","","","animation","233","1846620","0.0-233.0","1920x1080","","3646.7999999821186","75.26","img/238/4.5/2/bw/001.png","","","natural"
"","","","","","animation","234","1850587","0.0-234.0","1920x1080","","3962.800000011921","8.73","img/117/2.5/2/bw/001.png","","","natural"
"","","","","","animation","235","1855803","0.0-235.0","1920x1080","","5214.700000017881","14.55","img/238/4.5/0.66667/bw/001.png","","","natural"
"","","","","","html-button-response","236","1878716","0.0-236.0","1920x1080","","22911.69999998808","","<div class=""intro"">You are about to view a new series of animations.<br><br></div><div class=""intro"">You will evaluate them based on a different descriptor.<br><br></div><div class=""intro"">Move the slider to indicate how <strong style=""text-transform:capitalize"">INTERESTING</strong> you find each animation.<br><br></div><div class=""intro"">0 = Least Interesting<br></div><div class=""intro"">1 = Most Interesting<br><br></div><div class=""intro"">Remember to use the <strong><em>entire range</em></strong> of the slider to make your ratings.<br></div><div class=""intro"">Please <strong><em>take your time</em></strong> and carefully consider each rating you make.<br><br></div>","0","",""
"","","","","","call-function","237","1878719","0.0-237.0","1920x1080","","","","","","",""
"","","","","","animation","238","1885434","0.0-238.0","1920x1080","","6714.9000000059605","64.15","img/238/3.5/0.66667/bw/001.png","","","interesting"
"","","","","","animation","239","1892370","0.0-239.0","1920x1080","","6934.800000011921","50.26","img/314/2.5/2/bw/001.png","","","interesting"
"","","","","","animation","240","1895664","0.0-240.0","1920x1080","","3292.5","19.18","img/238/5.5/1.5/bw/001.png","","","interesting"
"","","","","","animation","241","1898399","0.0-241.0","1920x1080","","2734.0999999940395","80.16","img/238/2.5/0.66667/bw/001.png","","","interesting"
"","","","","","animation","242","1903482","0.0-242.0","1920x1080","","5080.5999999940395","72.88","img/314/4.5/1/bw/001.png","","","interesting"
"","","","","","animation","243","1906650","0.0-243.0","1920x1080","","3166.5","72.35","img/238/4.5/1.5/bw/001.png","","","interesting"
"","","","","","animation","244","1910100","0.0-244.0","1920x1080","","3449.5","92.06","img/117/3.5/0.5/bw/001.png","","","interesting"
"","","","","","animation","245","1912986","0.0-245.0","1920x1080","","2878.800000011921","11.64","img/314/5.5/1.5/bw/001.png","","","interesting"
"","","","","","animation","246","1917313","0.0-246.0","1920x1080","","4326.5","64.68","img/314/4.5/0.66667/bw/001.png","","","interesting"
"","","","","","animation","247","1921586","0.0-247.0","1920x1080","","4270.800000011921","78.84","img/314/3.5/0.66667/bw/001.png","","","interesting"
"","","","","","animation","248","1926771","0.0-248.0","1920x1080","","5176.700000017881","40.21","img/117/5.5/1/bw/001.png","","","interesting"
"","","","","","animation","249","1932171","0.0-249.0","1920x1080","","5398.600000023842","22.09","img/117/5.5/2/bw/001.png","","","interesting"
"","","","","","animation","250","1942065","0.0-250.0","1920x1080","","9892.5","52.51","img/238/5.5/0.66667/bw/001.png","","","interesting"
"","","","","","animation","251","1947515","0.0-251.0","1920x1080","","5449","62.43","img/117/4/0.66667/bw/001.png","","","interesting"
"","","","","","animation","252","1952115","0.0-252.0","1920x1080","","4598.9000000059605","76.19","img/117/2.5/1/bw/001.png","","","interesting"
"","","","","","animation","253","1954987","0.0-253.0","1920x1080","","2870.300000011921","78.84","img/314/3.5/1/bw/001.png","","","interesting"
"","","","","","animation","254","1960131","0.0-254.0","1920x1080","","5142.9000000059605","79","img/314/5.5/0.5/bw/001.png","","","interesting"
"","","","","","animation","255","1964187","0.0-255.0","1920x1080","","4054.800000011921","79","img/117/5.5/0.5/bw/001.png","","","interesting"
"","","","","","animation","256","1970415","0.0-256.0","1920x1080","","6226.300000011921","40.87","img/238/4/1.5/bw/001.png","","","interesting"
"","","","","","animation","257","1974387","0.0-257.0","1920x1080","","3971.0999999940395","89","img/238/4.5/0.66667/bw/001.png","","","interesting"
"","","","","","animation","258","1980835","0.0-258.0","1920x1080","","6446.5999999940395","92","img/238/3.5/0.5/bw/001.png","","","interesting"
"","","","","","animation","259","1987248","0.0-259.0","1920x1080","","6410.800000011921","50.79","img/314/2.5/1.5/bw/001.png","","","interesting"
"","","","","","animation","260","1993782","0.0-260.0","1920x1080","","6532.300000011921","43.39","img/117/4.5/2/bw/001.png","","","interesting"
"","","","","","animation","261","2001019","0.0-261.0","1920x1080","","7236.199999988079","77.38","img/238/3.5/1/bw/001.png","","","interesting"
"","","","","","animation","262","2004603","0.0-262.0","1920x1080","","3582.9000000059605","51.32","img/117/2.5/1.5/bw/001.png","","","interesting"
"","","","","","animation","263","2012699","0.0-263.0","1920x1080","","8094.5999999940395","87.96","img/117/4.5/0.5/bw/001.png","","","interesting"
"","","","","","animation","264","2025467","0.0-264.0","1920x1080","","12766.800000011921","78.57","img/314/4/1.5/bw/001.png","","","interesting"
"","","","","","animation","265","2033181","0.0-265.0","1920x1080","","7712.600000023842","79.10","img/117/3.5/1.5/bw/001.png","","","interesting"
"","","","","","animation","266","2039081","0.0-266.0","1920x1080","","5898.9000000059605","84.39","img/238/4/0.66667/bw/001.png","","","interesting"
"","","","","","animation","267","2044881","0.0-267.0","1920x1080","","5798.699999988079","84","img/238/4.5/1/bw/001.png","","","interesting"
"","","","","","animation","268","2051415","0.0-268.0","1920x1080","","6531.799999982119","81.22","img/314/3.5/2/bw/001.png","","","interesting"
"","","","","","animation","269","2066387","0.0-269.0","1920x1080","","14971.299999982119","92.86","img/238/5.5/1/bw/001.png","","","interesting"
"","","","","","animation","270","2070515","0.0-270.0","1920x1080","","4125.800000011921","23.02","img/238/4.5/2/bw/001.png","","","interesting"
"","","","","","animation","271","2075381","0.0-271.0","1920x1080","","4865.0999999940395","78.97","img/238/4/0.5/bw/001.png","","","interesting"
"","","","","","animation","272","2092403","0.0-272.0","1920x1080","","17020.90000000596","44.05","img/238/4/1/bw/001.png","","","interesting"
"","","","","","animation","273","2099115","0.0-273.0","1920x1080","","6710.399999976158","76.72","img/117/4.5/0.66667/bw/001.png","","","interesting"
"","","","","","animation","274","2108334","0.0-274.0","1920x1080","","9215.5","76.98","img/314/4.5/0.5/bw/001.png","","","interesting"
"","","","","","animation","275","2112417","0.0-275.0","1920x1080","","4081.399999976158","66.01","img/314/3.5/0.5/bw/001.png","","","interesting"
"","","","","","animation","276","2117206","0.0-276.0","1920x1080","","4787.5999999940395","85.45","img/314/5.5/2/bw/001.png","","","interesting"
"","","","","","animation","277","2121751","0.0-277.0","1920x1080","","4543.5","81.48","img/117/3.5/1/bw/001.png","","","interesting"
"","","","","","animation","278","2125617","0.0-278.0","1920x1080","","3865.300000011921","78.97","img/117/4/1/bw/001.png","","","interesting"
"","","","","","animation","279","2132784","0.0-279.0","1920x1080","","7165.199999988079","86.90","img/117/5.5/1.5/bw/001.png","","","interesting"
"","","","","","animation","280","2136317","0.0-280.0","1920x1080","","3532","52.65","img/238/2.5/0.5/bw/001.png","","","interesting"
"","","","","","animation","281","2156606","0.0-281.0","1920x1080","","20287.79999998212","64.42","img/314/3.5/1.5/bw/001.png","","","interesting"
"","","","","","animation","282","2160367","0.0-282.0","1920x1080","","3759.5","50","img/314/2.5/0.5/bw/001.png","","","interesting"
"","","","","","animation","283","2163517","0.0-283.0","1920x1080","","3149.4000000059605","61.90","img/117/4/0.5/bw/001.png","","","interesting"
"","","","","","animation","284","2171257","0.0-284.0","1920x1080","","7735.5","78","img/314/4/1/bw/001.png","","","interesting"
"","","","","","animation","285","2175225","0.0-285.0","1920x1080","","3966.5999999940395","27.51","img/117/4.5/1.5/bw/001.png","","","interesting"
"","","","","","animation","286","2178553","0.0-286.0","1920x1080","","3326.7999999821186","25","img/117/4/2/bw/001.png","","","interesting"
"","","","","","animation","287","2183841","0.0-287.0","1920x1080","","5286.200000017881","86","img/117/5.5/0.66667/bw/001.png","","","interesting"
"","","","","","animation","288","2188094","0.0-288.0","1920x1080","","4251.300000011921","51","img/117/2.5/0.5/bw/001.png","","","interesting"
"","","","","","animation","289","2191030","0.0-289.0","1920x1080","","2934.600000023842","51.19","img/238/2.5/1.5/bw/001.png","","","interesting"
"","","","","","animation","290","2198209","0.0-290.0","1920x1080","","7177.799999982119","40","img/238/3.5/2/bw/001.png","","","interesting"
"","","","","","animation","291","2203889","0.0-291.0","1920x1080","","5678.300000011921","81.61","img/314/5.5/0.66667/bw/001.png","","","interesting"
"","","","","","animation","292","2210137","0.0-292.0","1920x1080","","6246.5","76.72","img/314/4/0.66667/bw/001.png","","","interesting"
"","","","","","animation","293","2215073","0.0-293.0","1920x1080","","4935.300000011921","77.91","img/314/4/0.5/bw/001.png","","","interesting"
"","","","","","animation","294","2217841","0.0-294.0","1920x1080","","2766.5","51.59","img/238/2.5/1/bw/001.png","","","interesting"
"","","","","","animation","295","2220825","0.0-295.0","1920x1080","","2982.5","50.53","img/117/2.5/2/bw/001.png","","","interesting"
"","","","","","animation","296","2227079","0.0-296.0","1920x1080","","6248.699999988079","10.85","img/238/5.5/2/bw/001.png","","","interesting"
"","","","","","animation","297","2244908","0.0-297.0","1920x1080","","17827.30000001192","42.06","img/117/4/1.5/bw/001.png","","","interesting"
"","","","","","animation","298","2249079","0.0-298.0","1920x1080","","4170.200000017881","96","img/238/5.5/0.5/bw/001.png","","","interesting"
"","","","","","animation","299","2252964","0.0-299.0","1920x1080","","3882.800000011921","89.15","img/238/4.5/0.5/bw/001.png","","","interesting"
"","","","","","animation","300","2256390","0.0-300.0","1920x1080","","3424.800000011921","49.87","img/238/2.5/2/bw/001.png","","","interesting"
"","","","","","animation","301","2258813","0.0-301.0","1920x1080","","2421.5","50.53","img/314/2.5/0.66667/bw/001.png","","","interesting"
"","","","","","animation","302","2264013","0.0-302.0","1920x1080","","5198.299999982119","91.93","img/314/5.5/1/bw/001.png","","","interesting"
"","","","","","animation","303","2269596","0.0-303.0","1920x1080","","5581.9000000059605","61.51","img/314/4/2/bw/001.png","","","interesting"
"","","","","","animation","304","2275260","0.0-304.0","1920x1080","","5662.699999988079","83.33","img/117/4.5/1/bw/001.png","","","interesting"
"","","","","","animation","305","2281255","0.0-305.0","1920x1080","","5993.800000011921","37.96","img/117/3.5/2/bw/001.png","","","interesting"
"","","","","","animation","306","2295979","0.0-306.0","1920x1080","","14718.800000011921","60.71","img/314/4.5/2/bw/001.png","","","interesting"
"","","","","","animation","307","2298248","0.0-307.0","1920x1080","","2267.300000011921","50.93","img/117/2.5/0.66667/bw/001.png","","","interesting"
"","","","","","animation","308","2302537","0.0-308.0","1920x1080","","4288.299999982119","60.85","img/238/3.5/1.5/bw/001.png","","","interesting"
"","","","","","animation","309","2304911","0.0-309.0","1920x1080","","2371.9000000059605","60.45","img/238/4/2/bw/001.png","","","interesting"
"","","","","","animation","310","2308385","0.0-310.0","1920x1080","","3473","60.71","img/314/4.5/1.5/bw/001.png","","","interesting"
"","","","","","animation","311","2312775","0.0-311.0","1920x1080","","4388.5","72.35","img/117/3.5/0.66667/bw/001.png","","","interesting"
"","","","","","animation","312","2316841","0.0-312.0","1920x1080","","4065.199999988079","50.53","img/314/2.5/1/bw/001.png","","","interesting"
"","","","","","html-button-response","313","2363761","0.0-313.0","1920x1080","","46915","","<div class=""intro"">You are about to view a new series of animations.<br><br></div><div class=""intro"">You will evaluate them based on a different descriptor.<br><br></div><div class=""intro"">Move the slider to indicate how <strong style=""text-transform:capitalize"">APPEALING</strong> you find each animation.<br><br></div><div class=""intro"">0 = Least Appealing<br></div><div class=""intro"">1 = Most Appealing<br><br></div><div class=""intro"">Remember to use the <strong><em>entire range</em></strong> of the slider to make your ratings.<br></div><div class=""intro"">Please <strong><em>take your time</em></strong> and carefully consider each rating you make.<br><br></div>","0","",""
"","","","","","call-function","314","2363765","0.0-314.0","1920x1080","","","","","","",""
"","","","","","animation","315","2390851","0.0-315.0","1920x1080","","27084.5","50.79","img/117/4/2/bw/001.png","","","appealing"
"","","","","","animation","316","2394784","0.0-316.0","1920x1080","","3931.300000011921","57.67","img/238/4/2/bw/001.png","","","appealing"
"","","","","","animation","317","2399113","0.0-317.0","1920x1080","","4327.700000017881","84.79","img/117/5.5/1/bw/001.png","","","appealing"
"","","","","","animation","318","2405445","0.0-318.0","1920x1080","","6330.5999999940395","34.79","img/314/4/0.66667/bw/001.png","","","appealing"
"","","","","","animation","319","2409649","0.0-319.0","1920x1080","","4201.699999988079","21.96","img/314/3.5/1/bw/001.png","","","appealing"
"","","","","","animation","320","2414779","0.0-320.0","1920x1080","","5127.300000011921","25.13","img/314/4/1/bw/001.png","","","appealing"
"","","","","","animation","321","2419249","0.0-321.0","1920x1080","","4457.299999982119","3.57","img/238/2.5/1/bw/001.png","","","appealing"
"","","","","","animation","322","2422960","0.0-322.0","1920x1080","","3709.300000011921","12","img/238/3.5/0.66667/bw/001.png","","","appealing"
"","","","","","animation","323","2426049","0.0-323.0","1920x1080","","3087.199999988079","10.85","img/314/3.5/2/bw/001.png","","","appealing"
"","","","","","animation","324","2429129","0.0-324.0","1920x1080","","3077.7999999821186","2.25","img/117/2.5/1.5/bw/001.png","","","appealing"
"","","","","","animation","325","2433038","0.0-325.0","1920x1080","","3907.199999988079","64.68","img/314/4.5/1/bw/001.png","","","appealing"
"","","","","","animation","326","2435877","0.0-326.0","1920x1080","","2838","28.04","img/117/3.5/1/bw/001.png","","","appealing"
"","","","","","animation","327","2443361","0.0-327.0","1920x1080","","7482.4000000059605","81","img/117/5.5/2/bw/001.png","","","appealing"
"","","","","","animation","328","2446713","0.0-328.0","1920x1080","","3349.5","80.56","img/238/5.5/2/bw/001.png","","","appealing"
"","","","","","animation","329","2449545","0.0-329.0","1920x1080","","2830.4000000059605","5.56","img/117/2.5/2/bw/001.png","","","appealing"
"","","","","","animation","330","2452145","0.0-330.0","1920x1080","","2598.5","6.08","img/238/2.5/2/bw/001.png","","","appealing"
"","","","","","animation","331","2455786","0.0-331.0","1920x1080","","3637.5","17.46","img/117/3.5/0.66667/bw/001.png","","","appealing"
"","","","","","animation","332","2459578","0.0-332.0","1920x1080","","3789.5999999940395","62.04","img/238/4.5/1.5/bw/001.png","","","appealing"
"","","","","","animation","333","2463700","0.0-333.0","1920x1080","","4121.199999988079","62.30","img/314/4.5/2/bw/001.png","","","appealing"
"","","","","","animation","334","2471298","0.0-334.0","1920x1080","","7595.4000000059605","24.07","img/314/4/0.5/bw/001.png","","","appealing"
"","","","","","animation","335","2474114","0.0-335.0","1920x1080","","2814.4000000059605","37.57","img/117/4/1/bw/001.png","","","appealing"
"","","","","","animation","336","2477212","0.0-336.0","1920x1080","","3096.5999999940395","3.57","img/314/2.5/1.5/bw/001.png","","","appealing"
"","","","","","animation","337","2490189","0.0-337.0","1920x1080","","12975.5","62.70","img/238/4.5/1/bw/001.png","","","appealing"
"","","","","","animation","338","2500611","0.0-338.0","1920x1080","","10421.199999988079","74.21","img/314/5.5/0.5/bw/001.png","","","appealing"
"","","","","","animation","339","2504349","0.0-339.0","1920x1080","","3735.699999988079","82.80","img/314/5.5/1.5/bw/001.png","","","appealing"
"","","","","","animation","340","2507045","0.0-340.0","1920x1080","","2694.5999999940395","41.27","img/314/4.5/0.5/bw/001.png","","","appealing"
"","","","","","animation","341","2510956","0.0-341.0","1920x1080","","3910.199999988079","61.64","img/314/4.5/1.5/bw/001.png","","","appealing"
"","","","","","animation","342","2514379","0.0-342.0","1920x1080","","3420.600000023842","77.25","img/117/5.5/1.5/bw/001.png","","","appealing"
"","","","","","animation","343","2518111","0.0-343.0","1920x1080","","3731.5","31","img/238/4/0.66667/bw/001.png","","","appealing"
"","","","","","animation","344","2521050","0.0-344.0","1920x1080","","2937.199999988079","35.05","img/238/4.5/0.66667/bw/001.png","","","appealing"
"","","","","","animation","345","2527562","0.0-345.0","1920x1080","","6510.699999988079","44.84","img/117/3.5/1.5/bw/001.png","","","appealing"
"","","","","","animation","346","2531129","0.0-346.0","1920x1080","","3565.9000000059605","3.84","img/314/2.5/2/bw/001.png","","","appealing"
"","","","","","animation","347","2550043","0.0-347.0","1920x1080","","18912.09999999404","62.70","img/117/4.5/1/bw/001.png","","","appealing"
"","","","","","animation","348","2553331","0.0-348.0","1920x1080","","3286","40.08","img/117/4.5/0.66667/bw/001.png","","","appealing"
"","","","","","animation","349","2556664","0.0-349.0","1920x1080","","3331.7999999821186","20.50","img/238/4/0.5/bw/001.png","","","appealing"
"","","","","","animation","350","2559529","0.0-350.0","1920x1080","","2864.300000011921","2","img/238/2.5/0.5/bw/001.png","","","appealing"
"","","","","","animation","351","2562913","0.0-351.0","1920x1080","","3382.5999999940395","82.67","img/117/5.5/0.66667/bw/001.png","","","appealing"
"","","","","","animation","352","2566795","0.0-352.0","1920x1080","","3879.5999999940395","18.65","img/314/3.5/0.5/bw/001.png","","","appealing"
"","","","","","animation","353","2570849","0.0-353.0","1920x1080","","4053.5","96","img/314/5.5/2/bw/001.png","","","appealing"
"","","","","","animation","354","2574210","0.0-354.0","1920x1080","","3359.300000011921","62.83","img/238/4/1.5/bw/001.png","","","appealing"
"","","","","","animation","355","2579369","0.0-355.0","1920x1080","","5157.5","3","img/314/2.5/0.5/bw/001.png","","","appealing"
"","","","","","animation","356","2588027","0.0-356.0","1920x1080","","8655.59999999404","74.60","img/238/4.5/2/bw/001.png","","","appealing"
"","","","","","animation","357","2590937","0.0-357.0","1920x1080","","2908.5","61.64","img/314/4/1.5/bw/001.png","","","appealing"
"","","","","","animation","358","2594716","0.0-358.0","1920x1080","","3778.2000000178814","32.14","img/117/5.5/0.5/bw/001.png","","","appealing"
"","","","","","animation","359","2598789","0.0-359.0","1920x1080","","4071.100000023842","20.90","img/117/4.5/0.5/bw/001.png","","","appealing"
"","","","","","animation","360","2602067","0.0-360.0","1920x1080","","3275.600000023842","15.87","img/117/4/0.66667/bw/001.png","","","appealing"
"","","","","","animation","361","2605269","0.0-361.0","1920x1080","","3199.7000000178814","63.36","img/117/4.5/1.5/bw/001.png","","","appealing"
"","","","","","animation","362","2611961","0.0-362.0","1920x1080","","6690.700000017881","51.72","img/238/5.5/1/bw/001.png","","","appealing"
"","","","","","animation","363","2616914","0.0-363.0","1920x1080","","4950.200000017881","41.93","img/314/3.5/1.5/bw/001.png","","","appealing"
"","","","","","animation","364","2621679","0.0-364.0","1920x1080","","4762.800000011921","66.93","img/117/4.5/2/bw/001.png","","","appealing"
"","","","","","animation","365","2625745","0.0-365.0","1920x1080","","4062.4000000059605","30.29","img/314/4.5/0.66667/bw/001.png","","","appealing"
"","","","","","animation","366","2629421","0.0-366.0","1920x1080","","3674.7000000178814","19.97","img/314/3.5/0.66667/bw/001.png","","","appealing"
"","","","","","animation","367","2633521","0.0-367.0","1920x1080","","4098.399999976158","4.10","img/238/2.5/1.5/bw/001.png","","","appealing"
"","","","","","animation","368","2637521","0.0-368.0","1920x1080","","3998","6.88","img/117/3.5/0.5/bw/001.png","","","appealing"
"","","","","","animation","369","2642110","0.0-369.0","1920x1080","","4587.5","90.08","img/238/5.5/1.5/bw/001.png","","","appealing"
"","","","","","animation","370","2645477","0.0-370.0","1920x1080","","3364.7000000178814","4.89","img/314/2.5/0.66667/bw/001.png","","","appealing"
"","","","","","animation","371","2648820","0.0-371.0","1920x1080","","3341.4000000059605","5.16","img/117/4/0.5/bw/001.png","","","appealing"
"","","","","","animation","372","2652681","0.0-372.0","1920x1080","","3860.4000000059605","14","img/238/4/1/bw/001.png","","","appealing"
"","","","","","animation","373","2664661","0.0-373.0","1920x1080","","11977.59999999404","50.66","img/314/4/2/bw/001.png","","","appealing"
"","","","","","animation","374","2667713","0.0-374.0","1920x1080","","3050.600000023842","3.17","img/117/2.5/0.5/bw/001.png","","","appealing"
"","","","","","animation","375","2674945","0.0-375.0","1920x1080","","7230.600000023842","50.40","img/314/5.5/1/bw/001.png","","","appealing"
"","","","","","animation","376","2678378","0.0-376.0","1920x1080","","3431.4000000059605","38.62","img/238/4.5/0.5/bw/001.png","","","appealing"
"","","","","","animation","377","2688461","0.0-377.0","1920x1080","","10081.5","39.55","img/238/5.5/0.5/bw/001.png","","","appealing"
"","","","","","animation","378","2700761","0.0-378.0","1920x1080","","12297.799999982119","51.59","img/314/5.5/0.66667/bw/001.png","","","appealing"
"","","","","","animation","379","2703410","0.0-379.0","1920x1080","","2647.4000000059605","3.31","img/238/2.5/0.66667/bw/001.png","","","appealing"
"","","","","","animation","380","2706071","0.0-380.0","1920x1080","","2658.800000011921","3.31","img/117/2.5/0.66667/bw/001.png","","","appealing"
"","","","","","animation","381","2709871","0.0-381.0","1920x1080","","3798.2999999821186","51.59","img/117/4/1.5/bw/001.png","","","appealing"
"","","","","","animation","382","2712995","0.0-382.0","1920x1080","","3122.699999988079","2.91","img/117/2.5/1/bw/001.png","","","appealing"
"","","","","","animation","383","2715744","0.0-383.0","1920x1080","","2747.9000000059605","0.79","img/314/2.5/1/bw/001.png","","","appealing"
"","","","","","animation","384","2719114","0.0-384.0","1920x1080","","3368","7.54","img/238/3.5/0.5/bw/001.png","","","appealing"
"","","","","","animation","385","2724690","0.0-385.0","1920x1080","","5574.199999988079","40","img/238/3.5/1.5/bw/001.png","","","appealing"
"","","","","","animation","386","2729112","0.0-386.0","1920x1080","","4420.9000000059605","31.08","img/238/3.5/1/bw/001.png","","","appealing"
"","","","","","animation","387","2734611","0.0-387.0","1920x1080","","5497.100000023842","50.26","img/117/3.5/2/bw/001.png","","","appealing"
"","","","","","animation","388","2738734","0.0-388.0","1920x1080","","4121.700000017881","50","img/238/3.5/2/bw/001.png","","","appealing"
"","","","","","animation","389","2743027","0.0-389.0","1920x1080","","4291.199999988079","60.19","img/238/5.5/0.66667/bw/001.png","","","appealing"
"","","","","","html-button-response","390","2766300","0.0-390.0","1920x1080","","23270.90000000596","","<strong>Study Debriefing</strong><br><p class=""debrief""><strong>Background:</strong> The patterns you rated are called <em>fractals</em>. The term fractal describes a class of irregular curves or shapes for which any suitably chosen part is similar in shape to a given larger or smaller part when magnified or reduced to the same size. Fractal properties are found throughout the natural and manmade world. The series of animations you saw today displayed animated fractal patterns of a varying complexity.</p><p class=""debrief""><strong>Purpose of this study:</strong> We hope to better understand how the perception of static fractals differs from the perception of animated fractals, and how the speed of the animated patterns influences people&apos;s perception of them. Fractals allow us to study the perception of aesthetic properties (e.g. the perceived level of beauty in an image) without using recognizable content, which makes them an excellent tool for studying abstract aesthetic judgement.</p><p class=""debrief""><strong>Your part:</strong> Your participation has helped us to further understand how humans perceive these patterns across different levels of speed and complexity. This research with allow us to better understand how the visual system and brain process our ever-changing visual environments.<p class=""debrief""><strong>Feedback and Further information:</strong> If you have additional questions about this study, please feel free to ask the researcher, Nathan Gonzales-Hess at nhess @ uoregon.edu. If you have any questions concerning your rights as a research participant, please contact Research Compliance Services, 5237 University of Oregon, Eugene, OR 97403, 541-346-2510, or email researchCompliance @ uoregon.edu. You can also email the Human Subjects Coordinator for psychology and linguistics research at hscoord @ uoregon.edu. ","0","",""
"","","","","","html-button-response","391","2779066","0.0-391.0","1920x1080","","12761.899999976158","","Thank you for participating in this study. <br>Please click below to finish the experiment and submit your responses.<br><br>","0","",""
"true","","","","","fullscreen","392","2780089","0.0-392.0","1920x1080","13:41 19/5/2022","","","","","",""
