"success","timeout","failed_images","failed_audio","failed_video","trial_type","trial_index","time_elapsed","internal_node_id","resolution","timeStamp","rt","response","stimulus","button_pressed","value","descriptor"
"true","false","[]","[]","[]","preload","0","19808","0.0-0.0","1920x1080","","","","","","",""
"true","false","[]","[]","[]","preload","1","41054","0.0-1.0","1920x1080","","","","","","",""
"true","false","[]","[]","[]","preload","2","62425","0.0-2.0","1920x1080","","","","","","",""
"true","","","","","fullscreen","3","277160","0.0-3.0","1920x1080","11:33 20/10/2022","","","","","",""
"","","","","","survey-html-form","4","285377","0.0-4.0","1920x1080","","8214.400000000023","{""age"":""18"",""gender"":""Male""}","","","",""
"","","","","","html-button-response","5","347952","0.0-5.0","1920x1080","","62734.90000000002","","<div class=""complex"">You are going to see a series of animations.<br><br></div><div class=""complex"">Move the slider to indicate how <strong style=""text-transform:capitalize"">COMPLEX</strong> you find each animation.<br><br></div><div class=""complex"">0 = Least Complex<br></div><div class=""complex"">1 = Most Complex<br><br></div><div class=""complex"">Remember to use the <strong><em>entire range</em></strong> of the slider to make your ratings.<br></div><div class=""complex"">Please <strong><em>take your time</em></strong> and carefully consider each rating you make.<br><br></div><div class=""complex"">The study has five sections and will take about 45 minutes to complete.<br><br></div>","0","",""
"","","","","","call-function","6","347953","0.0-6.0","1920x1080","","","","","","",""
"","","","","","animation","7","361680","0.0-7.0","1920x1080","","13725","85.19","img/238/2.5/0.5/bw/001.png","","","complex"
"","","","","","animation","8","383631","0.0-8.0","1920x1080","","21949.79999999999","45.37","img/314/4/1/bw/001.png","","","complex"
"","","","","","animation","9","389823","0.0-9.0","1920x1080","","6191.100000000035","55.56","img/117/3.5/1.5/bw/001.png","","","complex"
"","","","","","animation","10","395039","0.0-10.0","1920x1080","","5215.400000000023","77.12","img/238/3.5/0.66667/bw/001.png","","","complex"
"","","","","","animation","11","397431","0.0-11.0","1920x1080","","2391.0999999999767","75.93","img/117/3.5/0.66667/bw/001.png","","","complex"
"","","","","","animation","12","401984","0.0-12.0","1920x1080","","4552","28.70","img/238/5.5/0.66667/bw/001.png","","","complex"
"","","","","","animation","13","407726","0.0-13.0","1920x1080","","5886.699999999953","98","img/314/2.5/0.5/bw/001.png","","","complex"
"","","","","","animation","14","411007","0.0-14.0","1920x1080","","3279.6999999999534","13.76","img/238/5.5/0.5/bw/001.png","","","complex"
"","","","","","animation","15","415671","0.0-15.0","1920x1080","","4663","65.08","img/117/4/0.66667/bw/001.png","","","complex"
"","","","","","animation","16","417727","0.0-16.0","1920x1080","","2054.5999999999767","52.78","img/238/4/1/bw/001.png","","","complex"
"","","","","","animation","17","422231","0.0-17.0","1920x1080","","4503.099999999977","12.57","img/238/5.5/1.5/bw/001.png","","","complex"
"","","","","","animation","18","424903","0.0-18.0","1920x1080","","2671.20000000007","24.60","img/238/4.5/1.5/bw/001.png","","","complex"
"","","","","","animation","19","427310","0.0-19.0","1920x1080","","2406.9000000000233","68.78","img/314/3.5/1/bw/001.png","","","complex"
"","","","","","animation","20","429743","0.0-20.0","1920x1080","","2431.100000000093","66.27","img/314/4/2/bw/001.png","","","complex"
"","","","","","animation","21","436631","0.0-21.0","1920x1080","","6887.400000000023","7.14","img/238/5.5/1/bw/001.png","","","complex"
"","","","","","animation","22","439807","0.0-22.0","1920x1080","","3175.0999999999767","65.87","img/314/4/1.5/bw/001.png","","","complex"
"","","","","","animation","23","447495","0.0-23.0","1920x1080","","7686.699999999953","8.47","img/117/2.5/2/bw/001.png","","","complex"
"","","","","","animation","24","452175","0.0-24.0","1920x1080","","4679.800000000047","21.83","img/117/4/2/bw/001.png","","","complex"
"","","","","","animation","25","455527","0.0-25.0","1920x1080","","3350.4000000000233","95","img/238/4/0.66667/bw/001.png","","","complex"
"","","","","","animation","26","457727","0.0-26.0","1920x1080","","2199.4000000000233","91.40","img/117/4.5/1/bw/001.png","","","complex"
"","","","","","animation","27","462335","0.0-27.0","1920x1080","","4607.599999999977","91.27","img/117/4.5/1.5/bw/001.png","","","complex"
"","","","","","animation","28","466823","0.0-28.0","1920x1080","","4487.300000000047","100","img/238/3.5/0.5/bw/001.png","","","complex"
"","","","","","animation","29","475766","0.0-29.0","1920x1080","","9086.5","74.07","img/314/3.5/2/bw/001.png","","","complex"
"","","","","","animation","30","483118","0.0-30.0","1920x1080","","7351.600000000093","52","img/238/4.5/1/bw/001.png","","","complex"
"","","","","","animation","31","489215","0.0-31.0","1920x1080","","6095.900000000023","69.05","img/238/4/0.5/bw/001.png","","","complex"
"","","","","","animation","32","493213","0.0-32.0","1920x1080","","3998.1999999999534","15.34","img/117/5.5/0.66667/bw/001.png","","","complex"
"","","","","","animation","33","498664","0.0-33.0","1920x1080","","5449.399999999907","18","img/314/4.5/2/bw/001.png","","","complex"
"","","","","","animation","34","502750","0.0-34.0","1920x1080","","4085.0999999999767","13","img/238/4.5/2/bw/001.png","","","complex"
"","","","","","animation","35","507710","0.0-35.0","1920x1080","","4959.399999999907","54.89","img/238/3.5/2/bw/001.png","","","complex"
"","","","","","animation","36","517710","0.0-36.0","1920x1080","","9999.199999999953","17.46","img/314/5.5/1/bw/001.png","","","complex"
"","","","","","animation","37","523526","0.0-37.0","1920x1080","","5814.79999999993","32.41","img/314/2.5/0.66667/bw/001.png","","","complex"
"","","","","","animation","38","527724","0.0-38.0","1920x1080","","4342.400000000023","27.12","img/238/4/1.5/bw/001.png","","","complex"
"","","","","","animation","39","531235","0.0-39.0","1920x1080","","3510.6999999999534","4.89","img/238/2.5/0.66667/bw/001.png","","","complex"
"","","","","","animation","40","534901","0.0-40.0","1920x1080","","3664.70000000007","49.34","img/117/4.5/0.66667/bw/001.png","","","complex"
"","","","","","animation","41","537117","0.0-41.0","1920x1080","","2215.70000000007","46.30","img/238/4.5/0.66667/bw/001.png","","","complex"
"","","","","","animation","42","544796","0.0-42.0","1920x1080","","7677.600000000093","41.93","img/238/3.5/1.5/bw/001.png","","","complex"
"","","","","","animation","43","552534","0.0-43.0","1920x1080","","7737.099999999977","97","img/117/2.5/0.5/bw/001.png","","","complex"
"","","","","","animation","44","556317","0.0-44.0","1920x1080","","3781.4000000000233","49.21","img/117/2.5/1.5/bw/001.png","","","complex"
"","","","","","animation","45","562285","0.0-45.0","1920x1080","","5967","7.67","img/117/4.5/2/bw/001.png","","","complex"
"","","","","","animation","46","569651","0.0-46.0","1920x1080","","7365.900000000023","78","img/314/2.5/1/bw/001.png","","","complex"
"","","","","","animation","47","573171","0.0-47.0","1920x1080","","3519","4.89","img/314/4/0.66667/bw/001.png","","","complex"
"","","","","","animation","48","579964","0.0-48.0","1920x1080","","6791.900000000023","8.20","img/238/4.5/0.5/bw/001.png","","","complex"
"","","","","","animation","49","584108","0.0-49.0","1920x1080","","4142.899999999907","92.59","img/238/2.5/1/bw/001.png","","","complex"
"","","","","","animation","50","589412","0.0-50.0","1920x1080","","5399.099999999977","8.33","img/117/4/1.5/bw/001.png","","","complex"
"","","","","","animation","51","594044","0.0-51.0","1920x1080","","4630.5","12","img/238/5.5/2/bw/001.png","","","complex"
"","","","","","animation","52","598438","0.0-52.0","1920x1080","","4393.099999999977","81.35","img/238/4/2/bw/001.png","","","complex"
"","","","","","animation","53","602540","0.0-53.0","1920x1080","","4100.899999999907","21.43","img/314/4.5/1/bw/001.png","","","complex"
"","","","","","animation","54","610076","0.0-54.0","1920x1080","","7535.300000000047","23.28","img/314/4.5/1.5/bw/001.png","","","complex"
"","","","","","animation","55","621222","0.0-55.0","1920x1080","","11144.5","27.51","img/314/2.5/2/bw/001.png","","","complex"
"","","","","","animation","56","627406","0.0-56.0","1920x1080","","6183.20000000007","91","img/117/2.5/0.66667/bw/001.png","","","complex"
"","","","","","animation","57","633292","0.0-57.0","1920x1080","","5882.800000000047","8.60","img/314/4.5/0.66667/bw/001.png","","","complex"
"","","","","","animation","58","636692","0.0-58.0","1920x1080","","3399","6.88","img/117/5.5/0.5/bw/001.png","","","complex"
"","","","","","animation","59","639780","0.0-59.0","1920x1080","","3087.0999999999767","6.35","img/117/3.5/2/bw/001.png","","","complex"
"","","","","","animation","60","647250","0.0-60.0","1920x1080","","7463.29999999993","10.45","img/314/3.5/1.5/bw/001.png","","","complex"
"","","","","","animation","61","667098","0.0-61.0","1920x1080","","19846.599999999977","67","img/314/4/0.5/bw/001.png","","","complex"
"","","","","","animation","62","669138","0.0-62.0","1920x1080","","2036.5999999999767","69.18","img/238/3.5/1/bw/001.png","","","complex"
"","","","","","animation","63","671770","0.0-63.0","1920x1080","","2631","11.90","img/117/5.5/1.5/bw/001.png","","","complex"
"","","","","","animation","64","674074","0.0-64.0","1920x1080","","2302.9000000000233","2.91","img/117/5.5/2/bw/001.png","","","complex"
"","","","","","animation","65","677898","0.0-65.0","1920x1080","","3822.8000000000466","6.22","img/314/2.5/1.5/bw/001.png","","","complex"
"","","","","","animation","66","681122","0.0-66.0","1920x1080","","3223.4000000000233","93.25","img/314/3.5/0.5/bw/001.png","","","complex"
"","","","","","animation","67","689386","0.0-67.0","1920x1080","","8263.099999999977","50","img/117/4/0.5/bw/001.png","","","complex"
"","","","","","animation","68","692060","0.0-68.0","1920x1080","","2673.1999999999534","3","img/314/5.5/0.66667/bw/001.png","","","complex"
"","","","","","animation","69","698834","0.0-69.0","1920x1080","","6772.5","3","img/314/5.5/2/bw/001.png","","","complex"
"","","","","","animation","70","704195","0.0-70.0","1920x1080","","5360.900000000023","20.77","img/117/4.5/0.5/bw/001.png","","","complex"
"","","","","","animation","71","711016","0.0-71.0","1920x1080","","6821.5","10.45","img/117/5.5/1/bw/001.png","","","complex"
"","","","","","animation","72","713880","0.0-72.0","1920x1080","","2862.8000000000466","80.82","img/117/3.5/0.5/bw/001.png","","","complex"
"","","","","","animation","73","716928","0.0-73.0","1920x1080","","3047.3000000000466","12.83","img/314/5.5/0.5/bw/001.png","","","complex"
"","","","","","animation","74","721842","0.0-74.0","1920x1080","","4913","50.93","img/117/4/1/bw/001.png","","","complex"
"","","","","","animation","75","724832","0.0-75.0","1920x1080","","2989.5","3","img/314/5.5/1.5/bw/001.png","","","complex"
"","","","","","animation","76","727944","0.0-76.0","1920x1080","","3110.899999999907","81","img/314/3.5/0.66667/bw/001.png","","","complex"
"","","","","","animation","77","730249","0.0-77.0","1920x1080","","2303.5","91.93","img/117/2.5/1/bw/001.png","","","complex"
"","","","","","animation","78","732633","0.0-78.0","1920x1080","","2383","7.01","img/314/4.5/0.5/bw/001.png","","","complex"
"","","","","","animation","79","735476","0.0-79.0","1920x1080","","2842","75.40","img/238/2.5/1.5/bw/001.png","","","complex"
"","","","","","animation","80","738729","0.0-80.0","1920x1080","","3252.29999999993","53.97","img/117/3.5/1/bw/001.png","","","complex"
"","","","","","animation","81","745464","0.0-81.0","1920x1080","","6734.5","26.46","img/238/2.5/2/bw/001.png","","","complex"
"","","","","","html-button-response","82","767268","0.0-82.0","1920x1080","","21799.100000000093","","<div class=""intro"">You are about to view a new series of animations.<br><br></div><div class=""intro"">You will evaluate them based on a different descriptor.<br><br></div><div class=""intro"">Move the slider to indicate how <strong style=""text-transform:capitalize"">NATURAL</strong> you find each animation.<br><br></div><div class=""intro"">0 = Least Natural<br></div><div class=""intro"">1 = Most Natural<br><br></div><div class=""intro"">Remember to use the <strong><em>entire range</em></strong> of the slider to make your ratings.<br></div><div class=""intro"">Please <strong><em>take your time</em></strong> and carefully consider each rating you make.<br><br></div>","0","",""
"","","","","","call-function","83","767270","0.0-83.0","1920x1080","","","","","","",""
"","","","","","animation","84","774014","0.0-84.0","1920x1080","","6743.400000000023","61.24","img/314/3.5/1.5/bw/001.png","","","natural"
"","","","","","animation","85","781308","0.0-85.0","1920x1080","","7293.099999999977","38.23","img/238/3.5/1.5/bw/001.png","","","natural"
"","","","","","animation","86","788892","0.0-86.0","1920x1080","","7582.800000000047","20","img/314/3.5/0.66667/bw/001.png","","","natural"
"","","","","","animation","87","798363","0.0-87.0","1920x1080","","9470.5","17.33","img/238/3.5/0.66667/bw/001.png","","","natural"
"","","","","","animation","88","802495","0.0-88.0","1920x1080","","4130.099999999977","65.34","img/117/4/1/bw/001.png","","","natural"
"","","","","","animation","89","808763","0.0-89.0","1920x1080","","6267.5","12.96","img/117/4.5/1.5/bw/001.png","","","natural"
"","","","","","animation","90","815700","0.0-90.0","1920x1080","","6935","86.11","img/117/5.5/1/bw/001.png","","","natural"
"","","","","","animation","91","820636","0.0-91.0","1920x1080","","4935.099999999977","70","img/314/4.5/1.5/bw/001.png","","","natural"
"","","","","","animation","92","824646","0.0-92.0","1920x1080","","4009.20000000007","61.24","img/314/5.5/0.66667/bw/001.png","","","natural"
"","","","","","animation","93","833432","0.0-93.0","1920x1080","","8788.599999999977","14","img/117/4/1.5/bw/001.png","","","natural"
"","","","","","animation","94","839143","0.0-94.0","1920x1080","","5710.79999999993","64.02","img/238/4.5/1.5/bw/001.png","","","natural"
"","","","","","animation","95","844809","0.0-95.0","1920x1080","","5664.599999999977","76.46","img/314/5.5/1.5/bw/001.png","","","natural"
"","","","","","animation","96","849425","0.0-96.0","1920x1080","","4613.800000000047","21.03","img/238/3.5/2/bw/001.png","","","natural"
"","","","","","animation","97","857410","0.0-97.0","1920x1080","","7984.099999999977","27.65","img/314/4/0.66667/bw/001.png","","","natural"
"","","","","","animation","98","862536","0.0-98.0","1920x1080","","5125.099999999977","21.16","img/314/4/1/bw/001.png","","","natural"
"","","","","","animation","99","871120","0.0-99.0","1920x1080","","8583.199999999953","7.80","img/117/2.5/0.5/bw/001.png","","","natural"
"","","","","","animation","100","887792","0.0-100.0","1920x1080","","16672","45","img/117/4/0.5/bw/001.png","","","natural"
"","","","","","animation","101","906119","0.0-101.0","1920x1080","","18325.599999999977","42","img/314/4.5/0.66667/bw/001.png","","","natural"
"","","","","","animation","102","911063","0.0-102.0","1920x1080","","4942.199999999953","15.48","img/238/5.5/0.66667/bw/001.png","","","natural"
"","","","","","animation","103","919119","0.0-103.0","1920x1080","","8055.400000000023","75","img/117/5.5/0.5/bw/001.png","","","natural"
"","","","","","animation","104","926783","0.0-104.0","1920x1080","","7662.5","20.24","img/238/5.5/1.5/bw/001.png","","","natural"
"","","","","","animation","105","936535","0.0-105.0","1920x1080","","9750.70000000007","24.60","img/117/4.5/0.5/bw/001.png","","","natural"
"","","","","","animation","106","943783","0.0-106.0","1920x1080","","7247.199999999953","69.58","img/238/5.5/2/bw/001.png","","","natural"
"","","","","","animation","107","947448","0.0-107.0","1920x1080","","3662.8000000000466","17.33","img/238/5.5/0.5/bw/001.png","","","natural"
"","","","","","animation","108","952192","0.0-108.0","1920x1080","","4743.199999999953","12.04","img/314/5.5/2/bw/001.png","","","natural"
"","","","","","animation","109","954160","0.0-109.0","1920x1080","","1966.3000000000466","14.55","img/117/5.5/0.66667/bw/001.png","","","natural"
"","","","","","animation","110","960785","0.0-110.0","1920x1080","","6623.600000000093","28.57","img/314/4.5/0.5/bw/001.png","","","natural"
"","","","","","animation","111","963709","0.0-111.0","1920x1080","","2923.399999999907","30.29","img/117/4.5/1/bw/001.png","","","natural"
"","","","","","animation","112","966709","0.0-112.0","1920x1080","","2998.899999999907","0.00","img/117/2.5/0.66667/bw/001.png","","","natural"
"","","","","","animation","113","970784","0.0-113.0","1920x1080","","4074.3000000000466","2.25","img/238/2.5/0.5/bw/001.png","","","natural"
"","","","","","animation","114","974584","0.0-114.0","1920x1080","","3798.6999999999534","3.44","img/238/2.5/0.66667/bw/001.png","","","natural"
"","","","","","animation","115","977632","0.0-115.0","1920x1080","","3046.5999999998603","5.42","img/238/3.5/0.5/bw/001.png","","","natural"
"","","","","","animation","116","982232","0.0-116.0","1920x1080","","4599.09999999986","24.47","img/117/4.5/0.66667/bw/001.png","","","natural"
"","","","","","animation","117","984680","0.0-117.0","1920x1080","","2447.0999999998603","66.40","img/314/5.5/0.5/bw/001.png","","","natural"
"","","","","","animation","118","987658","0.0-118.0","1920x1080","","2976.9000000001397","11.38","img/238/4/0.5/bw/001.png","","","natural"
"","","","","","animation","119","990508","0.0-119.0","1920x1080","","2848.399999999907","77.51","img/314/5.5/1/bw/001.png","","","natural"
"","","","","","animation","120","1001826","0.0-120.0","1920x1080","","11317.699999999953","11.64","img/238/2.5/1/bw/001.png","","","natural"
"","","","","","animation","121","1012040","0.0-121.0","1920x1080","","10213.199999999953","10.98","img/238/4.5/1/bw/001.png","","","natural"
"","","","","","animation","122","1015447","0.0-122.0","1920x1080","","3405.399999999907","17.06","img/117/3.5/0.5/bw/001.png","","","natural"
"","","","","","animation","123","1018275","0.0-123.0","1920x1080","","2826.5999999998603","10.98","img/314/3.5/1/bw/001.png","","","natural"
"","","","","","animation","124","1020631","0.0-124.0","1920x1080","","2355.5","14.42","img/314/4/0.5/bw/001.png","","","natural"
"","","","","","animation","125","1038057","0.0-125.0","1920x1080","","17424.09999999986","26.59","img/117/3.5/1.5/bw/001.png","","","natural"
"","","","","","animation","126","1047983","0.0-126.0","1920x1080","","9925.800000000047","10.85","img/314/2.5/2/bw/001.png","","","natural"
"","","","","","animation","127","1073127","0.0-127.0","1920x1080","","25136.40000000014","26","img/314/3.5/0.5/bw/001.png","","","natural"
"","","","","","animation","128","1079267","0.0-128.0","1920x1080","","6138.699999999953","69.05","img/117/4/2/bw/001.png","","","natural"
"","","","","","animation","129","1085651","0.0-129.0","1920x1080","","6383","7.67","img/238/4.5/0.66667/bw/001.png","","","natural"
"","","","","","animation","130","1087945","0.0-130.0","1920x1080","","2291.5999999998603","3","img/314/2.5/1.5/bw/001.png","","","natural"
"","","","","","animation","131","1091445","0.0-131.0","1920x1080","","3499","78.57","img/117/5.5/2/bw/001.png","","","natural"
"","","","","","animation","132","1094267","0.0-132.0","1920x1080","","2821","7.14","img/314/2.5/1/bw/001.png","","","natural"
"","","","","","animation","133","1097955","0.0-133.0","1920x1080","","3687.1999999999534","15.08","img/238/4/0.66667/bw/001.png","","","natural"
"","","","","","animation","134","1101915","0.0-134.0","1920x1080","","3958.8000000000466","17.72","img/117/3.5/1/bw/001.png","","","natural"
"","","","","","animation","135","1104744","0.0-135.0","1920x1080","","2828","77.65","img/238/5.5/1/bw/001.png","","","natural"
"","","","","","animation","136","1109363","0.0-136.0","1920x1080","","4618","63.10","img/314/4.5/1/bw/001.png","","","natural"
"","","","","","animation","137","1132517","0.0-137.0","1920x1080","","23146.799999999814","9.26","img/238/4.5/2/bw/001.png","","","natural"
"","","","","","animation","138","1142351","0.0-138.0","1920x1080","","9830.100000000093","20.90","img/117/4.5/2/bw/001.png","","","natural"
"","","","","","animation","139","1151934","0.0-139.0","1920x1080","","9581.899999999907","12.30","img/314/2.5/0.5/bw/001.png","","","natural"
"","","","","","animation","140","1155633","0.0-140.0","1920x1080","","3696.1999999999534","81.08","img/117/5.5/1.5/bw/001.png","","","natural"
"","","","","","animation","141","1165417","0.0-141.0","1920x1080","","9782.600000000093","13.49","img/238/4/1.5/bw/001.png","","","natural"
"","","","","","animation","142","1168733","0.0-142.0","1920x1080","","3315","18.12","img/117/3.5/2/bw/001.png","","","natural"
"","","","","","animation","143","1174366","0.0-143.0","1920x1080","","5631.90000000014","64.02","img/314/4/2/bw/001.png","","","natural"
"","","","","","animation","144","1185300","0.0-144.0","1920x1080","","10933.399999999907","53.84","img/314/3.5/2/bw/001.png","","","natural"
"","","","","","animation","145","1197236","0.0-145.0","1920x1080","","11932.59999999986","12.43","img/117/2.5/1/bw/001.png","","","natural"
"","","","","","animation","146","1203803","0.0-146.0","1920x1080","","6565.200000000186","85","img/238/2.5/2/bw/001.png","","","natural"
"","","","","","animation","147","1213876","0.0-147.0","1920x1080","","10071.399999999907","17","img/117/3.5/0.66667/bw/001.png","","","natural"
"","","","","","animation","148","1216587","0.0-148.0","1920x1080","","2710.6999999999534","24.87","img/117/4/0.66667/bw/001.png","","","natural"
"","","","","","animation","149","1219952","0.0-149.0","1920x1080","","3363.1999999999534","66.67","img/314/2.5/0.66667/bw/001.png","","","natural"
"","","","","","animation","150","1223076","0.0-150.0","1920x1080","","3123","84.39","img/238/2.5/1.5/bw/001.png","","","natural"
"","","","","","animation","151","1234276","0.0-151.0","1920x1080","","11198.899999999907","80.03","img/314/4/1.5/bw/001.png","","","natural"
"","","","","","animation","152","1241384","0.0-152.0","1920x1080","","7107.800000000047","57.14","img/238/4/1/bw/001.png","","","natural"
"","","","","","animation","153","1245485","0.0-153.0","1920x1080","","4099.199999999953","75.53","img/117/2.5/1.5/bw/001.png","","","natural"
"","","","","","animation","154","1248414","0.0-154.0","1920x1080","","2926.100000000093","75","img/314/4.5/2/bw/001.png","","","natural"
"","","","","","animation","155","1252822","0.0-155.0","1920x1080","","4406.699999999953","46.56","img/238/4.5/0.5/bw/001.png","","","natural"
"","","","","","animation","156","1260073","0.0-156.0","1920x1080","","7248.800000000047","54.37","img/238/4/2/bw/001.png","","","natural"
"","","","","","animation","157","1267022","0.0-157.0","1920x1080","","6947.40000000014","9.66","img/117/2.5/2/bw/001.png","","","natural"
"","","","","","animation","158","1269710","0.0-158.0","1920x1080","","2686.4000000001397","67.72","img/238/3.5/1/bw/001.png","","","natural"
"","","","","","html-button-response","159","1293599","0.0-159.0","1920x1080","","23887","","<div class=""intro"">You are about to view a new series of animations.<br><br></div><div class=""intro"">You will evaluate them based on a different descriptor.<br><br></div><div class=""intro"">Move the slider to indicate how <strong style=""text-transform:capitalize"">INTERESTING</strong> you find each animation.<br><br></div><div class=""intro"">0 = Least Interesting<br></div><div class=""intro"">1 = Most Interesting<br><br></div><div class=""intro"">Remember to use the <strong><em>entire range</em></strong> of the slider to make your ratings.<br></div><div class=""intro"">Please <strong><em>take your time</em></strong> and carefully consider each rating you make.<br><br></div>","0","",""
"","","","","","call-function","160","1293602","0.0-160.0","1920x1080","","","","","","",""
"","","","","","animation","161","1301199","0.0-161.0","1920x1080","","7595.799999999814","83","img/238/5.5/0.5/bw/001.png","","","interesting"
"","","","","","animation","162","1309465","0.0-162.0","1920x1080","","8254.40000000014","27.38","img/314/4.5/1/bw/001.png","","","interesting"
"","","","","","animation","163","1312225","0.0-163.0","1920x1080","","2759.5","28","img/238/2.5/0.66667/bw/001.png","","","interesting"
"","","","","","animation","164","1314731","0.0-164.0","1920x1080","","2504.899999999907","19.31","img/117/3.5/1.5/bw/001.png","","","interesting"
"","","","","","animation","165","1317417","0.0-165.0","1920x1080","","2684","24.21","img/117/2.5/2/bw/001.png","","","interesting"
"","","","","","animation","166","1320025","0.0-166.0","1920x1080","","2607.2999999998137","38.23","img/314/3.5/0.5/bw/001.png","","","interesting"
"","","","","","animation","167","1324121","0.0-167.0","1920x1080","","4095.5","40.21","img/117/3.5/0.5/bw/001.png","","","interesting"
"","","","","","animation","168","1334673","0.0-168.0","1920x1080","","10551.09999999986","35.71","img/314/4.5/0.5/bw/001.png","","","interesting"
"","","","","","animation","169","1347209","0.0-169.0","1920x1080","","12533.600000000093","79.89","img/238/5.5/0.66667/bw/001.png","","","interesting"
"","","","","","animation","170","1350782","0.0-170.0","1920x1080","","3570.5","83.20","img/117/4.5/2/bw/001.png","","","interesting"
"","","","","","animation","171","1354598","0.0-171.0","1920x1080","","3815","86.24","img/238/5.5/1/bw/001.png","","","interesting"
"","","","","","animation","172","1359801","0.0-172.0","1920x1080","","5201.799999999814","74.07","img/314/5.5/0.66667/bw/001.png","","","interesting"
"","","","","","animation","173","1364149","0.0-173.0","1920x1080","","4347.600000000093","63.76","img/314/4.5/1.5/bw/001.png","","","interesting"
"","","","","","animation","174","1378909","0.0-174.0","1920x1080","","14763.300000000047","91.53","img/314/5.5/1/bw/001.png","","","interesting"
"","","","","","animation","175","1395143","0.0-175.0","1920x1080","","16232.399999999907","90.34","img/117/5.5/0.66667/bw/001.png","","","interesting"
"","","","","","animation","176","1408743","0.0-176.0","1920x1080","","13600","25.00","img/117/4.5/0.5/bw/001.png","","","interesting"
"","","","","","animation","177","1431424","0.0-177.0","1920x1080","","22680.200000000186","20.11","img/238/2.5/0.5/bw/001.png","","","interesting"
"","","","","","animation","178","1448515","0.0-178.0","1920x1080","","17089.40000000014","14","img/117/4/2/bw/001.png","","","interesting"
"","","","","","animation","179","1486274","0.0-179.0","1920x1080","","37756.69999999995","71.30","img/314/5.5/1.5/bw/001.png","","","interesting"
"","","","","","animation","180","1500549","0.0-180.0","1920x1080","","14271.09999999986","81.35","img/314/4.5/0.66667/bw/001.png","","","interesting"
"","","","","","animation","181","1504917","0.0-181.0","1920x1080","","4365.899999999907","10.32","img/238/2.5/2/bw/001.png","","","interesting"
"","","","","","animation","182","1510765","0.0-182.0","1920x1080","","5846.799999999814","62.30","img/238/4/1.5/bw/001.png","","","interesting"
"","","","","","animation","183","1514060","0.0-183.0","1920x1080","","3294.600000000093","3.84","img/314/2.5/1.5/bw/001.png","","","interesting"
"","","","","","animation","184","1528410","0.0-184.0","1920x1080","","14347.800000000047","62.17","img/238/4/1/bw/001.png","","","interesting"
"","","","","","animation","185","1548308","0.0-185.0","1920x1080","","19898.40000000014","60","img/314/5.5/2/bw/001.png","","","interesting"
"","","","","","animation","186","1568908","0.0-186.0","1920x1080","","20598.59999999986","76.32","img/117/5.5/0.5/bw/001.png","","","interesting"
"","","","","","animation","187","1576640","0.0-187.0","1920x1080","","7727.5","17.20","img/117/2.5/1/bw/001.png","","","interesting"
"","","","","","animation","188","1580467","0.0-188.0","1920x1080","","3825.600000000093","12.43","img/314/3.5/2/bw/001.png","","","interesting"
"","","","","","animation","189","1586827","0.0-189.0","1920x1080","","6357.700000000186","49.74","img/117/4.5/1/bw/001.png","","","interesting"
"","","","","","animation","190","1592459","0.0-190.0","1920x1080","","5630.600000000093","46.03","img/238/4.5/2/bw/001.png","","","interesting"
"","","","","","animation","191","1607993","0.0-191.0","1920x1080","","15531","79.76","img/238/4.5/0.5/bw/001.png","","","interesting"
"","","","","","animation","192","1618243","0.0-192.0","1920x1080","","10248.5","24.34","img/314/4/0.5/bw/001.png","","","interesting"
"","","","","","animation","193","1622911","0.0-193.0","1920x1080","","4666.800000000047","82.94","img/117/5.5/1.5/bw/001.png","","","interesting"
"","","","","","animation","194","1626917","0.0-194.0","1920x1080","","4005.2000000001863","7.67","img/314/2.5/0.5/bw/001.png","","","interesting"
"","","","","","animation","195","1640126","0.0-195.0","1920x1080","","13207.899999999907","70.11","img/314/5.5/0.5/bw/001.png","","","interesting"
"","","","","","animation","196","1648259","0.0-196.0","1920x1080","","8131.200000000186","19","img/238/4/0.66667/bw/001.png","","","interesting"
"","","","","","animation","197","1651093","0.0-197.0","1920x1080","","2832.6999999999534","51.46","img/238/4.5/1.5/bw/001.png","","","interesting"
"","","","","","animation","198","1657333","0.0-198.0","1920x1080","","6239.5","47","img/314/4/0.66667/bw/001.png","","","interesting"
"","","","","","animation","199","1666397","0.0-199.0","1920x1080","","9062.800000000047","12","img/314/2.5/1/bw/001.png","","","interesting"
"","","","","","animation","200","1669228","0.0-200.0","1920x1080","","2830.4000000001397","16.67","img/117/5.5/2/bw/001.png","","","interesting"
"","","","","","animation","201","1682308","0.0-201.0","1920x1080","","13078.800000000047","44.44","img/117/4/1.5/bw/001.png","","","interesting"
"","","","","","animation","202","1694100","0.0-202.0","1920x1080","","11790.800000000047","47.62","img/117/3.5/2/bw/001.png","","","interesting"
"","","","","","animation","203","1704208","0.0-203.0","1920x1080","","10106.299999999814","45.63","img/238/3.5/0.66667/bw/001.png","","","interesting"
"","","","","","animation","204","1706874","0.0-204.0","1920x1080","","2664.9000000001397","46.43","img/117/3.5/1/bw/001.png","","","interesting"
"","","","","","animation","205","1720991","0.0-205.0","1920x1080","","14116.199999999953","44.71","img/117/4/1/bw/001.png","","","interesting"
"","","","","","animation","206","1730540","0.0-206.0","1920x1080","","9548.800000000047","21.30","img/314/4/1.5/bw/001.png","","","interesting"
"","","","","","animation","207","1737440","0.0-207.0","1920x1080","","6898.899999999907","68","img/238/5.5/1.5/bw/001.png","","","interesting"
"","","","","","animation","208","1744440","0.0-208.0","1920x1080","","6998.699999999953","71","img/314/3.5/1.5/bw/001.png","","","interesting"
"","","","","","animation","209","1749979","0.0-209.0","1920x1080","","5537.800000000047","76.32","img/238/4.5/0.66667/bw/001.png","","","interesting"
"","","","","","animation","210","1755107","0.0-210.0","1920x1080","","5126.399999999907","21.43","img/117/3.5/0.66667/bw/001.png","","","interesting"
"","","","","","animation","211","1758290","0.0-211.0","1920x1080","","3181","23.15","img/314/2.5/0.66667/bw/001.png","","","interesting"
"","","","","","animation","212","1779272","0.0-212.0","1920x1080","","20981.600000000093","12.04","img/238/2.5/1/bw/001.png","","","interesting"
"","","","","","animation","213","1782115","0.0-213.0","1920x1080","","2839.8000000000466","16.93","img/117/2.5/0.66667/bw/001.png","","","interesting"
"","","","","","animation","214","1784027","0.0-214.0","1920x1080","","1910.6000000000931","18","img/314/2.5/2/bw/001.png","","","interesting"
"","","","","","animation","215","1787517","0.0-215.0","1920x1080","","3487.2999999998137","35.98","img/314/4/1/bw/001.png","","","interesting"
"","","","","","animation","216","1789732","0.0-216.0","1920x1080","","2213.7999999998137","49.87","img/238/3.5/0.5/bw/001.png","","","interesting"
"","","","","","animation","217","1800032","0.0-217.0","1920x1080","","10299.100000000093","66","img/117/5.5/1/bw/001.png","","","interesting"
"","","","","","animation","218","1804765","0.0-218.0","1920x1080","","4731.300000000047","14.81","img/238/3.5/1.5/bw/001.png","","","interesting"
"","","","","","animation","219","1812341","0.0-219.0","1920x1080","","7575.5","15.48","img/314/4/2/bw/001.png","","","interesting"
"","","","","","animation","220","1814749","0.0-220.0","1920x1080","","2403.8000000000466","16.27","img/238/4/2/bw/001.png","","","interesting"
"","","","","","animation","221","1818305","0.0-221.0","1920x1080","","3554.8000000000466","24.21","img/238/4.5/1/bw/001.png","","","interesting"
"","","","","","animation","222","1821244","0.0-222.0","1920x1080","","2938.2999999998137","26.32","img/117/4/0.5/bw/001.png","","","interesting"
"","","","","","animation","223","1825316","0.0-223.0","1920x1080","","4070.8000000000466","45.50","img/238/3.5/1/bw/001.png","","","interesting"
"","","","","","animation","224","1828876","0.0-224.0","1920x1080","","3557.5999999998603","42.46","img/314/3.5/0.66667/bw/001.png","","","interesting"
"","","","","","animation","225","1835660","0.0-225.0","1920x1080","","6782.600000000093","44.31","img/238/4/0.5/bw/001.png","","","interesting"
"","","","","","animation","226","1837749","0.0-226.0","1920x1080","","2087","27.65","img/117/2.5/0.5/bw/001.png","","","interesting"
"","","","","","animation","227","1843581","0.0-227.0","1920x1080","","5831","30.56","img/117/4/0.66667/bw/001.png","","","interesting"
"","","","","","animation","228","1846101","0.0-228.0","1920x1080","","2518.6999999999534","23.94","img/238/2.5/1.5/bw/001.png","","","interesting"
"","","","","","animation","229","1848300","0.0-229.0","1920x1080","","2198.6999999999534","30.69","img/117/4.5/1.5/bw/001.png","","","interesting"
"","","","","","animation","230","1850225","0.0-230.0","1920x1080","","1923.0999999998603","21.56","img/117/4.5/0.66667/bw/001.png","","","interesting"
"","","","","","animation","231","1853612","0.0-231.0","1920x1080","","3386.1999999999534","37.96","img/314/3.5/1/bw/001.png","","","interesting"
"","","","","","animation","232","1859876","0.0-232.0","1920x1080","","6262.399999999907","80.95","img/314/4.5/2/bw/001.png","","","interesting"
"","","","","","animation","233","1865591","0.0-233.0","1920x1080","","5713.800000000047","54.50","img/238/3.5/2/bw/001.png","","","interesting"
"","","","","","animation","234","1880467","0.0-234.0","1920x1080","","14874","25.13","img/238/5.5/2/bw/001.png","","","interesting"
"","","","","","animation","235","1892824","0.0-235.0","1920x1080","","12355.199999999953","32.14","img/117/2.5/1.5/bw/001.png","","","interesting"
"","","","","","html-button-response","236","1912554","0.0-236.0","1920x1080","","19722.100000000093","","<div class=""intro"">You are about to view a new series of animations.<br><br></div><div class=""intro"">You will evaluate them based on a different descriptor.<br><br></div><div class=""intro"">Move the slider to indicate how <strong style=""text-transform:capitalize"">RELAXING</strong> you find each animation.<br><br></div><div class=""intro"">0 = Least Relaxing<br></div><div class=""intro"">1 = Most Relaxing<br><br></div><div class=""intro"">Remember to use the <strong><em>entire range</em></strong> of the slider to make your ratings.<br></div><div class=""intro"">Please <strong><em>take your time</em></strong> and carefully consider each rating you make.<br><br></div>","0","",""
"","","","","","call-function","237","1912555","0.0-237.0","1920x1080","","","","","","",""
"","","","","","animation","238","1922397","0.0-238.0","1920x1080","","9840.699999999953","38.62","img/314/3.5/2/bw/001.png","","","relaxing"
"","","","","","animation","239","1924963","0.0-239.0","1920x1080","","2565.100000000093","25.26","img/314/3.5/1/bw/001.png","","","relaxing"
"","","","","","animation","240","1927047","0.0-240.0","1920x1080","","2082.3000000000466","8.20","img/117/2.5/0.66667/bw/001.png","","","relaxing"
"","","","","","animation","241","1929266","0.0-241.0","1920x1080","","2217.8000000000466","14","img/238/4.5/1.5/bw/001.png","","","relaxing"
"","","","","","animation","242","1932124","0.0-242.0","1920x1080","","2856.5","63.76","img/314/5.5/1.5/bw/001.png","","","relaxing"
"","","","","","animation","243","1934330","0.0-243.0","1920x1080","","2203.5","39.81","img/314/4.5/1/bw/001.png","","","relaxing"
"","","","","","animation","244","1936554","0.0-244.0","1920x1080","","2223.1999999999534","22.35","img/314/3.5/0.5/bw/001.png","","","relaxing"
"","","","","","animation","245","1942180","0.0-245.0","1920x1080","","5624.800000000047","46","img/238/5.5/0.5/bw/001.png","","","relaxing"
"","","","","","animation","246","1947030","0.0-246.0","1920x1080","","4848.800000000047","86.11","img/117/4.5/2/bw/001.png","","","relaxing"
"","","","","","animation","247","1958164","0.0-247.0","1920x1080","","11131.899999999907","25","img/117/5.5/0.5/bw/001.png","","","relaxing"
"","","","","","animation","248","1971810","0.0-248.0","1920x1080","","13653.199999999953","57.80","img/314/4/1.5/bw/001.png","","","relaxing"
"","","","","","animation","249","1977555","0.0-249.0","1920x1080","","5744","82.01","img/314/5.5/1/bw/001.png","","","relaxing"
"","","","","","animation","250","1986010","0.0-250.0","1920x1080","","8453.800000000047","12.30","img/314/2.5/0.66667/bw/001.png","","","relaxing"
"","","","","","animation","251","1989842","0.0-251.0","1920x1080","","3829.7000000001863","51.46","img/314/5.5/0.5/bw/001.png","","","relaxing"
"","","","","","animation","252","1993890","0.0-252.0","1920x1080","","4046.399999999907","70.37","img/238/3.5/1.5/bw/001.png","","","relaxing"
"","","","","","animation","253","2000505","0.0-253.0","1920x1080","","6614.199999999721","30.56","img/238/2.5/0.66667/bw/001.png","","","relaxing"
"","","","","","animation","254","2003826","0.0-254.0","1920x1080","","3319.2999999998137","12.43","img/314/2.5/2/bw/001.png","","","relaxing"
"","","","","","animation","255","2021042","0.0-255.0","1920x1080","","17214.700000000186","34.13","img/238/4/1/bw/001.png","","","relaxing"
"","","","","","animation","256","2028608","0.0-256.0","1920x1080","","7565","17.86","img/238/2.5/1/bw/001.png","","","relaxing"
"","","","","","animation","257","2034226","0.0-257.0","1920x1080","","5616.700000000186","25.13","img/314/4/0.66667/bw/001.png","","","relaxing"
"","","","","","animation","258","2037188","0.0-258.0","1920x1080","","2960.7000000001863","20.11","img/117/4.5/0.5/bw/001.png","","","relaxing"
"","","","","","animation","259","2054077","0.0-259.0","1920x1080","","16887.799999999814","13.23","img/238/4.5/2/bw/001.png","","","relaxing"
"","","","","","animation","260","2056778","0.0-260.0","1920x1080","","2698.9000000003725","23.02","img/238/3.5/1/bw/001.png","","","relaxing"
"","","","","","animation","261","2058977","0.0-261.0","1920x1080","","2198.399999999907","17.20","img/238/2.5/0.5/bw/001.png","","","relaxing"
"","","","","","animation","262","2061346","0.0-262.0","1920x1080","","2367.0999999996275","14.29","img/117/2.5/0.5/bw/001.png","","","relaxing"
"","","","","","animation","263","2064043","0.0-263.0","1920x1080","","2696","10.85","img/117/3.5/2/bw/001.png","","","relaxing"
"","","","","","animation","264","2079154","0.0-264.0","1920x1080","","15109.299999999814","16.93","img/238/4/0.66667/bw/001.png","","","relaxing"
"","","","","","animation","265","2094890","0.0-265.0","1920x1080","","15733.69999999972","16.53","img/117/3.5/0.66667/bw/001.png","","","relaxing"
"","","","","","animation","266","2098105","0.0-266.0","1920x1080","","3213.100000000093","86.77","img/117/5.5/2/bw/001.png","","","relaxing"
"","","","","","animation","267","2100797","0.0-267.0","1920x1080","","2691.5999999996275","86.11","img/238/5.5/1/bw/001.png","","","relaxing"
"","","","","","animation","268","2126458","0.0-268.0","1920x1080","","25659.400000000373","19.84","img/238/4/1.5/bw/001.png","","","relaxing"
"","","","","","animation","269","2128672","0.0-269.0","1920x1080","","2209","7.01","img/117/2.5/2/bw/001.png","","","relaxing"
"","","","","","animation","270","2131489","0.0-270.0","1920x1080","","2816.100000000093","4.63","img/314/2.5/0.5/bw/001.png","","","relaxing"
"","","","","","animation","271","2133810","0.0-271.0","1920x1080","","2319.7000000001863","7.28","img/314/2.5/1/bw/001.png","","","relaxing"
"","","","","","animation","272","2139822","0.0-272.0","1920x1080","","6010.600000000093","66.93","img/314/4/1/bw/001.png","","","relaxing"
"","","","","","animation","273","2145588","0.0-273.0","1920x1080","","5763.899999999907","45.77","img/117/4.5/0.66667/bw/001.png","","","relaxing"
"","","","","","animation","274","2154218","0.0-274.0","1920x1080","","8632.399999999907","10","img/117/2.5/1.5/bw/001.png","","","relaxing"
"","","","","","animation","275","2157839","0.0-275.0","1920x1080","","3619.0999999996275","91.67","img/117/5.5/1.5/bw/001.png","","","relaxing"
"","","","","","animation","276","2173588","0.0-276.0","1920x1080","","15748.399999999907","17.99","img/117/4/0.5/bw/001.png","","","relaxing"
"","","","","","animation","277","2176791","0.0-277.0","1920x1080","","3200.899999999907","28.84","img/314/4.5/0.66667/bw/001.png","","","relaxing"
"","","","","","animation","278","2179502","0.0-278.0","1920x1080","","2710.2999999998137","20.77","img/238/4.5/0.5/bw/001.png","","","relaxing"
"","","","","","animation","279","2189870","0.0-279.0","1920x1080","","10366.80000000028","18.92","img/314/4.5/0.5/bw/001.png","","","relaxing"
"","","","","","animation","280","2193518","0.0-280.0","1920x1080","","3646","14.55","img/314/2.5/1.5/bw/001.png","","","relaxing"
"","","","","","animation","281","2197256","0.0-281.0","1920x1080","","3735.7999999998137","25","img/238/4.5/0.66667/bw/001.png","","","relaxing"
"","","","","","animation","282","2199876","0.0-282.0","1920x1080","","2617.399999999907","10.98","img/238/2.5/2/bw/001.png","","","relaxing"
"","","","","","animation","283","2204689","0.0-283.0","1920x1080","","4812","96","img/314/5.5/2/bw/001.png","","","relaxing"
"","","","","","animation","284","2208135","0.0-284.0","1920x1080","","3443.5","80.56","img/117/4.5/1/bw/001.png","","","relaxing"
"","","","","","animation","285","2215335","0.0-285.0","1920x1080","","7198.800000000279","47.09","img/314/4/0.5/bw/001.png","","","relaxing"
"","","","","","animation","286","2225568","0.0-286.0","1920x1080","","10232","76.85","img/238/3.5/2/bw/001.png","","","relaxing"
"","","","","","animation","287","2249839","0.0-287.0","1920x1080","","24269.200000000186","86.38","img/314/4/2/bw/001.png","","","relaxing"
"","","","","","animation","288","2267238","0.0-288.0","1920x1080","","17398.799999999814","35.58","img/314/3.5/0.66667/bw/001.png","","","relaxing"
"","","","","","animation","289","2275390","0.0-289.0","1920x1080","","8150.0999999996275","65.21","img/117/2.5/1/bw/001.png","","","relaxing"
"","","","","","animation","290","2286303","0.0-290.0","1920x1080","","10911.600000000093","16.80","img/238/3.5/0.5/bw/001.png","","","relaxing"
"","","","","","animation","291","2297454","0.0-291.0","1920x1080","","11149.899999999907","81","img/117/3.5/1/bw/001.png","","","relaxing"
"","","","","","animation","292","2310410","0.0-292.0","1920x1080","","12955.200000000186","81.75","img/314/5.5/0.66667/bw/001.png","","","relaxing"
"","","","","","animation","293","2323128","0.0-293.0","1920x1080","","12716.299999999814","16.40","img/117/3.5/0.5/bw/001.png","","","relaxing"
"","","","","","animation","294","2325249","0.0-294.0","1920x1080","","2119.5999999996275","17.33","img/314/3.5/1.5/bw/001.png","","","relaxing"
"","","","","","animation","295","2332387","0.0-295.0","1920x1080","","7139.299999999814","82","img/314/4.5/2/bw/001.png","","","relaxing"
"","","","","","animation","296","2352619","0.0-296.0","1920x1080","","20229.100000000093","80","img/117/4.5/1.5/bw/001.png","","","relaxing"
"","","","","","animation","297","2362051","0.0-297.0","1920x1080","","9430.80000000028","81.61","img/238/4.5/1/bw/001.png","","","relaxing"
"","","","","","animation","298","2374716","0.0-298.0","1920x1080","","12663.299999999814","72.75","img/117/4/2/bw/001.png","","","relaxing"
"","","","","","animation","299","2391997","0.0-299.0","1920x1080","","17278.80000000028","79.76","img/117/4/1.5/bw/001.png","","","relaxing"
"","","","","","animation","300","2394948","0.0-300.0","1920x1080","","2949.5","76.98","img/314/4.5/1.5/bw/001.png","","","relaxing"
"","","","","","animation","301","2397148","0.0-301.0","1920x1080","","2198.5","26.98","img/117/4/1/bw/001.png","","","relaxing"
"","","","","","animation","302","2399381","0.0-302.0","1920x1080","","2232.100000000093","5.95","img/238/4/0.5/bw/001.png","","","relaxing"
"","","","","","animation","303","2401981","0.0-303.0","1920x1080","","2598.7000000001863","82","img/117/3.5/1.5/bw/001.png","","","relaxing"
"","","","","","animation","304","2404347","0.0-304.0","1920x1080","","2365","12.04","img/238/3.5/0.66667/bw/001.png","","","relaxing"
"","","","","","animation","305","2409030","0.0-305.0","1920x1080","","4681.399999999907","8","img/238/5.5/2/bw/001.png","","","relaxing"
"","","","","","animation","306","2418149","0.0-306.0","1920x1080","","9116.69999999972","84.26","img/238/5.5/1.5/bw/001.png","","","relaxing"
"","","","","","animation","307","2424890","0.0-307.0","1920x1080","","6739.100000000093","9.52","img/117/5.5/0.66667/bw/001.png","","","relaxing"
"","","","","","animation","308","2432205","0.0-308.0","1920x1080","","7313.399999999907","79.76","img/238/5.5/0.66667/bw/001.png","","","relaxing"
"","","","","","animation","309","2438398","0.0-309.0","1920x1080","","6190.600000000093","10.85","img/117/5.5/1/bw/001.png","","","relaxing"
"","","","","","animation","310","2442748","0.0-310.0","1920x1080","","4348.200000000186","13","img/117/4/0.66667/bw/001.png","","","relaxing"
"","","","","","animation","311","2447982","0.0-311.0","1920x1080","","5232.5","11.77","img/238/4/2/bw/001.png","","","relaxing"
"","","","","","animation","312","2450468","0.0-312.0","1920x1080","","2484.899999999907","6","img/238/2.5/1.5/bw/001.png","","","relaxing"
"","","","","","html-button-response","313","2469366","0.0-313.0","1920x1080","","18896","","<div class=""intro"">You are about to view a new series of animations.<br><br></div><div class=""intro"">You will evaluate them based on a different descriptor.<br><br></div><div class=""intro"">Move the slider to indicate how <strong style=""text-transform:capitalize"">APPEALING</strong> you find each animation.<br><br></div><div class=""intro"">0 = Least Appealing<br></div><div class=""intro"">1 = Most Appealing<br><br></div><div class=""intro"">Remember to use the <strong><em>entire range</em></strong> of the slider to make your ratings.<br></div><div class=""intro"">Please <strong><em>take your time</em></strong> and carefully consider each rating you make.<br><br></div>","0","",""
"","","","","","call-function","314","2469367","0.0-314.0","1920x1080","","","","","","",""
"","","","","","animation","315","2478420","0.0-315.0","1920x1080","","9052.600000000093","46.03","img/314/5.5/0.5/bw/001.png","","","appealing"
"","","","","","animation","316","2481501","0.0-316.0","1920x1080","","3079","18.25","img/238/3.5/2/bw/001.png","","","appealing"
"","","","","","animation","317","2485297","0.0-317.0","1920x1080","","3795","35.45","img/117/5.5/1/bw/001.png","","","appealing"
"","","","","","animation","318","2489253","0.0-318.0","1920x1080","","3955.100000000093","83.33","img/314/5.5/2/bw/001.png","","","appealing"
"","","","","","animation","319","2494346","0.0-319.0","1920x1080","","5090.9000000003725","41.53","img/238/5.5/2/bw/001.png","","","appealing"
"","","","","","animation","320","2498684","0.0-320.0","1920x1080","","4337.199999999721","8.99","img/117/2.5/0.5/bw/001.png","","","appealing"
"","","","","","animation","321","2503162","0.0-321.0","1920x1080","","4476","27.38","img/238/2.5/1/bw/001.png","","","appealing"
"","","","","","animation","322","2508363","0.0-322.0","1920x1080","","5198.700000000186","20.11","img/117/2.5/1.5/bw/001.png","","","appealing"
"","","","","","animation","323","2514539","0.0-323.0","1920x1080","","6174.899999999907","14.42","img/238/2.5/0.66667/bw/001.png","","","appealing"
"","","","","","animation","324","2518152","0.0-324.0","1920x1080","","3610.7000000001863","62.96","img/314/4/1/bw/001.png","","","appealing"
"","","","","","animation","325","2521389","0.0-325.0","1920x1080","","3235.7000000001863","20.24","img/238/4/0.5/bw/001.png","","","appealing"
"","","","","","animation","326","2530765","0.0-326.0","1920x1080","","9375.399999999907","37.04","img/314/3.5/2/bw/001.png","","","appealing"
"","","","","","animation","327","2533205","0.0-327.0","1920x1080","","2437.600000000093","23.81","img/314/3.5/1/bw/001.png","","","appealing"
"","","","","","animation","328","2535319","0.0-328.0","1920x1080","","2112.7000000001863","10.19","img/117/4/0.5/bw/001.png","","","appealing"
"","","","","","animation","329","2546741","0.0-329.0","1920x1080","","11420.30000000028","15","img/314/2.5/0.66667/bw/001.png","","","appealing"
"","","","","","animation","330","2554798","0.0-330.0","1920x1080","","8055.799999999814","21.30","img/314/4/2/bw/001.png","","","appealing"
"","","","","","animation","331","2564487","0.0-331.0","1920x1080","","9687.899999999907","10.71","img/314/2.5/1.5/bw/001.png","","","appealing"
"","","","","","animation","332","2566384","0.0-332.0","1920x1080","","1895.8999999999069","75","img/117/5.5/0.66667/bw/001.png","","","appealing"
"","","","","","animation","333","2568282","0.0-333.0","1920x1080","","1899.7000000001863","11.11","img/117/4/0.66667/bw/001.png","","","appealing"
"","","","","","animation","334","2571403","0.0-334.0","1920x1080","","3119.7000000001863","19.31","img/314/3.5/0.5/bw/001.png","","","appealing"
"","","","","","animation","335","2573362","0.0-335.0","1920x1080","","1957.6000000000931","21.83","img/238/4/0.66667/bw/001.png","","","appealing"
"","","","","","animation","336","2582834","0.0-336.0","1920x1080","","9470.900000000373","60","img/117/5.5/0.5/bw/001.png","","","appealing"
"","","","","","animation","337","2584795","0.0-337.0","1920x1080","","1959","6.61","img/314/2.5/2/bw/001.png","","","appealing"
"","","","","","animation","338","2586753","0.0-338.0","1920x1080","","1957.2999999998137","15.08","img/117/4.5/1.5/bw/001.png","","","appealing"
"","","","","","animation","339","2589188","0.0-339.0","1920x1080","","2433.2999999998137","17.72","img/314/4.5/0.66667/bw/001.png","","","appealing"
"","","","","","animation","340","2591395","0.0-340.0","1920x1080","","2205.399999999907","63.36","img/314/5.5/1.5/bw/001.png","","","appealing"
"","","","","","animation","341","2593536","0.0-341.0","1920x1080","","2139.399999999907","46.16","img/314/4.5/2/bw/001.png","","","appealing"
"","","","","","animation","342","2595578","0.0-342.0","1920x1080","","2040.8999999999069","25.00","img/314/4/1.5/bw/001.png","","","appealing"
"","","","","","animation","343","2598629","0.0-343.0","1920x1080","","3049.0999999996275","83.99","img/238/4.5/2/bw/001.png","","","appealing"
"","","","","","animation","344","2609978","0.0-344.0","1920x1080","","11347.600000000093","21.03","img/117/4/1/bw/001.png","","","appealing"
"","","","","","animation","345","2618972","0.0-345.0","1920x1080","","8992.899999999907","17.20","img/314/4/0.66667/bw/001.png","","","appealing"
"","","","","","animation","346","2621463","0.0-346.0","1920x1080","","2490.100000000093","73.81","img/238/3.5/1/bw/001.png","","","appealing"
"","","","","","animation","347","2623562","0.0-347.0","1920x1080","","2097.2000000001863","16.27","img/314/3.5/0.66667/bw/001.png","","","appealing"
"","","","","","animation","348","2625767","0.0-348.0","1920x1080","","2203.6999999997206","22.35","img/238/4.5/1/bw/001.png","","","appealing"
"","","","","","animation","349","2628612","0.0-349.0","1920x1080","","2833.5","20.63","img/117/4/1.5/bw/001.png","","","appealing"
"","","","","","animation","350","2634278","0.0-350.0","1920x1080","","5664.5","14.68","img/238/4.5/1.5/bw/001.png","","","appealing"
"","","","","","animation","351","2637878","0.0-351.0","1920x1080","","3598.0999999996275","17.33","img/117/4/2/bw/001.png","","","appealing"
"","","","","","animation","352","2650505","0.0-352.0","1920x1080","","12625.700000000186","7.01","img/314/3.5/1.5/bw/001.png","","","appealing"
"","","","","","animation","353","2659662","0.0-353.0","1920x1080","","9154.899999999907","16.93","img/238/4/1/bw/001.png","","","appealing"
"","","","","","animation","354","2666764","0.0-354.0","1920x1080","","7100.5999999996275","70.63","img/238/5.5/0.66667/bw/001.png","","","appealing"
"","","","","","animation","355","2672366","0.0-355.0","1920x1080","","5601","27.25","img/117/4.5/1/bw/001.png","","","appealing"
"","","","","","animation","356","2674256","0.0-356.0","1920x1080","","1888.1999999997206","11.51","img/314/2.5/1/bw/001.png","","","appealing"
"","","","","","animation","357","2684492","0.0-357.0","1920x1080","","10233.200000000186","17.59","img/238/2.5/1.5/bw/001.png","","","appealing"
"","","","","","animation","358","2690483","0.0-358.0","1920x1080","","5998.5","16.93","img/238/2.5/2/bw/001.png","","","appealing"
"","","","","","animation","359","2698585","0.0-359.0","1920x1080","","8100.100000000093","63.49","img/117/5.5/2/bw/001.png","","","appealing"
"","","","","","animation","360","2701278","0.0-360.0","1920x1080","","2692.5","20.24","img/314/2.5/0.5/bw/001.png","","","appealing"
"","","","","","animation","361","2703946","0.0-361.0","1920x1080","","2666.399999999907","21.43","img/117/3.5/0.5/bw/001.png","","","appealing"
"","","","","","animation","362","2708476","0.0-362.0","1920x1080","","4529","78","img/238/5.5/1/bw/001.png","","","appealing"
"","","","","","animation","363","2711173","0.0-363.0","1920x1080","","2694.399999999907","32","img/238/3.5/0.5/bw/001.png","","","appealing"
"","","","","","animation","364","2713338","0.0-364.0","1920x1080","","2163.600000000093","16.40","img/117/2.5/2/bw/001.png","","","appealing"
"","","","","","animation","365","2717683","0.0-365.0","1920x1080","","4343.5","23.68","img/314/5.5/0.66667/bw/001.png","","","appealing"
"","","","","","animation","366","2719613","0.0-366.0","1920x1080","","1927.1000000000931","21.56","img/238/2.5/0.5/bw/001.png","","","appealing"
"","","","","","animation","367","2721563","0.0-367.0","1920x1080","","1948.2000000001863","26.32","img/117/3.5/1.5/bw/001.png","","","appealing"
"","","","","","animation","368","2723563","0.0-368.0","1920x1080","","1999.3999999999069","32.80","img/238/4/1.5/bw/001.png","","","appealing"
"","","","","","animation","369","2725723","0.0-369.0","1920x1080","","2158.6999999997206","19.18","img/238/3.5/1.5/bw/001.png","","","appealing"
"","","","","","animation","370","2729363","0.0-370.0","1920x1080","","3638.2000000001863","19.18","img/117/4.5/0.66667/bw/001.png","","","appealing"
"","","","","","animation","371","2731650","0.0-371.0","1920x1080","","2285.600000000093","18.12","img/238/4/2/bw/001.png","","","appealing"
"","","","","","animation","372","2734633","0.0-372.0","1920x1080","","2982.600000000093","29.10","img/238/4.5/0.5/bw/001.png","","","appealing"
"","","","","","animation","373","2738958","0.0-373.0","1920x1080","","4321.899999999907","37.43","img/314/4.5/1.5/bw/001.png","","","appealing"
"","","","","","animation","374","2741179","0.0-374.0","1920x1080","","2218.899999999907","15.87","img/314/4/0.5/bw/001.png","","","appealing"
"","","","","","animation","375","2743295","0.0-375.0","1920x1080","","2115","12.70","img/314/4.5/1/bw/001.png","","","appealing"
"","","","","","animation","376","2745283","0.0-376.0","1920x1080","","1985.7999999998137","18.25","img/117/2.5/1/bw/001.png","","","appealing"
"","","","","","animation","377","2747843","0.0-377.0","1920x1080","","2561.2000000001863","73.54","img/117/3.5/2/bw/001.png","","","appealing"
"","","","","","animation","378","2749901","0.0-378.0","1920x1080","","2056.600000000093","23.28","img/238/3.5/0.66667/bw/001.png","","","appealing"
"","","","","","animation","379","2755881","0.0-379.0","1920x1080","","5978","61.64","img/238/5.5/0.5/bw/001.png","","","appealing"
"","","","","","animation","380","2758859","0.0-380.0","1920x1080","","2976.7999999998137","75.00","img/117/5.5/1.5/bw/001.png","","","appealing"
"","","","","","animation","381","2765379","0.0-381.0","1920x1080","","6518.800000000279","11.90","img/117/2.5/0.66667/bw/001.png","","","appealing"
"","","","","","animation","382","2769376","0.0-382.0","1920x1080","","3995.5","84","img/314/5.5/1/bw/001.png","","","appealing"
"","","","","","animation","383","2772682","0.0-383.0","1920x1080","","3303.5","74","img/238/5.5/1.5/bw/001.png","","","appealing"
"","","","","","animation","384","2775194","0.0-384.0","1920x1080","","2510.8000000002794","17.20","img/238/4.5/0.66667/bw/001.png","","","appealing"
"","","","","","animation","385","2779443","0.0-385.0","1920x1080","","4244","17.86","img/117/3.5/0.66667/bw/001.png","","","appealing"
"","","","","","animation","386","2782669","0.0-386.0","1920x1080","","3223.6999999997206","49.74","img/117/4.5/2/bw/001.png","","","appealing"
"","","","","","animation","387","2785421","0.0-387.0","1920x1080","","2751.100000000093","15.34","img/117/4.5/0.5/bw/001.png","","","appealing"
"","","","","","animation","388","2788336","0.0-388.0","1920x1080","","2913.600000000093","17.99","img/117/3.5/1/bw/001.png","","","appealing"
"","","","","","animation","389","2796002","0.0-389.0","1920x1080","","7665.100000000093","16.67","img/314/4.5/0.5/bw/001.png","","","appealing"
"","","","","","html-button-response","390","2889096","0.0-390.0","1920x1080","","93077.29999999981","","<strong>Study Debriefing</strong><br><p class=""debrief""><strong>Background:</strong> The patterns you rated are called <em>fractals</em>. The term fractal describes a class of irregular curves or shapes for which any suitably chosen part is similar in shape to a given larger or smaller part when magnified or reduced to the same size. Fractal properties are found throughout the natural and manmade world. The series of animations you saw today displayed animated fractal patterns of a varying complexity.</p><p class=""debrief""><strong>Purpose of this study:</strong> We hope to better understand how the perception of static fractals differs from the perception of animated fractals, and how the speed of the animated patterns influences people&apos;s perception of them. Fractals allow us to study the perception of aesthetic properties (e.g. the perceived level of beauty in an image) without using recognizable content, which makes them an excellent tool for studying abstract aesthetic judgement.</p><p class=""debrief""><strong>Your part:</strong> Your participation has helped us to further understand how humans perceive these patterns across different levels of speed and complexity. This research with allow us to better understand how the visual system and brain process our ever-changing visual environments.<p class=""debrief""><strong>Feedback and Further information:</strong> If you have additional questions about this study, please feel free to ask the researcher, Nathan Gonzales-Hess at nhess @ uoregon.edu. If you have any questions concerning your rights as a research participant, please contact Research Compliance Services, 5237 University of Oregon, Eugene, OR 97403, 541-346-2510, or email researchCompliance @ uoregon.edu. You can also email the Human Subjects Coordinator for psychology and linguistics research at hscoord @ uoregon.edu. ","0","",""
"","","","","","html-button-response","391","3017273","0.0-391.0","1920x1080","","128173.29999999981","","Thank you for participating in this study. <br>Please click below to finish the experiment and submit your responses.<br><br>","0","",""
"true","","","","","fullscreen","392","3018280","0.0-392.0","1920x1080","12:22 20/10/2022","","","","","",""
