"success","timeout","failed_images","failed_audio","failed_video","trial_type","trial_index","time_elapsed","internal_node_id","resolution","timeStamp","rt","response","stimulus","button_pressed","value","descriptor"
"true","false","[]","[]","[]","preload","0","5906","0.0-0.0","1920x1080","","","","","","",""
"true","false","[]","[]","[]","preload","1","11951","0.0-1.0","1920x1080","","","","","","",""
"true","false","[]","[]","[]","preload","2","17839","0.0-2.0","1920x1080","","","","","","",""
"true","","","","","fullscreen","3","84392581","0.0-3.0","1920x1080","12:33 10/10/2022","","","","","",""
"","","","","","survey-html-form","4","84403079","0.0-4.0","1920x1080","","10495.800000011921","{""age"":""21"",""gender"":""female""}","","","",""
"","","","","","html-button-response","5","84512168","0.0-5.0","1920x1080","","109086.59999996424","","<div class=""complex"">You are going to see a series of animations.<br><br></div><div class=""complex"">Move the slider to indicate how <strong style=""text-transform:capitalize"">COMPLEX</strong> you find each animation.<br><br></div><div class=""complex"">0 = Least Complex<br></div><div class=""complex"">1 = Most Complex<br><br></div><div class=""complex"">Remember to use the <strong><em>entire range</em></strong> of the slider to make your ratings.<br></div><div class=""complex"">Please <strong><em>take your time</em></strong> and carefully consider each rating you make.<br><br></div><div class=""complex"">The study has five sections and will take about 45 minutes to complete.<br><br></div>","0","",""
"","","","","","call-function","6","84512169","0.0-6.0","1920x1080","","","","","","",""
"","","","","","animation","7","84520537","0.0-7.0","1920x1080","","8364.800000011921","17.20","img/314/4.5/1.5/bw/001.png","","","complex"
"","","","","","animation","8","84524952","0.0-8.0","1920x1080","","4413.900000035763","24.34","img/117/2.5/1.5/bw/001.png","","","complex"
"","","","","","animation","9","84531184","0.0-9.0","1920x1080","","6231","16.27","img/314/5.5/1.5/bw/001.png","","","complex"
"","","","","","animation","10","84534855","0.0-10.0","1920x1080","","3670.800000011921","25.40","img/314/3.5/0.66667/bw/001.png","","","complex"
"","","","","","animation","11","84539864","0.0-11.0","1920x1080","","5007.599999964237","25.26","img/314/4/1/bw/001.png","","","complex"
"","","","","","animation","12","84544320","0.0-12.0","1920x1080","","4455.199999988079","23.94","img/314/4.5/1/bw/001.png","","","complex"
"","","","","","animation","13","84548407","0.0-13.0","1920x1080","","4086.7999999523163","24.21","img/117/3.5/2/bw/001.png","","","complex"
"","","","","","animation","14","84553096","0.0-14.0","1920x1080","","4687.5","29.63","img/117/3.5/0.66667/bw/001.png","","","complex"
"","","","","","animation","15","84556527","0.0-15.0","1920x1080","","3430.699999988079","24.60","img/314/4.5/0.66667/bw/001.png","","","complex"
"","","","","","animation","16","84560175","0.0-16.0","1920x1080","","3647.300000011921","30.69","img/117/3.5/0.5/bw/001.png","","","complex"
"","","","","","animation","17","84565568","0.0-17.0","1920x1080","","5391.200000047684","21.69","img/117/4.5/0.66667/bw/001.png","","","complex"
"","","","","","animation","18","84572824","0.0-18.0","1920x1080","","7254.899999976158","24.87","img/117/4/0.5/bw/001.png","","","complex"
"","","","","","animation","19","84593753","0.0-19.0","1920x1080","","20927.5","23.68","img/238/5.5/1/bw/001.png","","","complex"
"","","","","","animation","20","84603024","0.0-20.0","1920x1080","","9269.599999964237","20.11","img/238/4/0.5/bw/001.png","","","complex"
"","","","","","animation","21","84646040","0.0-21.0","1920x1080","","43015.10000002384","23","img/117/5.5/1.5/bw/001.png","","","complex"
"","","","","","animation","22","84652632","0.0-22.0","1920x1080","","6591.600000023842","51.19","img/314/2.5/0.5/bw/001.png","","","complex"
"","","","","","animation","23","84662344","0.0-23.0","1920x1080","","9710.699999988079","52.38","img/238/4.5/2/bw/001.png","","","complex"
"","","","","","animation","24","84674392","0.0-24.0","1920x1080","","12046.899999976158","24.74","img/238/5.5/0.66667/bw/001.png","","","complex"
"","","","","","animation","25","84684384","0.0-25.0","1920x1080","","9991.600000023842","28.44","img/238/2.5/1/bw/001.png","","","complex"
"","","","","","animation","26","84696522","0.0-26.0","1920x1080","","12135.400000035763","51.06","img/117/5.5/0.5/bw/001.png","","","complex"
"","","","","","animation","27","84716433","0.0-27.0","1920x1080","","19910.5","27.78","img/314/3.5/0.5/bw/001.png","","","complex"
"","","","","","animation","28","84724401","0.0-28.0","1920x1080","","7967.100000023842","17.59","img/314/4.5/2/bw/001.png","","","complex"
"","","","","","animation","29","84733722","0.0-29.0","1920x1080","","9319.800000011921","73.02","img/117/4/2/bw/001.png","","","complex"
"","","","","","animation","30","84748273","0.0-30.0","1920x1080","","14550.100000023842","36.51","img/117/5.5/2/bw/001.png","","","complex"
"","","","","","animation","31","84760114","0.0-31.0","1920x1080","","11839.199999988079","24.87","img/238/5.5/1.5/bw/001.png","","","complex"
"","","","","","animation","32","84764794","0.0-32.0","1920x1080","","4679.099999964237","24.21","img/238/3.5/1.5/bw/001.png","","","complex"
"","","","","","animation","33","84780466","0.0-33.0","1920x1080","","15671.099999964237","44.97","img/314/5.5/1/bw/001.png","","","complex"
"","","","","","animation","34","84794274","0.0-34.0","1920x1080","","13807.5","56.61","img/117/3.5/1/bw/001.png","","","complex"
"","","","","","animation","35","84800273","0.0-35.0","1920x1080","","5998.600000023842","61.11","img/314/4.5/0.5/bw/001.png","","","complex"
"","","","","","animation","36","84807089","0.0-36.0","1920x1080","","6815.400000035763","40","img/314/2.5/0.66667/bw/001.png","","","complex"
"","","","","","animation","37","84813202","0.0-37.0","1920x1080","","6111.699999988079","38","img/238/5.5/0.5/bw/001.png","","","complex"
"","","","","","animation","38","84816514","0.0-38.0","1920x1080","","3310.100000023842","37.83","img/238/4.5/1/bw/001.png","","","complex"
"","","","","","animation","39","84819546","0.0-39.0","1920x1080","","3031.5","24.87","img/117/2.5/0.66667/bw/001.png","","","complex"
"","","","","","animation","40","84826450","0.0-40.0","1920x1080","","6903.200000047684","54.10","img/314/3.5/2/bw/001.png","","","complex"
"","","","","","animation","41","84836202","0.0-41.0","1920x1080","","9751.199999988079","53.84","img/238/3.5/1/bw/001.png","","","complex"
"","","","","","animation","42","84845562","0.0-42.0","1920x1080","","9359.100000023842","61.24","img/314/5.5/2/bw/001.png","","","complex"
"","","","","","animation","43","84852986","0.0-43.0","1920x1080","","7423.5","42.20","img/117/4/0.66667/bw/001.png","","","complex"
"","","","","","animation","44","84861866","0.0-44.0","1920x1080","","8878.600000023842","16.40","img/314/4/2/bw/001.png","","","complex"
"","","","","","animation","45","84870810","0.0-45.0","1920x1080","","8943.300000011921","61.38","img/238/4/1/bw/001.png","","","complex"
"","","","","","animation","46","84889723","0.0-46.0","1920x1080","","18912.100000023842","35.58","img/314/5.5/0.5/bw/001.png","","","complex"
"","","","","","animation","47","84896346","0.0-47.0","1920x1080","","6622.199999988079","33","img/117/4.5/1.5/bw/001.png","","","complex"
"","","","","","animation","48","84919091","0.0-48.0","1920x1080","","22743.5","39.42","img/117/5.5/1/bw/001.png","","","complex"
"","","","","","animation","49","84927322","0.0-49.0","1920x1080","","8230.199999988079","55.95","img/314/4/1.5/bw/001.png","","","complex"
"","","","","","animation","50","84936978","0.0-50.0","1920x1080","","9655.599999964237","54.50","img/314/4/0.5/bw/001.png","","","complex"
"","","","","","animation","51","84944930","0.0-51.0","1920x1080","","7951.099999964237","33","img/238/4/1.5/bw/001.png","","","complex"
"","","","","","animation","52","84964826","0.0-52.0","1920x1080","","19895.19999998808","28","img/117/4.5/2/bw/001.png","","","complex"
"","","","","","animation","53","84971956","0.0-53.0","1920x1080","","7128.299999952316","26.19","img/238/4/2/bw/001.png","","","complex"
"","","","","","animation","54","84974962","0.0-54.0","1920x1080","","3005.199999988079","40.74","img/117/4.5/0.5/bw/001.png","","","complex"
"","","","","","animation","55","84979146","0.0-55.0","1920x1080","","4183.5","47","img/314/3.5/1/bw/001.png","","","complex"
"","","","","","animation","56","84984978","0.0-56.0","1920x1080","","5830.599999964237","44.71","img/117/4/1.5/bw/001.png","","","complex"
"","","","","","animation","57","84987810","0.0-57.0","1920x1080","","2831.5","17.06","img/117/2.5/1/bw/001.png","","","complex"
"","","","","","animation","58","84991715","0.0-58.0","1920x1080","","3903.300000011921","15","img/238/2.5/0.5/bw/001.png","","","complex"
"","","","","","animation","59","85003915","0.0-59.0","1920x1080","","12199.100000023842","56.08","img/238/4.5/0.66667/bw/001.png","","","complex"
"","","","","","animation","60","85008740","0.0-60.0","1920x1080","","4823.5","52.51","img/314/5.5/0.66667/bw/001.png","","","complex"
"","","","","","animation","61","85011491","0.0-61.0","1920x1080","","2750","17.72","img/117/2.5/0.5/bw/001.png","","","complex"
"","","","","","animation","62","85014675","0.0-62.0","1920x1080","","3183","21.30","img/238/2.5/1.5/bw/001.png","","","complex"
"","","","","","animation","63","85017508","0.0-63.0","1920x1080","","2831.900000035763","60.19","img/238/3.5/0.5/bw/001.png","","","complex"
"","","","","","animation","64","85022347","0.0-64.0","1920x1080","","4838.199999988079","56.88","img/314/3.5/1.5/bw/001.png","","","complex"
"","","","","","animation","65","85033947","0.0-65.0","1920x1080","","11598.800000011921","19.97","img/238/2.5/2/bw/001.png","","","complex"
"","","","","","animation","66","85072819","0.0-66.0","1920x1080","","38871.59999996424","48.41","img/117/4.5/1/bw/001.png","","","complex"
"","","","","","animation","67","85080507","0.0-67.0","1920x1080","","7687.300000011921","17.46","img/314/2.5/1/bw/001.png","","","complex"
"","","","","","animation","68","85083931","0.0-68.0","1920x1080","","3422.5","49.21","img/117/3.5/1.5/bw/001.png","","","complex"
"","","","","","animation","69","85112468","0.0-69.0","1920x1080","","28534.899999976158","46.83","img/238/4.5/1.5/bw/001.png","","","complex"
"","","","","","animation","70","85116191","0.0-70.0","1920x1080","","3721.699999988079","53.70","img/238/4.5/0.5/bw/001.png","","","complex"
"","","","","","animation","71","85119191","0.0-71.0","1920x1080","","2998.899999976158","17.33","img/238/2.5/0.66667/bw/001.png","","","complex"
"","","","","","animation","72","85121958","0.0-72.0","1920x1080","","2765.800000011921","52.12","img/238/3.5/2/bw/001.png","","","complex"
"","","","","","animation","73","85125211","0.0-73.0","1920x1080","","3252.5","59.26","img/314/4/0.66667/bw/001.png","","","complex"
"","","","","","animation","74","85131158","0.0-74.0","1920x1080","","5945.800000011921","56.75","img/117/4/1/bw/001.png","","","complex"
"","","","","","animation","75","85134268","0.0-75.0","1920x1080","","3108.599999964237","17","img/314/2.5/2/bw/001.png","","","complex"
"","","","","","animation","76","85146391","0.0-76.0","1920x1080","","12122.100000023842","98","img/238/5.5/2/bw/001.png","","","complex"
"","","","","","animation","77","85151006","0.0-77.0","1920x1080","","4614.199999988079","64.29","img/238/4/0.66667/bw/001.png","","","complex"
"","","","","","animation","78","85154564","0.0-78.0","1920x1080","","3556.5","76.46","img/117/5.5/0.66667/bw/001.png","","","complex"
"","","","","","animation","79","85158211","0.0-79.0","1920x1080","","3646.300000011921","17.99","img/117/2.5/2/bw/001.png","","","complex"
"","","","","","animation","80","85161958","0.0-80.0","1920x1080","","3745.300000011921","46.56","img/238/3.5/0.66667/bw/001.png","","","complex"
"","","","","","animation","81","85165174","0.0-81.0","1920x1080","","3215.199999988079","14.95","img/314/2.5/1.5/bw/001.png","","","complex"
"","","","","","html-button-response","82","85195348","0.0-82.0","1920x1080","","30172.400000035763","","<div class=""intro"">You are about to view a new series of animations.<br><br></div><div class=""intro"">You will evaluate them based on a different descriptor.<br><br></div><div class=""intro"">Move the slider to indicate how <strong style=""text-transform:capitalize"">RELAXING</strong> you find each animation.<br><br></div><div class=""intro"">0 = Least Relaxing<br></div><div class=""intro"">1 = Most Relaxing<br><br></div><div class=""intro"">Remember to use the <strong><em>entire range</em></strong> of the slider to make your ratings.<br></div><div class=""intro"">Please <strong><em>take your time</em></strong> and carefully consider each rating you make.<br><br></div>","0","",""
"","","","","","call-function","83","85195353","0.0-83.0","1920x1080","","","","","","",""
"","","","","","animation","84","85204395","0.0-84.0","1920x1080","","9041.800000011921","50.40","img/314/5.5/0.66667/bw/001.png","","","relaxing"
"","","","","","animation","85","85207774","0.0-85.0","1920x1080","","3377.800000011921","22.62","img/238/3.5/1/bw/001.png","","","relaxing"
"","","","","","animation","86","85214411","0.0-86.0","1920x1080","","6636.399999976158","96","img/314/5.5/2/bw/001.png","","","relaxing"
"","","","","","animation","87","85217747","0.0-87.0","1920x1080","","3334.5","1.19","img/238/2.5/0.5/bw/001.png","","","relaxing"
"","","","","","animation","88","85226957","0.0-88.0","1920x1080","","9208.5","34","img/117/4.5/0.66667/bw/001.png","","","relaxing"
"","","","","","animation","89","85231628","0.0-89.0","1920x1080","","4669.199999988079","26","img/314/4/0.66667/bw/001.png","","","relaxing"
"","","","","","animation","90","85236220","0.0-90.0","1920x1080","","4591.699999988079","23.94","img/314/4/1/bw/001.png","","","relaxing"
"","","","","","animation","91","85239758","0.0-91.0","1920x1080","","3536.100000023842","0.13","img/117/2.5/1/bw/001.png","","","relaxing"
"","","","","","animation","92","85247012","0.0-92.0","1920x1080","","7253","98","img/314/5.5/1.5/bw/001.png","","","relaxing"
"","","","","","animation","93","85253119","0.0-93.0","1920x1080","","6106.099999964237","1.59","img/238/2.5/0.66667/bw/001.png","","","relaxing"
"","","","","","animation","94","85257036","0.0-94.0","1920x1080","","3915.099999964237","25","img/238/3.5/0.66667/bw/001.png","","","relaxing"
"","","","","","animation","95","85260316","0.0-95.0","1920x1080","","3279","75.79","img/314/4.5/2/bw/001.png","","","relaxing"
"","","","","","animation","96","85264108","0.0-96.0","1920x1080","","3790.300000011921","0","img/314/2.5/0.66667/bw/001.png","","","relaxing"
"","","","","","animation","97","85271575","0.0-97.0","1920x1080","","7466.5","50","img/238/3.5/1.5/bw/001.png","","","relaxing"
"","","","","","animation","98","85277060","0.0-98.0","1920x1080","","5483.400000035763","95","img/238/5.5/2/bw/001.png","","","relaxing"
"","","","","","animation","99","85280341","0.0-99.0","1920x1080","","3280.199999988079","3.04","img/117/2.5/2/bw/001.png","","","relaxing"
"","","","","","animation","100","85284028","0.0-100.0","1920x1080","","3685.699999988079","17.86","img/314/4/0.5/bw/001.png","","","relaxing"
"","","","","","animation","101","85322437","0.0-101.0","1920x1080","","38406.89999997616","21.56","img/238/4.5/0.66667/bw/001.png","","","relaxing"
"","","","","","animation","102","85328676","0.0-102.0","1920x1080","","6238.199999988079","99","img/238/5.5/0.66667/bw/001.png","","","relaxing"
"","","","","","animation","103","85332581","0.0-103.0","1920x1080","","3903.300000011921","76.32","img/238/4.5/1.5/bw/001.png","","","relaxing"
"","","","","","animation","104","85338812","0.0-104.0","1920x1080","","6230.699999988079","49.07","img/314/4.5/1/bw/001.png","","","relaxing"
"","","","","","animation","105","85341365","0.0-105.0","1920x1080","","2551.100000023842","30.16","img/117/4.5/0.5/bw/001.png","","","relaxing"
"","","","","","animation","106","85347196","0.0-106.0","1920x1080","","5830.699999988079","91","img/117/5.5/1.5/bw/001.png","","","relaxing"
"","","","","","animation","107","85350365","0.0-107.0","1920x1080","","3166.7999999523163","1.19","img/314/2.5/1.5/bw/001.png","","","relaxing"
"","","","","","animation","108","85358469","0.0-108.0","1920x1080","","8103","97","img/117/5.5/1/bw/001.png","","","relaxing"
"","","","","","animation","109","85362126","0.0-109.0","1920x1080","","3656.100000023842","27.38","img/314/3.5/1/bw/001.png","","","relaxing"
"","","","","","animation","110","85365727","0.0-110.0","1920x1080","","3599.600000023842","99","img/314/5.5/1/bw/001.png","","","relaxing"
"","","","","","animation","111","85370509","0.0-111.0","1920x1080","","4780.600000023842","32.01","img/238/4/0.66667/bw/001.png","","","relaxing"
"","","","","","animation","112","85376159","0.0-112.0","1920x1080","","5649.199999988079","50.00","img/117/5.5/0.5/bw/001.png","","","relaxing"
"","","","","","animation","113","85379997","0.0-113.0","1920x1080","","3837","1.72","img/238/2.5/1.5/bw/001.png","","","relaxing"
"","","","","","animation","114","85382975","0.0-114.0","1920x1080","","2977","1.59","img/314/2.5/2/bw/001.png","","","relaxing"
"","","","","","animation","115","85385485","0.0-115.0","1920x1080","","2509","26.46","img/238/4/1.5/bw/001.png","","","relaxing"
"","","","","","animation","116","85388309","0.0-116.0","1920x1080","","2822.699999988079","14.81","img/117/4/0.5/bw/001.png","","","relaxing"
"","","","","","animation","117","85392342","0.0-117.0","1920x1080","","4032.199999988079","50.79","img/238/3.5/2/bw/001.png","","","relaxing"
"","","","","","animation","118","85398869","0.0-118.0","1920x1080","","6526.200000047684","65","img/238/4/1/bw/001.png","","","relaxing"
"","","","","","animation","119","85402542","0.0-119.0","1920x1080","","3671.899999976158","10.98","img/117/3.5/0.5/bw/001.png","","","relaxing"
"","","","","","animation","120","85406261","0.0-120.0","1920x1080","","3717.600000023842","0","img/117/2.5/0.5/bw/001.png","","","relaxing"
"","","","","","animation","121","85412661","0.0-121.0","1920x1080","","6399","0","img/314/2.5/0.5/bw/001.png","","","relaxing"
"","","","","","animation","122","85415429","0.0-122.0","1920x1080","","2767","80.56","img/117/4/2/bw/001.png","","","relaxing"
"","","","","","animation","123","85418685","0.0-123.0","1920x1080","","3255.100000023842","84.52","img/238/4/2/bw/001.png","","","relaxing"
"","","","","","animation","124","85425565","0.0-124.0","1920x1080","","6878.900000035763","39.42","img/117/3.5/1/bw/001.png","","","relaxing"
"","","","","","animation","125","85429061","0.0-125.0","1920x1080","","3494.800000011921","16.14","img/238/3.5/0.5/bw/001.png","","","relaxing"
"","","","","","animation","126","85435524","0.0-126.0","1920x1080","","6463","98","img/238/5.5/1/bw/001.png","","","relaxing"
"","","","","","animation","127","85440061","0.0-127.0","1920x1080","","4534.899999976158","51.72","img/314/3.5/0.66667/bw/001.png","","","relaxing"
"","","","","","animation","128","85444133","0.0-128.0","1920x1080","","4071.5","98","img/238/5.5/1.5/bw/001.png","","","relaxing"
"","","","","","animation","129","85448877","0.0-129.0","1920x1080","","4742","28","img/314/3.5/0.5/bw/001.png","","","relaxing"
"","","","","","animation","130","85454381","0.0-130.0","1920x1080","","5503","77.25","img/238/4.5/2/bw/001.png","","","relaxing"
"","","","","","animation","131","85470181","0.0-131.0","1920x1080","","15798.699999988079","51.98","img/314/4.5/0.5/bw/001.png","","","relaxing"
"","","","","","animation","132","85534042","0.0-132.0","1920x1080","","63859.39999997616","78.44","img/314/4/2/bw/001.png","","","relaxing"
"","","","","","animation","133","85539526","0.0-133.0","1920x1080","","5482.5","24","img/238/4/0.5/bw/001.png","","","relaxing"
"","","","","","animation","134","85543642","0.0-134.0","1920x1080","","4115.300000011921","91.14","img/117/5.5/0.66667/bw/001.png","","","relaxing"
"","","","","","animation","135","85546670","0.0-135.0","1920x1080","","3026.400000035763","74.60","img/117/4.5/1.5/bw/001.png","","","relaxing"
"","","","","","animation","136","85550934","0.0-136.0","1920x1080","","4263","0","img/117/2.5/0.66667/bw/001.png","","","relaxing"
"","","","","","animation","137","85555526","0.0-137.0","1920x1080","","4590.600000023842","0.79","img/314/2.5/1/bw/001.png","","","relaxing"
"","","","","","animation","138","85563592","0.0-138.0","1920x1080","","8065.099999964237","66.01","img/314/3.5/2/bw/001.png","","","relaxing"
"","","","","","animation","139","85568886","0.0-139.0","1920x1080","","5292.699999988079","35.98","img/117/4/0.66667/bw/001.png","","","relaxing"
"","","","","","animation","140","85573493","0.0-140.0","1920x1080","","4606.300000011921","82.80","img/117/4.5/2/bw/001.png","","","relaxing"
"","","","","","animation","141","85578960","0.0-141.0","1920x1080","","5464.699999988079","98","img/117/5.5/2/bw/001.png","","","relaxing"
"","","","","","animation","142","85583242","0.0-142.0","1920x1080","","4281.5","66.80","img/117/4/1/bw/001.png","","","relaxing"
"","","","","","animation","143","85586109","0.0-143.0","1920x1080","","2866.199999988079","12.83","img/117/3.5/0.66667/bw/001.png","","","relaxing"
"","","","","","animation","144","85593154","0.0-144.0","1920x1080","","7043.600000023842","65.21","img/117/3.5/1.5/bw/001.png","","","relaxing"
"","","","","","animation","145","85598143","0.0-145.0","1920x1080","","4978.599999964237","35.85","img/117/4.5/1/bw/001.png","","","relaxing"
"","","","","","animation","146","85603646","0.0-146.0","1920x1080","","5501.900000035763","50.13","img/238/4.5/1/bw/001.png","","","relaxing"
"","","","","","animation","147","85606559","0.0-147.0","1920x1080","","2912.5","69.84","img/117/4/1.5/bw/001.png","","","relaxing"
"","","","","","animation","148","85610230","0.0-148.0","1920x1080","","3669.600000023842","84.13","img/314/4.5/1.5/bw/001.png","","","relaxing"
"","","","","","animation","149","85613793","0.0-149.0","1920x1080","","3562","26.85","img/238/4.5/0.5/bw/001.png","","","relaxing"
"","","","","","animation","150","85618894","0.0-150.0","1920x1080","","5099.199999988079","98","img/238/5.5/0.5/bw/001.png","","","relaxing"
"","","","","","animation","151","85626343","0.0-151.0","1920x1080","","7446.899999976158","50.79","img/314/4.5/0.66667/bw/001.png","","","relaxing"
"","","","","","animation","152","85629826","0.0-152.0","1920x1080","","3482.100000023842","63.76","img/314/4/1.5/bw/001.png","","","relaxing"
"","","","","","animation","153","85677042","0.0-153.0","1920x1080","","47215.5","0","img/117/2.5/1.5/bw/001.png","","","relaxing"
"","","","","","animation","154","85681543","0.0-154.0","1920x1080","","4499.100000023842","64.02","img/314/5.5/0.5/bw/001.png","","","relaxing"
"","","","","","animation","155","85683646","0.0-155.0","1920x1080","","2102.300000011921","2.65","img/238/2.5/1/bw/001.png","","","relaxing"
"","","","","","animation","156","85690859","0.0-156.0","1920x1080","","7211.899999976158","67.59","img/314/3.5/1.5/bw/001.png","","","relaxing"
"","","","","","animation","157","85694270","0.0-157.0","1920x1080","","3410.100000023842","48.28","img/117/3.5/2/bw/001.png","","","relaxing"
"","","","","","animation","158","85696626","0.0-158.0","1920x1080","","2354.900000035763","1.72","img/238/2.5/2/bw/001.png","","","relaxing"
"","","","","","html-button-response","159","85770097","0.0-159.0","1920x1080","","73469.10000002384","","<div class=""intro"">You are about to view a new series of animations.<br><br></div><div class=""intro"">You will evaluate them based on a different descriptor.<br><br></div><div class=""intro"">Move the slider to indicate how <strong style=""text-transform:capitalize"">INTERESTING</strong> you find each animation.<br><br></div><div class=""intro"">0 = Least Interesting<br></div><div class=""intro"">1 = Most Interesting<br><br></div><div class=""intro"">Remember to use the <strong><em>entire range</em></strong> of the slider to make your ratings.<br></div><div class=""intro"">Please <strong><em>take your time</em></strong> and carefully consider each rating you make.<br><br></div>","0","",""
"","","","","","call-function","160","85770103","0.0-160.0","1920x1080","","","","","","",""
"","","","","","animation","161","85775382","0.0-161.0","1920x1080","","5278.399999976158","87.30","img/117/5.5/1.5/bw/001.png","","","interesting"
"","","","","","animation","162","85783043","0.0-162.0","1920x1080","","7659.300000011921","81.22","img/117/4.5/0.5/bw/001.png","","","interesting"
"","","","","","animation","163","85786734","0.0-163.0","1920x1080","","3689.699999988079","1.19","img/117/2.5/0.5/bw/001.png","","","interesting"
"","","","","","animation","164","85794075","0.0-164.0","1920x1080","","7340","16.53","img/314/4/0.5/bw/001.png","","","interesting"
"","","","","","animation","165","85798750","0.0-165.0","1920x1080","","4673.600000023842","10.32","img/314/3.5/0.66667/bw/001.png","","","interesting"
"","","","","","animation","166","85802526","0.0-166.0","1920x1080","","3774.5","43.39","img/117/4/0.66667/bw/001.png","","","interesting"
"","","","","","animation","167","85811414","0.0-167.0","1920x1080","","8887","96","img/314/5.5/0.66667/bw/001.png","","","interesting"
"","","","","","animation","168","85815809","0.0-168.0","1920x1080","","4393.5","96","img/314/4/2/bw/001.png","","","interesting"
"","","","","","animation","169","85822294","0.0-169.0","1920x1080","","6483.399999976158","94","img/238/4.5/0.66667/bw/001.png","","","interesting"
"","","","","","animation","170","85829414","0.0-170.0","1920x1080","","7119.099999964237","89.55","img/238/4.5/1/bw/001.png","","","interesting"
"","","","","","animation","171","85834193","0.0-171.0","1920x1080","","4776.600000023842","0","img/238/2.5/2/bw/001.png","","","interesting"
"","","","","","animation","172","85844782","0.0-172.0","1920x1080","","10588.300000011921","64.81","img/314/4.5/1/bw/001.png","","","interesting"
"","","","","","animation","173","85850262","0.0-173.0","1920x1080","","5478.800000011921","90.21","img/314/5.5/0.5/bw/001.png","","","interesting"
"","","","","","animation","174","85855376","0.0-174.0","1920x1080","","5112.300000011921","72.35","img/314/3.5/1/bw/001.png","","","interesting"
"","","","","","animation","175","85865303","0.0-175.0","1920x1080","","9925.5","86.11","img/314/4.5/1.5/bw/001.png","","","interesting"
"","","","","","animation","176","85868799","0.0-176.0","1920x1080","","3494.699999988079","0","img/314/2.5/1/bw/001.png","","","interesting"
"","","","","","animation","177","85877278","0.0-177.0","1920x1080","","8478.400000035763","17.20","img/117/4/0.5/bw/001.png","","","interesting"
"","","","","","animation","178","85880827","0.0-178.0","1920x1080","","3547.400000035763","41.14","img/314/4/1.5/bw/001.png","","","interesting"
"","","","","","animation","179","85892977","0.0-179.0","1920x1080","","12147.699999988079","44.05","img/314/4.5/0.5/bw/001.png","","","interesting"
"","","","","","animation","180","85897794","0.0-180.0","1920x1080","","4815.300000011921","1.19","img/314/2.5/0.5/bw/001.png","","","interesting"
"","","","","","animation","181","85904860","0.0-181.0","1920x1080","","7065.199999988079","67","img/238/4/1/bw/001.png","","","interesting"
"","","","","","animation","182","85909663","0.0-182.0","1920x1080","","4801.399999976158","70.90","img/238/3.5/1/bw/001.png","","","interesting"
"","","","","","animation","183","85921431","0.0-183.0","1920x1080","","11767","81.88","img/117/4/1/bw/001.png","","","interesting"
"","","","","","animation","184","85933783","0.0-184.0","1920x1080","","12350.599999964237","97","img/238/5.5/2/bw/001.png","","","interesting"
"","","","","","animation","185","85938431","0.0-185.0","1920x1080","","4646.399999976158","2.12","img/117/2.5/1.5/bw/001.png","","","interesting"
"","","","","","animation","186","85944119","0.0-186.0","1920x1080","","5686.699999988079","1","img/238/2.5/1/bw/001.png","","","interesting"
"","","","","","animation","187","85958594","0.0-187.0","1920x1080","","14473.600000023842","97","img/314/5.5/1/bw/001.png","","","interesting"
"","","","","","animation","188","85961811","0.0-188.0","1920x1080","","3214.800000011921","0.00","img/238/2.5/0.66667/bw/001.png","","","interesting"
"","","","","","animation","189","85966079","0.0-189.0","1920x1080","","4267.099999964237","90.34","img/314/5.5/1.5/bw/001.png","","","interesting"
"","","","","","animation","190","85969194","0.0-190.0","1920x1080","","3113.600000023842","1.32","img/238/2.5/0.5/bw/001.png","","","interesting"
"","","","","","animation","191","85977127","0.0-191.0","1920x1080","","7932","100","img/117/5.5/2/bw/001.png","","","interesting"
"","","","","","animation","192","85981831","0.0-192.0","1920x1080","","4702.5","100","img/117/5.5/0.66667/bw/001.png","","","interesting"
"","","","","","animation","193","85985015","0.0-193.0","1920x1080","","3182.599999964237","1.59","img/117/2.5/1/bw/001.png","","","interesting"
"","","","","","animation","194","85990360","0.0-194.0","1920x1080","","5343.700000047684","83.60","img/117/5.5/0.5/bw/001.png","","","interesting"
"","","","","","animation","195","85995610","0.0-195.0","1920x1080","","5248.899999976158","1.72","img/117/2.5/0.66667/bw/001.png","","","interesting"
"","","","","","animation","196","86003786","0.0-196.0","1920x1080","","8173.699999988079","53.17","img/314/4/1/bw/001.png","","","interesting"
"","","","","","animation","197","86017415","0.0-197.0","1920x1080","","13624.099999964237","4.10","img/117/2.5/2/bw/001.png","","","interesting"
"","","","","","animation","198","86023911","0.0-198.0","1920x1080","","6494.199999988079","98","img/238/5.5/1/bw/001.png","","","interesting"
"","","","","","animation","199","86027431","0.0-199.0","1920x1080","","3519","72.09","img/117/3.5/1/bw/001.png","","","interesting"
"","","","","","animation","200","86032551","0.0-200.0","1920x1080","","5118.700000047684","98","img/314/5.5/2/bw/001.png","","","interesting"
"","","","","","animation","201","86036351","0.0-201.0","1920x1080","","3798.399999976158","80.95","img/117/4.5/2/bw/001.png","","","interesting"
"","","","","","animation","202","86045627","0.0-202.0","1920x1080","","9273.199999988079","80.03","img/238/3.5/1.5/bw/001.png","","","interesting"
"","","","","","animation","203","86050594","0.0-203.0","1920x1080","","4964.899999976158","0","img/314/2.5/0.66667/bw/001.png","","","interesting"
"","","","","","animation","204","86058160","0.0-204.0","1920x1080","","7564.900000035763","81","img/238/3.5/2/bw/001.png","","","interesting"
"","","","","","animation","205","86064095","0.0-205.0","1920x1080","","5933.5","94","img/238/4/0.5/bw/001.png","","","interesting"
"","","","","","animation","206","86075416","0.0-206.0","1920x1080","","11318.900000035763","39.81","img/314/3.5/0.5/bw/001.png","","","interesting"
"","","","","","animation","207","86078832","0.0-207.0","1920x1080","","3414.900000035763","36.11","img/117/3.5/0.5/bw/001.png","","","interesting"
"","","","","","animation","208","86084480","0.0-208.0","1920x1080","","5646.399999976158","40","img/117/3.5/0.66667/bw/001.png","","","interesting"
"","","","","","animation","209","86092428","0.0-209.0","1920x1080","","7946","1.19","img/314/2.5/2/bw/001.png","","","interesting"
"","","","","","animation","210","86191816","0.0-210.0","1920x1080","","99386.10000002384","86.90","img/238/4.5/2/bw/001.png","","","interesting"
"","","","","","animation","211","86194648","0.0-211.0","1920x1080","","2830.199999988079","48.41","img/314/3.5/1.5/bw/001.png","","","interesting"
"","","","","","animation","212","86197211","0.0-212.0","1920x1080","","2562.100000023842","24.74","img/238/3.5/0.66667/bw/001.png","","","interesting"
"","","","","","animation","213","86199794","0.0-213.0","1920x1080","","2581.899999976158","0.13","img/238/2.5/1.5/bw/001.png","","","interesting"
"","","","","","animation","214","86206920","0.0-214.0","1920x1080","","7124.899999976158","60.98","img/314/4.5/0.66667/bw/001.png","","","interesting"
"","","","","","animation","215","86210478","0.0-215.0","1920x1080","","3556.400000035763","95","img/117/5.5/1/bw/001.png","","","interesting"
"","","","","","animation","216","86214177","0.0-216.0","1920x1080","","3695.599999964237","71.30","img/117/4.5/0.66667/bw/001.png","","","interesting"
"","","","","","animation","217","86217552","0.0-217.0","1920x1080","","3373.399999976158","49.87","img/238/4/0.66667/bw/001.png","","","interesting"
"","","","","","animation","218","86220648","0.0-218.0","1920x1080","","3094.599999964237","92.46","img/238/5.5/1.5/bw/001.png","","","interesting"
"","","","","","animation","219","86224894","0.0-219.0","1920x1080","","4244.899999976158","62.83","img/117/3.5/2/bw/001.png","","","interesting"
"","","","","","animation","220","86229768","0.0-220.0","1920x1080","","4872.299999952316","0.79","img/314/2.5/1.5/bw/001.png","","","interesting"
"","","","","","animation","221","86233328","0.0-221.0","1920x1080","","3558","86.77","img/117/4/2/bw/001.png","","","interesting"
"","","","","","animation","222","86237400","0.0-222.0","1920x1080","","4071.100000023842","79.23","img/314/3.5/2/bw/001.png","","","interesting"
"","","","","","animation","223","86240152","0.0-223.0","1920x1080","","2750.5","60.71","img/314/4/0.66667/bw/001.png","","","interesting"
"","","","","","animation","224","86243328","0.0-224.0","1920x1080","","3171.300000011921","98","img/314/4.5/2/bw/001.png","","","interesting"
"","","","","","animation","225","86247112","0.0-225.0","1920x1080","","3782.599999964237","99","img/238/5.5/0.66667/bw/001.png","","","interesting"
"","","","","","animation","226","86250784","0.0-226.0","1920x1080","","3670.899999976158","98","img/117/4/1.5/bw/001.png","","","interesting"
"","","","","","animation","227","86262713","0.0-227.0","1920x1080","","11926.100000023842","97","img/238/4.5/1.5/bw/001.png","","","interesting"
"","","","","","animation","228","86274297","0.0-228.0","1920x1080","","11582.699999988079","58","img/117/4.5/1/bw/001.png","","","interesting"
"","","","","","animation","229","86278862","0.0-229.0","1920x1080","","4564.100000023842","95","img/117/4.5/1.5/bw/001.png","","","interesting"
"","","","","","animation","230","86283844","0.0-230.0","1920x1080","","4980.199999988079","64.15","img/238/3.5/0.5/bw/001.png","","","interesting"
"","","","","","animation","231","86286612","0.0-231.0","1920x1080","","2766.100000023842","38.23","img/238/4/1.5/bw/001.png","","","interesting"
"","","","","","animation","232","86291865","0.0-232.0","1920x1080","","5251.5","67.06","img/238/4.5/0.5/bw/001.png","","","interesting"
"","","","","","animation","233","86296345","0.0-233.0","1920x1080","","4479.600000023842","100","img/238/5.5/0.5/bw/001.png","","","interesting"
"","","","","","animation","234","86299601","0.0-234.0","1920x1080","","3254.199999988079","33","img/117/3.5/1.5/bw/001.png","","","interesting"
"","","","","","animation","235","86304295","0.0-235.0","1920x1080","","4693.300000011921","17.06","img/238/4/2/bw/001.png","","","interesting"
"","","","","","html-button-response","236","86326337","0.0-236.0","1920x1080","","22040.400000035763","","<div class=""intro"">You are about to view a new series of animations.<br><br></div><div class=""intro"">You will evaluate them based on a different descriptor.<br><br></div><div class=""intro"">Move the slider to indicate how <strong style=""text-transform:capitalize"">APPEALING</strong> you find each animation.<br><br></div><div class=""intro"">0 = Least Appealing<br></div><div class=""intro"">1 = Most Appealing<br><br></div><div class=""intro"">Remember to use the <strong><em>entire range</em></strong> of the slider to make your ratings.<br></div><div class=""intro"">Please <strong><em>take your time</em></strong> and carefully consider each rating you make.<br><br></div>","0","",""
"","","","","","call-function","237","86326340","0.0-237.0","1920x1080","","","","","","",""
"","","","","","animation","238","86331395","0.0-238.0","1920x1080","","5053.5","31","img/314/4/0.66667/bw/001.png","","","appealing"
"","","","","","animation","239","86334528","0.0-239.0","1920x1080","","3132","1.72","img/314/2.5/1.5/bw/001.png","","","appealing"
"","","","","","animation","240","86338778","0.0-240.0","1920x1080","","4248.699999988079","86.24","img/117/5.5/0.5/bw/001.png","","","appealing"
"","","","","","animation","241","86342311","0.0-241.0","1920x1080","","3531.300000011921","0","img/238/2.5/2/bw/001.png","","","appealing"
"","","","","","animation","242","86347168","0.0-242.0","1920x1080","","4855.700000047684","23.15","img/117/4/1.5/bw/001.png","","","appealing"
"","","","","","animation","243","86351312","0.0-243.0","1920x1080","","4141.900000035763","28.57","img/117/4.5/1/bw/001.png","","","appealing"
"","","","","","animation","244","86355696","0.0-244.0","1920x1080","","4382","19.18","img/117/3.5/1.5/bw/001.png","","","appealing"
"","","","","","animation","245","86359561","0.0-245.0","1920x1080","","3861.7000000476837","35.05","img/238/4.5/1/bw/001.png","","","appealing"
"","","","","","animation","246","86363578","0.0-246.0","1920x1080","","4015.7000000476837","14.68","img/238/3.5/2/bw/001.png","","","appealing"
"","","","","","animation","247","86400446","0.0-247.0","1920x1080","","36864.89999997616","83.60","img/238/4.5/1.5/bw/001.png","","","appealing"
"","","","","","animation","248","86403201","0.0-248.0","1920x1080","","2753.800000011921","2.65","img/117/2.5/1.5/bw/001.png","","","appealing"
"","","","","","animation","249","86408834","0.0-249.0","1920x1080","","5630.800000011921","-3.44","img/117/2.5/0.5/bw/001.png","","","appealing"
"","","","","","animation","250","86417202","0.0-250.0","1920x1080","","8365.900000035763","48.68","img/238/4/1/bw/001.png","","","appealing"
"","","","","","animation","251","86419938","0.0-251.0","1920x1080","","2734.7999999523163","75","img/117/4.5/2/bw/001.png","","","appealing"
"","","","","","animation","252","86424496","0.0-252.0","1920x1080","","4555.5","30.03","img/314/3.5/0.66667/bw/001.png","","","appealing"
"","","","","","animation","253","86427529","0.0-253.0","1920x1080","","3032","94.18","img/314/4.5/0.5/bw/001.png","","","appealing"
"","","","","","animation","254","86431062","0.0-254.0","1920x1080","","3531.900000035763","99","img/117/5.5/1.5/bw/001.png","","","appealing"
"","","","","","animation","255","86434233","0.0-255.0","1920x1080","","3169","28.57","img/238/4/0.66667/bw/001.png","","","appealing"
"","","","","","animation","256","86438969","0.0-256.0","1920x1080","","4734.600000023842","27.91","img/314/4/1/bw/001.png","","","appealing"
"","","","","","animation","257","86447080","0.0-257.0","1920x1080","","8110.199999988079","16.14","img/238/4/2/bw/001.png","","","appealing"
"","","","","","animation","258","86453212","0.0-258.0","1920x1080","","6129.400000035763","11.77","img/117/4/0.66667/bw/001.png","","","appealing"
"","","","","","animation","259","86458481","0.0-259.0","1920x1080","","5266.700000047684","47.09","img/117/3.5/2/bw/001.png","","","appealing"
"","","","","","animation","260","86461153","0.0-260.0","1920x1080","","2667.699999988079","28.44","img/117/3.5/1/bw/001.png","","","appealing"
"","","","","","animation","261","86466279","0.0-261.0","1920x1080","","5124.199999988079","-9.66","img/314/2.5/2/bw/001.png","","","appealing"
"","","","","","animation","262","86472664","0.0-262.0","1920x1080","","6383.899999976158","38.76","img/314/4/0.5/bw/001.png","","","appealing"
"","","","","","animation","263","86475753","0.0-263.0","1920x1080","","3087","25.53","img/314/3.5/0.5/bw/001.png","","","appealing"
"","","","","","animation","264","86479695","0.0-264.0","1920x1080","","3940.7999999523163","96","img/314/5.5/2/bw/001.png","","","appealing"
"","","","","","animation","265","86484537","0.0-265.0","1920x1080","","4840.100000023842","1.59","img/117/2.5/2/bw/001.png","","","appealing"
"","","","","","animation","266","86487768","0.0-266.0","1920x1080","","3228.099999964237","75.93","img/238/5.5/0.66667/bw/001.png","","","appealing"
"","","","","","animation","267","86492247","0.0-267.0","1920x1080","","4475.5","47.09","img/238/4.5/0.66667/bw/001.png","","","appealing"
"","","","","","animation","268","86495234","0.0-268.0","1920x1080","","2985.899999976158","27.78","img/238/4.5/0.5/bw/001.png","","","appealing"
"","","","","","animation","269","86498386","0.0-269.0","1920x1080","","3150.600000023842","-4.37","img/314/2.5/0.5/bw/001.png","","","appealing"
"","","","","","animation","270","86554602","0.0-270.0","1920x1080","","56214.89999997616","61","img/238/3.5/1/bw/001.png","","","appealing"
"","","","","","animation","271","86559482","0.0-271.0","1920x1080","","4878.300000011921","69","img/314/4.5/0.66667/bw/001.png","","","appealing"
"","","","","","animation","272","86561835","0.0-272.0","1920x1080","","2351.600000023842","22.88","img/238/3.5/0.66667/bw/001.png","","","appealing"
"","","","","","animation","273","86565001","0.0-273.0","1920x1080","","3165.100000023842","0","img/238/2.5/1.5/bw/001.png","","","appealing"
"","","","","","animation","274","86568034","0.0-274.0","1920x1080","","3031.199999988079","87.17","img/314/4.5/1.5/bw/001.png","","","appealing"
"","","","","","animation","275","86574266","0.0-275.0","1920x1080","","6230.200000047684","0","img/314/2.5/0.66667/bw/001.png","","","appealing"
"","","","","","animation","276","86577818","0.0-276.0","1920x1080","","3550.899999976158","82.41","img/117/4/2/bw/001.png","","","appealing"
"","","","","","animation","277","86581963","0.0-277.0","1920x1080","","4143.5","99","img/117/5.5/2/bw/001.png","","","appealing"
"","","","","","animation","278","86585386","0.0-278.0","1920x1080","","3421.600000023842","0","img/117/2.5/1/bw/001.png","","","appealing"
"","","","","","animation","279","86588230","0.0-279.0","1920x1080","","2841.899999976158","19.31","img/238/3.5/0.5/bw/001.png","","","appealing"
"","","","","","animation","280","86592631","0.0-280.0","1920x1080","","4399.800000011921","82.28","img/117/4.5/1.5/bw/001.png","","","appealing"
"","","","","","animation","281","86596402","0.0-281.0","1920x1080","","3769.199999988079","99","img/117/5.5/1/bw/001.png","","","appealing"
"","","","","","animation","282","86599379","0.0-282.0","1920x1080","","2975.900000035763","0","img/117/2.5/0.66667/bw/001.png","","","appealing"
"","","","","","animation","283","86604613","0.0-283.0","1920x1080","","5232.700000047684","89.68","img/314/4.5/2/bw/001.png","","","appealing"
"","","","","","animation","284","86609418","0.0-284.0","1920x1080","","4802.5","52.25","img/117/4.5/0.66667/bw/001.png","","","appealing"
"","","","","","animation","285","86613683","0.0-285.0","1920x1080","","4263.599999964237","44.97","img/238/4/1.5/bw/001.png","","","appealing"
"","","","","","animation","286","86617954","0.0-286.0","1920x1080","","4269.399999976158","1.19","img/314/3.5/2/bw/001.png","","","appealing"
"","","","","","animation","287","86622046","0.0-287.0","1920x1080","","4054.899999976158","0.40","img/238/2.5/0.66667/bw/001.png","","","appealing"
"","","","","","animation","288","86626197","0.0-288.0","1920x1080","","4148.5","92.46","img/238/5.5/1.5/bw/001.png","","","appealing"
"","","","","","animation","289","86629469","0.0-289.0","1920x1080","","3270.600000023842","79.76","img/314/4/1.5/bw/001.png","","","appealing"
"","","","","","animation","290","86632864","0.0-290.0","1920x1080","","3388.300000011921","48.15","img/238/4/0.5/bw/001.png","","","appealing"
"","","","","","animation","291","86636792","0.0-291.0","1920x1080","","3926.300000011921","94","img/238/5.5/2/bw/001.png","","","appealing"
"","","","","","animation","292","86640317","0.0-292.0","1920x1080","","3522.900000035763","21.83","img/117/3.5/0.66667/bw/001.png","","","appealing"
"","","","","","animation","293","86642963","0.0-293.0","1920x1080","","2645","14.55","img/314/3.5/1/bw/001.png","","","appealing"
"","","","","","animation","294","86650619","0.0-294.0","1920x1080","","7654.200000047684","96","img/238/5.5/0.5/bw/001.png","","","appealing"
"","","","","","animation","295","86655186","0.0-295.0","1920x1080","","4562.5","67.06","img/117/4.5/0.5/bw/001.png","","","appealing"
"","","","","","animation","296","86657696","0.0-296.0","1920x1080","","2509.2000000476837","25.93","img/117/3.5/0.5/bw/001.png","","","appealing"
"","","","","","animation","297","86662018","0.0-297.0","1920x1080","","4320.300000011921","95","img/117/5.5/0.66667/bw/001.png","","","appealing"
"","","","","","animation","298","86666067","0.0-298.0","1920x1080","","4047.699999988079","71.56","img/314/3.5/1.5/bw/001.png","","","appealing"
"","","","","","animation","299","86669113","0.0-299.0","1920x1080","","3043.899999976158","84.52","img/238/4.5/2/bw/001.png","","","appealing"
"","","","","","animation","300","86671835","0.0-300.0","1920x1080","","2720.300000011921","97","img/314/5.5/0.5/bw/001.png","","","appealing"
"","","","","","animation","301","86677836","0.0-301.0","1920x1080","","5999.300000011921","77.65","img/314/4/2/bw/001.png","","","appealing"
"","","","","","animation","302","86680684","0.0-302.0","1920x1080","","2846.899999976158","84.52","img/314/4.5/1/bw/001.png","","","appealing"
"","","","","","animation","303","86683770","0.0-303.0","1920x1080","","3084.300000011921","99","img/314/5.5/1/bw/001.png","","","appealing"
"","","","","","animation","304","86692034","0.0-304.0","1920x1080","","8262.100000023842","100","img/314/5.5/0.66667/bw/001.png","","","appealing"
"","","","","","animation","305","86700184","0.0-305.0","1920x1080","","8147.699999988079","100","img/238/5.5/1/bw/001.png","","","appealing"
"","","","","","animation","306","86703053","0.0-306.0","1920x1080","","2867.100000023842","2.25","img/314/2.5/1/bw/001.png","","","appealing"
"","","","","","animation","307","86706538","0.0-307.0","1920x1080","","3483.199999988079","0.53","img/238/2.5/1/bw/001.png","","","appealing"
"","","","","","animation","308","86709142","0.0-308.0","1920x1080","","2601.600000023842","21","img/117/4/1/bw/001.png","","","appealing"
"","","","","","animation","309","86712731","0.0-309.0","1920x1080","","3588","0.79","img/238/2.5/0.5/bw/001.png","","","appealing"
"","","","","","animation","310","86716555","0.0-310.0","1920x1080","","3822.100000023842","97","img/314/5.5/1.5/bw/001.png","","","appealing"
"","","","","","animation","311","86719770","0.0-311.0","1920x1080","","3214.099999964237","21.43","img/117/4/0.5/bw/001.png","","","appealing"
"","","","","","animation","312","86722564","0.0-312.0","1920x1080","","2791.699999988079","47.49","img/238/3.5/1.5/bw/001.png","","","appealing"
"","","","","","html-button-response","313","86743371","0.0-313.0","1920x1080","","20805.099999964237","","<div class=""intro"">You are about to view a new series of animations.<br><br></div><div class=""intro"">You will evaluate them based on a different descriptor.<br><br></div><div class=""intro"">Move the slider to indicate how <strong style=""text-transform:capitalize"">NATURAL</strong> you find each animation.<br><br></div><div class=""intro"">0 = Least Natural<br></div><div class=""intro"">1 = Most Natural<br><br></div><div class=""intro"">Remember to use the <strong><em>entire range</em></strong> of the slider to make your ratings.<br></div><div class=""intro"">Please <strong><em>take your time</em></strong> and carefully consider each rating you make.<br><br></div>","0","",""
"","","","","","call-function","314","86743373","0.0-314.0","1920x1080","","","","","","",""
"","","","","","animation","315","86748691","0.0-315.0","1920x1080","","5317","89","img/117/4.5/2/bw/001.png","","","natural"
"","","","","","animation","316","86752656","0.0-316.0","1920x1080","","3961.800000011921","87.30","img/238/4.5/1.5/bw/001.png","","","natural"
"","","","","","animation","317","86760586","0.0-317.0","1920x1080","","7927.899999976158","85","img/238/4/2/bw/001.png","","","natural"
"","","","","","animation","318","86765618","0.0-318.0","1920x1080","","5030.600000023842","72.35","img/238/4/1/bw/001.png","","","natural"
"","","","","","animation","319","86772081","0.0-319.0","1920x1080","","6460.399999976158","27.38","img/314/4.5/0.66667/bw/001.png","","","natural"
"","","","","","animation","320","86780714","0.0-320.0","1920x1080","","8625.100000023842","86.77","img/238/4.5/2/bw/001.png","","","natural"
"","","","","","animation","321","86787219","0.0-321.0","1920x1080","","6502.800000011921","98","img/117/5.5/1/bw/001.png","","","natural"
"","","","","","animation","322","86791186","0.0-322.0","1920x1080","","3965.099999964237","79.37","img/117/4/1.5/bw/001.png","","","natural"
"","","","","","animation","323","86794530","0.0-323.0","1920x1080","","3342.600000023842","1.32","img/314/2.5/0.66667/bw/001.png","","","natural"
"","","","","","animation","324","86801774","0.0-324.0","1920x1080","","7242.400000035763","100","img/238/5.5/0.5/bw/001.png","","","natural"
"","","","","","animation","325","86806348","0.0-325.0","1920x1080","","4571.599999964237","96","img/238/5.5/1/bw/001.png","","","natural"
"","","","","","animation","326","86819621","0.0-326.0","1920x1080","","13270.800000011921","95","img/238/5.5/2/bw/001.png","","","natural"
"","","","","","animation","327","86826565","0.0-327.0","1920x1080","","6941","69.58","img/117/4.5/0.66667/bw/001.png","","","natural"
"","","","","","animation","328","86831765","0.0-328.0","1920x1080","","5198.800000011921","57","img/117/4/0.5/bw/001.png","","","natural"
"","","","","","animation","329","86835619","0.0-329.0","1920x1080","","3852.599999964237","63.23","img/314/4.5/1.5/bw/001.png","","","natural"
"","","","","","animation","330","86838623","0.0-330.0","1920x1080","","3000.599999964237","66.67","img/117/3.5/0.5/bw/001.png","","","natural"
"","","","","","animation","331","86841932","0.0-331.0","1920x1080","","3307.100000023842","1","img/314/2.5/1.5/bw/001.png","","","natural"
"","","","","","animation","332","86847621","0.0-332.0","1920x1080","","5688.199999988079","71","img/314/4/1.5/bw/001.png","","","natural"
"","","","","","animation","333","86851654","0.0-333.0","1920x1080","","4030.600000023842","70","img/314/4.5/1/bw/001.png","","","natural"
"","","","","","animation","334","86951515","0.0-334.0","1920x1080","","99859.39999997616","24","img/117/3.5/0.66667/bw/001.png","","","natural"
"","","","","","animation","335","86954403","0.0-335.0","1920x1080","","2886.399999976158","75.40","img/314/5.5/0.5/bw/001.png","","","natural"
"","","","","","animation","336","86957883","0.0-336.0","1920x1080","","3478.399999976158","0","img/238/2.5/1.5/bw/001.png","","","natural"
"","","","","","animation","337","86965914","0.0-337.0","1920x1080","","8027.899999976158","33","img/238/4.5/0.66667/bw/001.png","","","natural"
"","","","","","animation","338","86969292","0.0-338.0","1920x1080","","3376.199999988079","79.10","img/117/5.5/1.5/bw/001.png","","","natural"
"","","","","","animation","339","86975348","0.0-339.0","1920x1080","","6053.600000023842","28.70","img/314/3.5/0.66667/bw/001.png","","","natural"
"","","","","","animation","340","86978638","0.0-340.0","1920x1080","","3288.5","72","img/117/3.5/2/bw/001.png","","","natural"
"","","","","","animation","341","86982572","0.0-341.0","1920x1080","","3931.399999976158","99","img/238/5.5/1.5/bw/001.png","","","natural"
"","","","","","animation","342","86985587","0.0-342.0","1920x1080","","3013","89.95","img/117/5.5/0.66667/bw/001.png","","","natural"
"","","","","","animation","343","86988858","0.0-343.0","1920x1080","","3269.099999964237","2.65","img/117/2.5/0.5/bw/001.png","","","natural"
"","","","","","animation","344","86992135","0.0-344.0","1920x1080","","3275.400000035763","94","img/314/5.5/1.5/bw/001.png","","","natural"
"","","","","","animation","345","86995172","0.0-345.0","1920x1080","","3034.099999964237","2.65","img/238/2.5/2/bw/001.png","","","natural"
"","","","","","animation","346","87001575","0.0-346.0","1920x1080","","6401.5","39.42","img/117/4/1/bw/001.png","","","natural"
"","","","","","animation","347","87005309","0.0-347.0","1920x1080","","3732.899999976158","2.12","img/238/2.5/0.66667/bw/001.png","","","natural"
"","","","","","animation","348","87008892","0.0-348.0","1920x1080","","3580.899999976158","23.68","img/117/4/0.66667/bw/001.png","","","natural"
"","","","","","animation","349","87012592","0.0-349.0","1920x1080","","3697.399999976158","78.70","img/314/4/2/bw/001.png","","","natural"
"","","","","","animation","350","87016781","0.0-350.0","1920x1080","","4187.299999952316","99","img/117/5.5/2/bw/001.png","","","natural"
"","","","","","animation","351","87021304","0.0-351.0","1920x1080","","4521.699999988079","13","img/238/3.5/0.66667/bw/001.png","","","natural"
"","","","","","animation","352","87028163","0.0-352.0","1920x1080","","6857.199999988079","62","img/117/5.5/0.5/bw/001.png","","","natural"
"","","","","","animation","353","87035003","0.0-353.0","1920x1080","","6837","15.48","img/314/4/1/bw/001.png","","","natural"
"","","","","","animation","354","87038550","0.0-354.0","1920x1080","","3545.600000023842","30","img/117/4.5/1/bw/001.png","","","natural"
"","","","","","animation","355","87042931","0.0-355.0","1920x1080","","4379.099999964237","0","img/314/2.5/1/bw/001.png","","","natural"
"","","","","","animation","356","87045467","0.0-356.0","1920x1080","","2534.300000011921","16.93","img/238/4.5/1/bw/001.png","","","natural"
"","","","","","animation","357","87047904","0.0-357.0","1920x1080","","2435.5","31","img/314/4.5/0.5/bw/001.png","","","natural"
"","","","","","animation","358","87051766","0.0-358.0","1920x1080","","3860.199999988079","3","img/314/2.5/2/bw/001.png","","","natural"
"","","","","","animation","359","87055335","0.0-359.0","1920x1080","","3567.099999964237","17.72","img/314/3.5/0.5/bw/001.png","","","natural"
"","","","","","animation","360","87058531","0.0-360.0","1920x1080","","3193.7999999523163","85.58","img/314/5.5/2/bw/001.png","","","natural"
"","","","","","animation","361","87063073","0.0-361.0","1920x1080","","4540.800000011921","55","img/117/4.5/0.5/bw/001.png","","","natural"
"","","","","","animation","362","87065914","0.0-362.0","1920x1080","","2839.399999976158","71.43","img/314/5.5/0.66667/bw/001.png","","","natural"
"","","","","","animation","363","87069131","0.0-363.0","1920x1080","","3215","33.86","img/314/4/0.66667/bw/001.png","","","natural"
"","","","","","animation","364","87071747","0.0-364.0","1920x1080","","2614.900000035763","22.88","img/117/3.5/1/bw/001.png","","","natural"
"","","","","","animation","365","87074883","0.0-365.0","1920x1080","","3134","1.19","img/238/2.5/0.5/bw/001.png","","","natural"
"","","","","","animation","366","87079910","0.0-366.0","1920x1080","","5024.900000035763","89","img/314/3.5/2/bw/001.png","","","natural"
"","","","","","animation","367","87084501","0.0-367.0","1920x1080","","4589.5","66","img/117/3.5/1.5/bw/001.png","","","natural"
"","","","","","animation","368","87087217","0.0-368.0","1920x1080","","2714.100000023842","41.67","img/238/3.5/0.5/bw/001.png","","","natural"
"","","","","","animation","369","87091835","0.0-369.0","1920x1080","","4616.600000023842","83.47","img/314/4.5/2/bw/001.png","","","natural"
"","","","","","animation","370","87095650","0.0-370.0","1920x1080","","3812.699999988079","95","img/117/4.5/1.5/bw/001.png","","","natural"
"","","","","","animation","371","87099556","0.0-371.0","1920x1080","","3903.5","92.59","img/117/4/2/bw/001.png","","","natural"
"","","","","","animation","372","87103435","0.0-372.0","1920x1080","","3876.399999976158","72.22","img/238/3.5/1.5/bw/001.png","","","natural"
"","","","","","animation","373","87107676","0.0-373.0","1920x1080","","4239.100000023842","1","img/117/2.5/1/bw/001.png","","","natural"
"","","","","","animation","374","87110723","0.0-374.0","1920x1080","","3045","17.99","img/238/4/0.66667/bw/001.png","","","natural"
"","","","","","animation","375","87113157","0.0-375.0","1920x1080","","2431.199999988079","60.98","img/238/3.5/2/bw/001.png","","","natural"
"","","","","","animation","376","87115997","0.0-376.0","1920x1080","","2839.300000011921","36.24","img/238/3.5/1/bw/001.png","","","natural"
"","","","","","animation","377","87119748","0.0-377.0","1920x1080","","3748.7999999523163","0","img/314/2.5/0.5/bw/001.png","","","natural"
"","","","","","animation","378","87123341","0.0-378.0","1920x1080","","3591.300000011921","4.89","img/117/2.5/1.5/bw/001.png","","","natural"
"","","","","","animation","379","87126514","0.0-379.0","1920x1080","","3166.600000023842","94.97","img/238/5.5/0.66667/bw/001.png","","","natural"
"","","","","","animation","380","87130591","0.0-380.0","1920x1080","","4074.5","72.88","img/238/4.5/0.5/bw/001.png","","","natural"
"","","","","","animation","381","87134435","0.0-381.0","1920x1080","","3842.199999988079","0","img/117/2.5/2/bw/001.png","","","natural"
"","","","","","animation","382","87138031","0.0-382.0","1920x1080","","3594.199999988079","63.10","img/238/4/1.5/bw/001.png","","","natural"
"","","","","","animation","383","87140886","0.0-383.0","1920x1080","","2853.300000011921","0","img/238/2.5/1/bw/001.png","","","natural"
"","","","","","animation","384","87145931","0.0-384.0","1920x1080","","5043.299999952316","63","img/314/3.5/1.5/bw/001.png","","","natural"
"","","","","","animation","385","87150283","0.0-385.0","1920x1080","","4349.300000011921","24.07","img/238/4/0.5/bw/001.png","","","natural"
"","","","","","animation","386","87154267","0.0-386.0","1920x1080","","3982.699999988079","0","img/117/2.5/0.66667/bw/001.png","","","natural"
"","","","","","animation","387","87158635","0.0-387.0","1920x1080","","4366.099999964237","24","img/314/4/0.5/bw/001.png","","","natural"
"","","","","","animation","388","87161676","0.0-388.0","1920x1080","","3038.400000035763","81.35","img/314/5.5/1/bw/001.png","","","natural"
"","","","","","animation","389","87189469","0.0-389.0","1920x1080","","27790.600000023842","36.24","img/314/3.5/1/bw/001.png","","","natural"
"","","","","","html-button-response","390","87228316","0.0-390.0","1920x1080","","38845.5","","<strong>Study Debriefing</strong><br><p class=""debrief""><strong>Background:</strong> The patterns you rated are called <em>fractals</em>. The term fractal describes a class of irregular curves or shapes for which any suitably chosen part is similar in shape to a given larger or smaller part when magnified or reduced to the same size. Fractal properties are found throughout the natural and manmade world. The series of animations you saw today displayed animated fractal patterns of a varying complexity.</p><p class=""debrief""><strong>Purpose of this study:</strong> We hope to better understand how the perception of static fractals differs from the perception of animated fractals, and how the speed of the animated patterns influences people&apos;s perception of them. Fractals allow us to study the perception of aesthetic properties (e.g. the perceived level of beauty in an image) without using recognizable content, which makes them an excellent tool for studying abstract aesthetic judgement.</p><p class=""debrief""><strong>Your part:</strong> Your participation has helped us to further understand how humans perceive these patterns across different levels of speed and complexity. This research with allow us to better understand how the visual system and brain process our ever-changing visual environments.<p class=""debrief""><strong>Feedback and Further information:</strong> If you have additional questions about this study, please feel free to ask the researcher, Nathan Gonzales-Hess at nhess @ uoregon.edu. If you have any questions concerning your rights as a research participant, please contact Research Compliance Services, 5237 University of Oregon, Eugene, OR 97403, 541-346-2510, or email researchCompliance @ uoregon.edu. You can also email the Human Subjects Coordinator for psychology and linguistics research at hscoord @ uoregon.edu. ","0","",""
"","","","","","html-button-response","391","87231307","0.0-391.0","1920x1080","","2986.599999964237","","Thank you for participating in this study. <br>Please click below to finish the experiment and submit your responses.<br><br>","0","",""
"true","","","","","fullscreen","392","87232317","0.0-392.0","1920x1080","12:46 11/10/2022","","","","","",""
