"success","timeout","failed_images","failed_audio","failed_video","trial_type","trial_index","time_elapsed","internal_node_id","resolution","timeStamp","rt","response","stimulus","button_pressed","value","descriptor"
"true","false","[]","[]","[]","preload","0","36156","0.0-0.0","1920x1080","","","","","","",""
"true","false","[]","[]","[]","preload","1","77907","0.0-1.0","1920x1080","","","","","","",""
"true","false","[]","[]","[]","preload","2","102572","0.0-2.0","1920x1080","","","","","","",""
"true","","","","","fullscreen","3","208663","0.0-3.0","1920x1080","15:5 19/10/2022","","","","","",""
"","","","","","survey-html-form","4","215563","0.0-4.0","1920x1080","","6898.399999999965","{""age"":""21"",""gender"":""Male""}","","","",""
"","","","","","html-button-response","5","254003","0.0-5.0","1920x1080","","38438.70000000001","","<div class=""complex"">You are going to see a series of animations.<br><br></div><div class=""complex"">Move the slider to indicate how <strong style=""text-transform:capitalize"">COMPLEX</strong> you find each animation.<br><br></div><div class=""complex"">0 = Least Complex<br></div><div class=""complex"">1 = Most Complex<br><br></div><div class=""complex"">Remember to use the <strong><em>entire range</em></strong> of the slider to make your ratings.<br></div><div class=""complex"">Please <strong><em>take your time</em></strong> and carefully consider each rating you make.<br><br></div><div class=""complex"">The study has five sections and will take about 45 minutes to complete.<br><br></div>","0","",""
"","","","","","call-function","6","254004","0.0-6.0","1920x1080","","","","","","",""
"","","","","","animation","7","271843","0.0-7.0","1920x1080","","17836.900000000023","36.51","img/238/4.5/1/bw/001.png","","","complex"
"","","","","","animation","8","276419","0.0-8.0","1920x1080","","4574.099999999977","55.03","img/238/3.5/2/bw/001.png","","","complex"
"","","","","","animation","9","282499","0.0-9.0","1920x1080","","6079","22","img/238/5.5/1.5/bw/001.png","","","complex"
"","","","","","animation","10","286611","0.0-10.0","1920x1080","","4111","79","img/314/4/0.5/bw/001.png","","","complex"
"","","","","","animation","11","289443","0.0-11.0","1920x1080","","2830.2000000000116","85.98","img/117/4/0.5/bw/001.png","","","complex"
"","","","","","animation","12","294179","0.0-12.0","1920x1080","","4735.300000000047","86.24","img/117/4/0.66667/bw/001.png","","","complex"
"","","","","","animation","13","309251","0.0-13.0","1920x1080","","15071.400000000023","44.44","img/238/4.5/1.5/bw/001.png","","","complex"
"","","","","","animation","14","318843","0.0-14.0","1920x1080","","9590.900000000023","13.89","img/117/5.5/1/bw/001.png","","","complex"
"","","","","","animation","15","322131","0.0-15.0","1920x1080","","3287.0999999999767","59.66","img/117/4/2/bw/001.png","","","complex"
"","","","","","animation","16","328922","0.0-16.0","1920x1080","","6807","89.95","img/117/4.5/0.5/bw/001.png","","","complex"
"","","","","","animation","17","333722","0.0-17.0","1920x1080","","4799.199999999953","83.73","img/238/4/2/bw/001.png","","","complex"
"","","","","","animation","18","337786","0.0-18.0","1920x1080","","4063.2000000000116","81.75","img/314/4/1/bw/001.png","","","complex"
"","","","","","animation","19","344338","0.0-19.0","1920x1080","","6550.900000000023","59.26","img/238/4/1/bw/001.png","","","complex"
"","","","","","animation","20","349754","0.0-20.0","1920x1080","","5415.299999999988","98","img/238/2.5/0.5/bw/001.png","","","complex"
"","","","","","animation","21","355706","0.0-21.0","1920x1080","","5951.099999999977","96","img/314/3.5/1.5/bw/001.png","","","complex"
"","","","","","animation","22","362362","0.0-22.0","1920x1080","","6655.700000000012","13","img/117/5.5/0.5/bw/001.png","","","complex"
"","","","","","animation","23","370162","0.0-23.0","1920x1080","","7798.900000000023","5","img/238/5.5/0.66667/bw/001.png","","","complex"
"","","","","","animation","24","383418","0.0-24.0","1920x1080","","13255.699999999953","63.76","img/238/4/0.5/bw/001.png","","","complex"
"","","","","","animation","25","392159","0.0-25.0","1920x1080","","8782.5","71.83","img/117/4/1.5/bw/001.png","","","complex"
"","","","","","animation","26","399176","0.0-26.0","1920x1080","","7016.200000000012","93","img/117/3.5/0.5/bw/001.png","","","complex"
"","","","","","animation","27","403143","0.0-27.0","1920x1080","","3966.5","98","img/314/2.5/0.5/bw/001.png","","","complex"
"","","","","","animation","28","421808","0.0-28.0","1920x1080","","18664.699999999953","81.48","img/238/3.5/1/bw/001.png","","","complex"
"","","","","","animation","29","426879","0.0-29.0","1920x1080","","5069.599999999977","9.52","img/314/5.5/0.66667/bw/001.png","","","complex"
"","","","","","animation","30","438255","0.0-30.0","1920x1080","","11375.5","6.88","img/238/5.5/0.5/bw/001.png","","","complex"
"","","","","","animation","31","442423","0.0-31.0","1920x1080","","4167.399999999965","97","img/238/2.5/0.66667/bw/001.png","","","complex"
"","","","","","animation","32","447751","0.0-32.0","1920x1080","","5368.200000000012","16.27","img/117/5.5/2/bw/001.png","","","complex"
"","","","","","animation","33","454790","0.0-33.0","1920x1080","","7038.099999999977","30.95","img/314/4/2/bw/001.png","","","complex"
"","","","","","animation","34","462102","0.0-34.0","1920x1080","","7310.799999999988","20.50","img/314/5.5/1.5/bw/001.png","","","complex"
"","","","","","animation","35","469086","0.0-35.0","1920x1080","","6983.400000000023","58","img/238/3.5/1.5/bw/001.png","","","complex"
"","","","","","animation","36","473167","0.0-36.0","1920x1080","","4080.600000000035","51.06","img/117/4.5/2/bw/001.png","","","complex"
"","","","","","animation","37","476998","0.0-37.0","1920x1080","","3830.2000000000116","59.26","img/117/4/1/bw/001.png","","","complex"
"","","","","","animation","38","481326","0.0-38.0","1920x1080","","4327","99","img/314/2.5/2/bw/001.png","","","complex"
"","","","","","animation","39","484367","0.0-39.0","1920x1080","","3040.2999999999884","100","img/238/2.5/1/bw/001.png","","","complex"
"","","","","","animation","40","490606","0.0-40.0","1920x1080","","6238","7","img/117/5.5/1.5/bw/001.png","","","complex"
"","","","","","animation","41","495286","0.0-41.0","1920x1080","","4679.599999999977","15.74","img/314/4.5/2/bw/001.png","","","complex"
"","","","","","animation","42","499454","0.0-42.0","1920x1080","","4166.400000000023","99","img/314/2.5/1.5/bw/001.png","","","complex"
"","","","","","animation","43","503254","0.0-43.0","1920x1080","","3799.4000000000233","82.67","img/314/3.5/0.5/bw/001.png","","","complex"
"","","","","","animation","44","506962","0.0-44.0","1920x1080","","3743.6999999999534","39.42","img/314/4.5/0.5/bw/001.png","","","complex"
"","","","","","animation","45","515010","0.0-45.0","1920x1080","","8047.099999999977","24.34","img/117/5.5/0.66667/bw/001.png","","","complex"
"","","","","","animation","46","518138","0.0-46.0","1920x1080","","3126.0999999999767","33.99","img/117/4.5/1.5/bw/001.png","","","complex"
"","","","","","animation","47","524482","0.0-47.0","1920x1080","","6343.299999999872","57.28","img/238/4.5/0.5/bw/001.png","","","complex"
"","","","","","animation","48","533634","0.0-48.0","1920x1080","","9150.900000000023","10.32","img/314/5.5/2/bw/001.png","","","complex"
"","","","","","animation","49","539138","0.0-49.0","1920x1080","","5503.5","29","img/314/4.5/1.5/bw/001.png","","","complex"
"","","","","","animation","50","553706","0.0-50.0","1920x1080","","14566.800000000047","72.22","img/117/3.5/1/bw/001.png","","","complex"
"","","","","","animation","51","557042","0.0-51.0","1920x1080","","3335.4000000000233","66.01","img/238/4/0.66667/bw/001.png","","","complex"
"","","","","","animation","52","559754","0.0-52.0","1920x1080","","2710.8000000000466","64.15","img/117/4.5/1/bw/001.png","","","complex"
"","","","","","animation","53","564034","0.0-53.0","1920x1080","","4279.099999999977","65.87","img/314/4.5/1/bw/001.png","","","complex"
"","","","","","animation","54","568075","0.0-54.0","1920x1080","","4080.70000000007","56.48","img/238/4.5/2/bw/001.png","","","complex"
"","","","","","animation","55","573108","0.0-55.0","1920x1080","","5031.600000000093","98","img/238/2.5/2/bw/001.png","","","complex"
"","","","","","animation","56","580042","0.0-56.0","1920x1080","","6933.70000000007","46.56","img/238/4/1.5/bw/001.png","","","complex"
"","","","","","animation","57","584850","0.0-57.0","1920x1080","","4806.600000000093","25.66","img/314/5.5/1/bw/001.png","","","complex"
"","","","","","animation","58","589513","0.0-58.0","1920x1080","","4662.699999999953","98","img/117/2.5/1.5/bw/001.png","","","complex"
"","","","","","animation","59","594129","0.0-59.0","1920x1080","","4615","72.35","img/314/3.5/2/bw/001.png","","","complex"
"","","","","","animation","60","598329","0.0-60.0","1920x1080","","4199","99","img/238/2.5/1.5/bw/001.png","","","complex"
"","","","","","animation","61","603018","0.0-61.0","1920x1080","","4687.599999999977","56.35","img/238/4.5/0.66667/bw/001.png","","","complex"
"","","","","","animation","62","608291","0.0-62.0","1920x1080","","5272.29999999993","85","img/238/3.5/0.66667/bw/001.png","","","complex"
"","","","","","animation","63","611450","0.0-63.0","1920x1080","","3157.9000000000233","82.80","img/314/4/1.5/bw/001.png","","","complex"
"","","","","","animation","64","616561","0.0-64.0","1920x1080","","5110.599999999977","88.76","img/117/3.5/0.66667/bw/001.png","","","complex"
"","","","","","animation","65","619018","0.0-65.0","1920x1080","","2455.9000000000233","99","img/117/2.5/0.66667/bw/001.png","","","complex"
"","","","","","animation","66","623546","0.0-66.0","1920x1080","","4526.900000000023","80.42","img/314/3.5/1/bw/001.png","","","complex"
"","","","","","animation","67","628593","0.0-67.0","1920x1080","","5071.100000000093","51.85","img/314/4.5/0.66667/bw/001.png","","","complex"
"","","","","","animation","68","631409","0.0-68.0","1920x1080","","2814.9000000000233","91.27","img/117/2.5/2/bw/001.png","","","complex"
"","","","","","animation","69","638552","0.0-69.0","1920x1080","","7142.600000000093","83.60","img/314/3.5/0.66667/bw/001.png","","","complex"
"","","","","","animation","70","647067","0.0-70.0","1920x1080","","8513.900000000023","68","img/117/3.5/2/bw/001.png","","","complex"
"","","","","","animation","71","658257","0.0-71.0","1920x1080","","11188.800000000047","56","img/117/4.5/0.66667/bw/001.png","","","complex"
"","","","","","animation","72","661032","0.0-72.0","1920x1080","","2774.8000000000466","69","img/314/4/0.66667/bw/001.png","","","complex"
"","","","","","animation","73","665818","0.0-73.0","1920x1080","","4784.20000000007","98","img/314/2.5/1/bw/001.png","","","complex"
"","","","","","animation","74","669552","0.0-74.0","1920x1080","","3733.5","100","img/117/2.5/0.5/bw/001.png","","","complex"
"","","","","","animation","75","673704","0.0-75.0","1920x1080","","4151.699999999953","99","img/117/2.5/1/bw/001.png","","","complex"
"","","","","","animation","76","681393","0.0-76.0","1920x1080","","7687.20000000007","17.86","img/314/5.5/0.5/bw/001.png","","","complex"
"","","","","","animation","77","687098","0.0-77.0","1920x1080","","5705.29999999993","84.26","img/238/3.5/0.5/bw/001.png","","","complex"
"","","","","","animation","78","694407","0.0-78.0","1920x1080","","7308.800000000047","7.67","img/238/5.5/2/bw/001.png","","","complex"
"","","","","","animation","79","699711","0.0-79.0","1920x1080","","5302.900000000023","11.38","img/238/5.5/1/bw/001.png","","","complex"
"","","","","","animation","80","706375","0.0-80.0","1920x1080","","6662.70000000007","97","img/314/2.5/0.66667/bw/001.png","","","complex"
"","","","","","animation","81","710800","0.0-81.0","1920x1080","","4421.800000000047","85.32","img/117/3.5/1.5/bw/001.png","","","complex"
"","","","","","html-button-response","82","733760","0.0-82.0","1920x1080","","22958.300000000047","","<div class=""intro"">You are about to view a new series of animations.<br><br></div><div class=""intro"">You will evaluate them based on a different descriptor.<br><br></div><div class=""intro"">Move the slider to indicate how <strong style=""text-transform:capitalize"">RELAXING</strong> you find each animation.<br><br></div><div class=""intro"">0 = Least Relaxing<br></div><div class=""intro"">1 = Most Relaxing<br><br></div><div class=""intro"">Remember to use the <strong><em>entire range</em></strong> of the slider to make your ratings.<br></div><div class=""intro"">Please <strong><em>take your time</em></strong> and carefully consider each rating you make.<br><br></div>","0","",""
"","","","","","call-function","83","733762","0.0-83.0","1920x1080","","","","","","",""
"","","","","","animation","84","738959","0.0-84.0","1920x1080","","5196.800000000047","27.12","img/314/3.5/1/bw/001.png","","","relaxing"
"","","","","","animation","85","741465","0.0-85.0","1920x1080","","2504.79999999993","39.29","img/238/3.5/2/bw/001.png","","","relaxing"
"","","","","","animation","86","744655","0.0-86.0","1920x1080","","3189.5999999999767","64.15","img/117/5.5/0.5/bw/001.png","","","relaxing"
"","","","","","animation","87","747740","0.0-87.0","1920x1080","","3086.6999999999534","6.08","img/314/2.5/0.66667/bw/001.png","","","relaxing"
"","","","","","animation","88","750340","0.0-88.0","1920x1080","","2599.100000000093","14.42","img/314/3.5/0.66667/bw/001.png","","","relaxing"
"","","","","","animation","89","753452","0.0-89.0","1920x1080","","3111.0999999999767","2.65","img/238/2.5/0.66667/bw/001.png","","","relaxing"
"","","","","","animation","90","757420","0.0-90.0","1920x1080","","3966.9000000000233","58.73","img/314/4.5/1.5/bw/001.png","","","relaxing"
"","","","","","animation","91","760564","0.0-91.0","1920x1080","","3142.5999999999767","1.59","img/314/2.5/1/bw/001.png","","","relaxing"
"","","","","","animation","92","762716","0.0-92.0","1920x1080","","2151.20000000007","22.62","img/314/4/0.66667/bw/001.png","","","relaxing"
"","","","","","animation","93","765652","0.0-93.0","1920x1080","","2935.1999999999534","28.31","img/314/4/1/bw/001.png","","","relaxing"
"","","","","","animation","94","770156","0.0-94.0","1920x1080","","4503.400000000023","29.37","img/117/4.5/0.66667/bw/001.png","","","relaxing"
"","","","","","animation","95","774404","0.0-95.0","1920x1080","","4246.79999999993","33.33","img/117/3.5/1/bw/001.png","","","relaxing"
"","","","","","animation","96","776964","0.0-96.0","1920x1080","","2558.70000000007","49.34","img/314/4.5/0.66667/bw/001.png","","","relaxing"
"","","","","","animation","97","778956","0.0-97.0","1920x1080","","1991.4000000000233","38.23","img/314/4/2/bw/001.png","","","relaxing"
"","","","","","animation","98","784740","0.0-98.0","1920x1080","","5783","82","img/238/5.5/0.66667/bw/001.png","","","relaxing"
"","","","","","animation","99","787316","0.0-99.0","1920x1080","","2574.79999999993","65.21","img/238/4.5/1.5/bw/001.png","","","relaxing"
"","","","","","animation","100","789397","0.0-100.0","1920x1080","","2080.0999999999767","6.88","img/117/2.5/1.5/bw/001.png","","","relaxing"
"","","","","","animation","101","795724","0.0-101.0","1920x1080","","6326.099999999977","92.46","img/117/5.5/2/bw/001.png","","","relaxing"
"","","","","","animation","102","801446","0.0-102.0","1920x1080","","5720.400000000023","41.14","img/238/4.5/0.5/bw/001.png","","","relaxing"
"","","","","","animation","103","809267","0.0-103.0","1920x1080","","7816.400000000023","91.93","img/238/5.5/1/bw/001.png","","","relaxing"
"","","","","","animation","104","814935","0.0-104.0","1920x1080","","5667.5","98","img/117/5.5/1.5/bw/001.png","","","relaxing"
"","","","","","animation","105","818344","0.0-105.0","1920x1080","","3407.29999999993","30","img/238/3.5/0.5/bw/001.png","","","relaxing"
"","","","","","animation","106","823151","0.0-106.0","1920x1080","","4806.800000000047","90","img/314/5.5/2/bw/001.png","","","relaxing"
"","","","","","animation","107","826624","0.0-107.0","1920x1080","","3471.5","62.96","img/314/4.5/1/bw/001.png","","","relaxing"
"","","","","","animation","108","833335","0.0-108.0","1920x1080","","6710.5","40.48","img/314/4/1.5/bw/001.png","","","relaxing"
"","","","","","animation","109","835449","0.0-109.0","1920x1080","","2112.6999999999534","37.96","img/117/4/1/bw/001.png","","","relaxing"
"","","","","","animation","110","838185","0.0-110.0","1920x1080","","2735.4000000000233","35.45","img/117/4/1.5/bw/001.png","","","relaxing"
"","","","","","animation","111","843683","0.0-111.0","1920x1080","","5496.800000000047","91.14","img/238/5.5/2/bw/001.png","","","relaxing"
"","","","","","animation","112","849632","0.0-112.0","1920x1080","","5947.699999999953","37.70","img/117/4/0.66667/bw/001.png","","","relaxing"
"","","","","","animation","113","852865","0.0-113.0","1920x1080","","3232.4000000000233","53.31","img/238/4/1.5/bw/001.png","","","relaxing"
"","","","","","animation","114","855736","0.0-114.0","1920x1080","","2869.5999999999767","60.05","img/314/4.5/2/bw/001.png","","","relaxing"
"","","","","","animation","115","863351","0.0-115.0","1920x1080","","7614.900000000023","28.04","img/314/3.5/2/bw/001.png","","","relaxing"
"","","","","","animation","116","868871","0.0-116.0","1920x1080","","5519.399999999907","38.62","img/238/4.5/0.66667/bw/001.png","","","relaxing"
"","","","","","animation","117","872807","0.0-117.0","1920x1080","","3935","4","img/314/2.5/1.5/bw/001.png","","","relaxing"
"","","","","","animation","118","876575","0.0-118.0","1920x1080","","3767.20000000007","0","img/117/2.5/0.5/bw/001.png","","","relaxing"
"","","","","","animation","119","880448","0.0-119.0","1920x1080","","3871.9000000000233","9.26","img/238/3.5/0.66667/bw/001.png","","","relaxing"
"","","","","","animation","120","883839","0.0-120.0","1920x1080","","3389.899999999907","18.65","img/314/3.5/1.5/bw/001.png","","","relaxing"
"","","","","","animation","121","886114","0.0-121.0","1920x1080","","2274.4000000000233","19.97","img/117/3.5/2/bw/001.png","","","relaxing"
"","","","","","animation","122","888967","0.0-122.0","1920x1080","","2851.4000000000233","10.05","img/117/4/0.5/bw/001.png","","","relaxing"
"","","","","","animation","123","892623","0.0-123.0","1920x1080","","3654.79999999993","11.51","img/117/3.5/1.5/bw/001.png","","","relaxing"
"","","","","","animation","124","896267","0.0-124.0","1920x1080","","3643.20000000007","2.51","img/117/2.5/0.66667/bw/001.png","","","relaxing"
"","","","","","animation","125","901031","0.0-125.0","1920x1080","","4763.300000000047","82.14","img/314/5.5/1/bw/001.png","","","relaxing"
"","","","","","animation","126","905407","0.0-126.0","1920x1080","","4375.099999999977","4.63","img/117/2.5/2/bw/001.png","","","relaxing"
"","","","","","animation","127","908735","0.0-127.0","1920x1080","","3327.0999999999767","2.12","img/238/2.5/0.5/bw/001.png","","","relaxing"
"","","","","","animation","128","917239","0.0-128.0","1920x1080","","8503.199999999953","98","img/238/5.5/1.5/bw/001.png","","","relaxing"
"","","","","","animation","129","925207","0.0-129.0","1920x1080","","7966.899999999907","94","img/314/5.5/0.66667/bw/001.png","","","relaxing"
"","","","","","animation","130","933605","0.0-130.0","1920x1080","","8398.900000000023","3","img/117/2.5/1/bw/001.png","","","relaxing"
"","","","","","animation","131","939589","0.0-131.0","1920x1080","","5982.900000000023","43.92","img/117/4.5/1/bw/001.png","","","relaxing"
"","","","","","animation","132","943330","0.0-132.0","1920x1080","","3740.1999999999534","53.70","img/314/5.5/1.5/bw/001.png","","","relaxing"
"","","","","","animation","133","948697","0.0-133.0","1920x1080","","5365.399999999907","50.00","img/117/4.5/2/bw/001.png","","","relaxing"
"","","","","","animation","134","952005","0.0-134.0","1920x1080","","3307.5","33.07","img/238/3.5/1/bw/001.png","","","relaxing"
"","","","","","animation","135","957389","0.0-135.0","1920x1080","","5382.70000000007","23.41","img/314/3.5/0.5/bw/001.png","","","relaxing"
"","","","","","animation","136","966230","0.0-136.0","1920x1080","","8839.100000000093","58.60","img/238/4.5/2/bw/001.png","","","relaxing"
"","","","","","animation","137","972653","0.0-137.0","1920x1080","","6422.900000000023","74.74","img/238/5.5/0.5/bw/001.png","","","relaxing"
"","","","","","animation","138","978246","0.0-138.0","1920x1080","","5591.900000000023","42.20","img/238/4/2/bw/001.png","","","relaxing"
"","","","","","animation","139","982317","0.0-139.0","1920x1080","","4070.0999999999767","38.23","img/238/4/1/bw/001.png","","","relaxing"
"","","","","","animation","140","985333","0.0-140.0","1920x1080","","3014.600000000093","2.91","img/314/2.5/0.5/bw/001.png","","","relaxing"
"","","","","","animation","141","992133","0.0-141.0","1920x1080","","6799","28","img/117/4/2/bw/001.png","","","relaxing"
"","","","","","animation","142","1008636","0.0-142.0","1920x1080","","16503","86.24","img/117/5.5/0.66667/bw/001.png","","","relaxing"
"","","","","","animation","143","1016101","0.0-143.0","1920x1080","","7463.000000000116","40.48","img/238/3.5/1.5/bw/001.png","","","relaxing"
"","","","","","animation","144","1019285","0.0-144.0","1920x1080","","3183.100000000093","6.48","img/238/2.5/1/bw/001.png","","","relaxing"
"","","","","","animation","145","1024117","0.0-145.0","1920x1080","","4831","37.04","img/238/4.5/1/bw/001.png","","","relaxing"
"","","","","","animation","146","1027572","0.0-146.0","1920x1080","","3454.899999999907","23.81","img/117/4.5/0.5/bw/001.png","","","relaxing"
"","","","","","animation","147","1030964","0.0-147.0","1920x1080","","3390.899999999907","17.33","img/314/4/0.5/bw/001.png","","","relaxing"
"","","","","","animation","148","1034605","0.0-148.0","1920x1080","","3639.4000000001397","6.22","img/238/2.5/2/bw/001.png","","","relaxing"
"","","","","","animation","149","1037701","0.0-149.0","1920x1080","","3095","3.17","img/238/2.5/1.5/bw/001.png","","","relaxing"
"","","","","","animation","150","1041729","0.0-150.0","1920x1080","","4026.9000000001397","31.48","img/238/4/0.66667/bw/001.png","","","relaxing"
"","","","","","animation","151","1050098","0.0-151.0","1920x1080","","8365.5","89","img/117/5.5/1/bw/001.png","","","relaxing"
"","","","","","animation","152","1055703","0.0-152.0","1920x1080","","5603.699999999953","23","img/117/3.5/0.5/bw/001.png","","","relaxing"
"","","","","","animation","153","1058439","0.0-153.0","1920x1080","","2735.600000000093","24.34","img/238/4/0.5/bw/001.png","","","relaxing"
"","","","","","animation","154","1062482","0.0-154.0","1920x1080","","4041.600000000093","31","img/314/4.5/0.5/bw/001.png","","","relaxing"
"","","","","","animation","155","1065465","0.0-155.0","1920x1080","","2982","8.73","img/314/2.5/2/bw/001.png","","","relaxing"
"","","","","","animation","156","1069239","0.0-156.0","1920x1080","","3773.5","22.49","img/117/3.5/0.66667/bw/001.png","","","relaxing"
"","","","","","animation","157","1072084","0.0-157.0","1920x1080","","2843.6999999999534","74.74","img/314/5.5/0.5/bw/001.png","","","relaxing"
"","","","","","animation","158","1076223","0.0-158.0","1920x1080","","4138.300000000047","66.14","img/117/4.5/1.5/bw/001.png","","","relaxing"
"","","","","","html-button-response","159","1094775","0.0-159.0","1920x1080","","18550.800000000047","","<div class=""intro"">You are about to view a new series of animations.<br><br></div><div class=""intro"">You will evaluate them based on a different descriptor.<br><br></div><div class=""intro"">Move the slider to indicate how <strong style=""text-transform:capitalize"">NATURAL</strong> you find each animation.<br><br></div><div class=""intro"">0 = Least Natural<br></div><div class=""intro"">1 = Most Natural<br><br></div><div class=""intro"">Remember to use the <strong><em>entire range</em></strong> of the slider to make your ratings.<br></div><div class=""intro"">Please <strong><em>take your time</em></strong> and carefully consider each rating you make.<br><br></div>","0","",""
"","","","","","call-function","160","1094776","0.0-160.0","1920x1080","","","","","","",""
"","","","","","animation","161","1101823","0.0-161.0","1920x1080","","7046.90000000014","61.38","img/238/4/2/bw/001.png","","","natural"
"","","","","","animation","162","1104255","0.0-162.0","1920x1080","","2430.8000000000466","54.89","img/117/4/1.5/bw/001.png","","","natural"
"","","","","","animation","163","1107415","0.0-163.0","1920x1080","","3158.8000000000466","2","img/238/2.5/1.5/bw/001.png","","","natural"
"","","","","","animation","164","1110239","0.0-164.0","1920x1080","","2823.4000000001397","3.97","img/314/2.5/2/bw/001.png","","","natural"
"","","","","","animation","165","1113250","0.0-165.0","1920x1080","","3009.399999999907","1.19","img/117/2.5/0.66667/bw/001.png","","","natural"
"","","","","","animation","166","1116183","0.0-166.0","1920x1080","","2931.8000000000466","54.23","img/117/4.5/2/bw/001.png","","","natural"
"","","","","","animation","167","1120055","0.0-167.0","1920x1080","","3871.5","45.63","img/238/4.5/0.66667/bw/001.png","","","natural"
"","","","","","animation","168","1122950","0.0-168.0","1920x1080","","2893.600000000093","38.36","img/117/3.5/2/bw/001.png","","","natural"
"","","","","","animation","169","1125715","0.0-169.0","1920x1080","","2764.4000000001397","40.61","img/314/4/1/bw/001.png","","","natural"
"","","","","","animation","170","1128591","0.0-170.0","1920x1080","","2875.3000000000466","6.48","img/117/2.5/0.5/bw/001.png","","","natural"
"","","","","","animation","171","1132935","0.0-171.0","1920x1080","","4342.699999999953","79","img/117/5.5/1/bw/001.png","","","natural"
"","","","","","animation","172","1135959","0.0-172.0","1920x1080","","3023.5","56.48","img/314/3.5/1/bw/001.png","","","natural"
"","","","","","animation","173","1139175","0.0-173.0","1920x1080","","3214.7000000001863","3.84","img/238/2.5/2/bw/001.png","","","natural"
"","","","","","animation","174","1143432","0.0-174.0","1920x1080","","4255.300000000047","51.32","img/314/4.5/1.5/bw/001.png","","","natural"
"","","","","","animation","175","1150639","0.0-175.0","1920x1080","","7206.5","29","img/314/3.5/1.5/bw/001.png","","","natural"
"","","","","","animation","176","1153348","0.0-176.0","1920x1080","","2707.899999999907","43.25","img/117/4/2/bw/001.png","","","natural"
"","","","","","animation","177","1155423","0.0-177.0","1920x1080","","2074.4000000001397","30.03","img/314/3.5/2/bw/001.png","","","natural"
"","","","","","animation","178","1159319","0.0-178.0","1920x1080","","3894.5999999998603","68.39","img/238/4.5/2/bw/001.png","","","natural"
"","","","","","animation","179","1161175","0.0-179.0","1920x1080","","1854.3000000000466","42.99","img/314/3.5/0.66667/bw/001.png","","","natural"
"","","","","","animation","180","1163991","0.0-180.0","1920x1080","","2813.100000000093","34.26","img/314/4/0.66667/bw/001.png","","","natural"
"","","","","","animation","181","1170256","0.0-181.0","1920x1080","","6263","27.25","img/117/4.5/0.5/bw/001.png","","","natural"
"","","","","","animation","182","1174904","0.0-182.0","1920x1080","","4645.600000000093","15.08","img/238/4/0.66667/bw/001.png","","","natural"
"","","","","","animation","183","1177550","0.0-183.0","1920x1080","","2644.0999999998603","65.87","img/117/5.5/0.5/bw/001.png","","","natural"
"","","","","","animation","184","1188968","0.0-184.0","1920x1080","","11417.399999999907","97","img/238/5.5/2/bw/001.png","","","natural"
"","","","","","animation","185","1193104","0.0-185.0","1920x1080","","4135","65.08","img/238/4.5/1.5/bw/001.png","","","natural"
"","","","","","animation","186","1196184","0.0-186.0","1920x1080","","3078.600000000093","80.69","img/314/5.5/0.66667/bw/001.png","","","natural"
"","","","","","animation","187","1199133","0.0-187.0","1920x1080","","2948","56.08","img/117/4.5/1.5/bw/001.png","","","natural"
"","","","","","animation","188","1200808","0.0-188.0","1920x1080","","1674.1999999999534","48.02","img/314/4/2/bw/001.png","","","natural"
"","","","","","animation","189","1203968","0.0-189.0","1920x1080","","3158.7000000001863","28.31","img/117/4/0.5/bw/001.png","","","natural"
"","","","","","animation","190","1208550","0.0-190.0","1920x1080","","4581.09999999986","19.05","img/314/4/1.5/bw/001.png","","","natural"
"","","","","","animation","191","1210466","0.0-191.0","1920x1080","","1915.2999999998137","31.08","img/117/3.5/1.5/bw/001.png","","","natural"
"","","","","","animation","192","1223824","0.0-192.0","1920x1080","","13357.300000000047","94","img/238/5.5/1.5/bw/001.png","","","natural"
"","","","","","animation","193","1227812","0.0-193.0","1920x1080","","3982.600000000093","46.56","img/314/4.5/0.66667/bw/001.png","","","natural"
"","","","","","animation","194","1231103","0.0-194.0","1920x1080","","3288.8000000000466","50.66","img/238/3.5/2/bw/001.png","","","natural"
"","","","","","animation","195","1234340","0.0-195.0","1920x1080","","3235.5999999998603","95","img/238/5.5/0.66667/bw/001.png","","","natural"
"","","","","","animation","196","1237028","0.0-196.0","1920x1080","","2687","28.17","img/117/3.5/0.5/bw/001.png","","","natural"
"","","","","","animation","197","1239596","0.0-197.0","1920x1080","","2567.100000000093","42.33","img/314/4.5/0.5/bw/001.png","","","natural"
"","","","","","animation","198","1242012","0.0-198.0","1920x1080","","2415","34.92","img/238/4.5/0.5/bw/001.png","","","natural"
"","","","","","animation","199","1245437","0.0-199.0","1920x1080","","3423.5","4.10","img/117/2.5/1.5/bw/001.png","","","natural"
"","","","","","animation","200","1271188","0.0-200.0","1920x1080","","25749.800000000047","86.24","img/117/5.5/0.66667/bw/001.png","","","natural"
"","","","","","animation","201","1273720","0.0-201.0","1920x1080","","2530.8000000000466","27.65","img/238/3.5/0.5/bw/001.png","","","natural"
"","","","","","animation","202","1277737","0.0-202.0","1920x1080","","4015.3000000000466","9.39","img/117/3.5/0.66667/bw/001.png","","","natural"
"","","","","","animation","203","1281644","0.0-203.0","1920x1080","","3906.4000000001397","75.26","img/314/5.5/0.5/bw/001.png","","","natural"
"","","","","","animation","204","1285092","0.0-204.0","1920x1080","","3446.899999999907","90.48","img/117/5.5/1.5/bw/001.png","","","natural"
"","","","","","animation","205","1288521","0.0-205.0","1920x1080","","3430.8000000000466","89.42","img/314/5.5/2/bw/001.png","","","natural"
"","","","","","animation","206","1291484","0.0-206.0","1920x1080","","2961.600000000093","4.37","img/314/2.5/1/bw/001.png","","","natural"
"","","","","","animation","207","1294793","0.0-207.0","1920x1080","","3308.5","10.71","img/314/3.5/0.5/bw/001.png","","","natural"
"","","","","","animation","208","1299593","0.0-208.0","1920x1080","","4798.699999999953","78.31","img/238/5.5/0.5/bw/001.png","","","natural"
"","","","","","animation","209","1302473","0.0-209.0","1920x1080","","2878.600000000093","2.78","img/314/2.5/0.5/bw/001.png","","","natural"
"","","","","","animation","210","1309385","0.0-210.0","1920x1080","","6909.800000000047","84","img/117/5.5/2/bw/001.png","","","natural"
"","","","","","animation","211","1313609","0.0-211.0","1920x1080","","4223","56.75","img/238/4.5/1/bw/001.png","","","natural"
"","","","","","animation","212","1324393","0.0-212.0","1920x1080","","10782.5","34.39","img/117/4/1/bw/001.png","","","natural"
"","","","","","animation","213","1327889","0.0-213.0","1920x1080","","3494.7000000001863","24.87","img/238/4/0.5/bw/001.png","","","natural"
"","","","","","animation","214","1330017","0.0-214.0","1920x1080","","2126.600000000093","5.29","img/238/2.5/1/bw/001.png","","","natural"
"","","","","","animation","215","1333169","0.0-215.0","1920x1080","","3150.5","16.14","img/117/3.5/1/bw/001.png","","","natural"
"","","","","","animation","216","1336135","0.0-216.0","1920x1080","","2965.100000000093","5.82","img/238/3.5/0.66667/bw/001.png","","","natural"
"","","","","","animation","217","1340685","0.0-217.0","1920x1080","","4548","93.78","img/314/5.5/1.5/bw/001.png","","","natural"
"","","","","","animation","218","1343401","0.0-218.0","1920x1080","","2715.1999999999534","59.52","img/314/4.5/1/bw/001.png","","","natural"
"","","","","","animation","219","1346271","0.0-219.0","1920x1080","","2865","46.43","img/117/4.5/0.66667/bw/001.png","","","natural"
"","","","","","animation","220","1349188","0.0-220.0","1920x1080","","2916.600000000093","39.68","img/238/4/1.5/bw/001.png","","","natural"
"","","","","","animation","221","1351797","0.0-221.0","1920x1080","","2607.3000000000466","30.16","img/314/4/0.5/bw/001.png","","","natural"
"","","","","","animation","222","1354904","0.0-222.0","1920x1080","","3106.2999999998137","22.88","img/238/4/1/bw/001.png","","","natural"
"","","","","","animation","223","1362613","0.0-223.0","1920x1080","","7707.699999999953","2","img/238/2.5/0.66667/bw/001.png","","","natural"
"","","","","","animation","224","1365054","0.0-224.0","1920x1080","","2440.0999999998603","15.08","img/238/3.5/1/bw/001.png","","","natural"
"","","","","","animation","225","1368597","0.0-225.0","1920x1080","","3541.5","3.44","img/314/2.5/0.66667/bw/001.png","","","natural"
"","","","","","animation","226","1374493","0.0-226.0","1920x1080","","5894.600000000093","92.46","img/314/5.5/1/bw/001.png","","","natural"
"","","","","","animation","227","1378893","0.0-227.0","1920x1080","","4398.699999999953","76.32","img/314/4.5/2/bw/001.png","","","natural"
"","","","","","animation","228","1381522","0.0-228.0","1920x1080","","2627.7999999998137","3.17","img/117/2.5/1/bw/001.png","","","natural"
"","","","","","animation","229","1386324","0.0-229.0","1920x1080","","4801.699999999953","14.42","img/117/4/0.66667/bw/001.png","","","natural"
"","","","","","animation","230","1391629","0.0-230.0","1920x1080","","5303","24","img/117/4.5/1/bw/001.png","","","natural"
"","","","","","animation","231","1395413","0.0-231.0","1920x1080","","3782.7000000001863","4.10","img/117/2.5/2/bw/001.png","","","natural"
"","","","","","animation","232","1401971","0.0-232.0","1920x1080","","6556.5","0.40","img/238/2.5/0.5/bw/001.png","","","natural"
"","","","","","animation","233","1406335","0.0-233.0","1920x1080","","4365.600000000093","3.57","img/314/2.5/1.5/bw/001.png","","","natural"
"","","","","","animation","234","1414090","0.0-234.0","1920x1080","","7753.899999999907","98","img/238/5.5/1/bw/001.png","","","natural"
"","","","","","animation","235","1417106","0.0-235.0","1920x1080","","3014.1999999999534","35.19","img/238/3.5/1.5/bw/001.png","","","natural"
"","","","","","html-button-response","236","1435585","0.0-236.0","1920x1080","","18477.399999999907","","<div class=""intro"">You are about to view a new series of animations.<br><br></div><div class=""intro"">You will evaluate them based on a different descriptor.<br><br></div><div class=""intro"">Move the slider to indicate how <strong style=""text-transform:capitalize"">INTERESTING</strong> you find each animation.<br><br></div><div class=""intro"">0 = Least Interesting<br></div><div class=""intro"">1 = Most Interesting<br><br></div><div class=""intro"">Remember to use the <strong><em>entire range</em></strong> of the slider to make your ratings.<br></div><div class=""intro"">Please <strong><em>take your time</em></strong> and carefully consider each rating you make.<br><br></div>","0","",""
"","","","","","call-function","237","1435587","0.0-237.0","1920x1080","","","","","","",""
"","","","","","animation","238","1443258","0.0-238.0","1920x1080","","7670.800000000047","54.89","img/117/4/1/bw/001.png","","","interesting"
"","","","","","animation","239","1446786","0.0-239.0","1920x1080","","3526.3000000000466","58.73","img/238/4.5/1/bw/001.png","","","interesting"
"","","","","","animation","240","1448868","0.0-240.0","1920x1080","","2081.600000000093","73","img/117/3.5/0.66667/bw/001.png","","","interesting"
"","","","","","animation","241","1455586","0.0-241.0","1920x1080","","6716.40000000014","16.14","img/117/2.5/0.66667/bw/001.png","","","interesting"
"","","","","","animation","242","1462035","0.0-242.0","1920x1080","","6446.199999999953","93.65","img/238/5.5/0.66667/bw/001.png","","","interesting"
"","","","","","animation","243","1465168","0.0-243.0","1920x1080","","3132.100000000093","70.63","img/314/4.5/0.66667/bw/001.png","","","interesting"
"","","","","","animation","244","1469487","0.0-244.0","1920x1080","","4315.899999999907","43.92","img/117/5.5/2/bw/001.png","","","interesting"
"","","","","","animation","245","1475044","0.0-245.0","1920x1080","","5555.5","79.89","img/117/4/2/bw/001.png","","","interesting"
"","","","","","animation","246","1478303","0.0-246.0","1920x1080","","3258.100000000093","75.53","img/314/4/1.5/bw/001.png","","","interesting"
"","","","","","animation","247","1482772","0.0-247.0","1920x1080","","4467.200000000186","66.93","img/117/3.5/0.5/bw/001.png","","","interesting"
"","","","","","animation","248","1485453","0.0-248.0","1920x1080","","2680.399999999907","79.50","img/314/3.5/2/bw/001.png","","","interesting"
"","","","","","animation","249","1490044","0.0-249.0","1920x1080","","4589.5","49.07","img/238/3.5/2/bw/001.png","","","interesting"
"","","","","","animation","250","1492637","0.0-250.0","1920x1080","","2592.100000000093","61","img/238/4/0.5/bw/001.png","","","interesting"
"","","","","","animation","251","1503828","0.0-251.0","1920x1080","","11189.800000000047","89.68","img/314/2.5/2/bw/001.png","","","interesting"
"","","","","","animation","252","1524660","0.0-252.0","1920x1080","","20830.5","10.05","img/238/2.5/1/bw/001.png","","","interesting"
"","","","","","animation","253","1529218","0.0-253.0","1920x1080","","4556.700000000186","50.93","img/117/4/0.5/bw/001.png","","","interesting"
"","","","","","animation","254","1531885","0.0-254.0","1920x1080","","2666","92.86","img/314/5.5/0.66667/bw/001.png","","","interesting"
"","","","","","animation","255","1535410","0.0-255.0","1920x1080","","3522.4000000001397","9.92","img/314/2.5/1/bw/001.png","","","interesting"
"","","","","","animation","256","1540668","0.0-256.0","1920x1080","","5256.200000000186","100","img/314/5.5/1/bw/001.png","","","interesting"
"","","","","","animation","257","1543874","0.0-257.0","1920x1080","","3204.9000000001397","47.62","img/314/3.5/0.5/bw/001.png","","","interesting"
"","","","","","animation","258","1546770","0.0-258.0","1920x1080","","2894.100000000093","10.71","img/314/2.5/1.5/bw/001.png","","","interesting"
"","","","","","animation","259","1549258","0.0-259.0","1920x1080","","2487.3000000000466","5.16","img/238/2.5/0.5/bw/001.png","","","interesting"
"","","","","","animation","260","1551935","0.0-260.0","1920x1080","","2675.600000000093","35.71","img/238/4/1/bw/001.png","","","interesting"
"","","","","","animation","261","1554901","0.0-261.0","1920x1080","","2965.5","7.28","img/314/2.5/0.5/bw/001.png","","","interesting"
"","","","","","animation","262","1557651","0.0-262.0","1920x1080","","2746.6999999999534","40.08","img/117/3.5/2/bw/001.png","","","interesting"
"","","","","","animation","263","1560026","0.0-263.0","1920x1080","","2373.399999999907","51.98","img/117/4.5/1.5/bw/001.png","","","interesting"
"","","","","","animation","264","1564885","0.0-264.0","1920x1080","","4857.5","91.01","img/117/5.5/1/bw/001.png","","","interesting"
"","","","","","animation","265","1568351","0.0-265.0","1920x1080","","3463.7999999998137","62.96","img/238/4.5/0.66667/bw/001.png","","","interesting"
"","","","","","animation","266","1572090","0.0-266.0","1920x1080","","3737.2999999998137","62.04","img/238/4/1.5/bw/001.png","","","interesting"
"","","","","","animation","267","1574568","0.0-267.0","1920x1080","","2477.2999999998137","50.53","img/117/4.5/0.5/bw/001.png","","","interesting"
"","","","","","animation","268","1579626","0.0-268.0","1920x1080","","5056.399999999907","37.30","img/314/4/0.66667/bw/001.png","","","interesting"
"","","","","","animation","269","1581290","0.0-269.0","1920x1080","","1662.8000000000466","36.24","img/314/4/0.5/bw/001.png","","","interesting"
"","","","","","animation","270","1583570","0.0-270.0","1920x1080","","2278.600000000093","5.56","img/238/2.5/2/bw/001.png","","","interesting"
"","","","","","animation","271","1637673","0.0-271.0","1920x1080","","54103.19999999995","33.73","img/238/3.5/1.5/bw/001.png","","","interesting"
"","","","","","animation","272","1639625","0.0-272.0","1920x1080","","1950.6999999999534","38.76","img/238/4/0.66667/bw/001.png","","","interesting"
"","","","","","animation","273","1642401","0.0-273.0","1920x1080","","2774","82.01","img/117/5.5/1.5/bw/001.png","","","interesting"
"","","","","","animation","274","1644601","0.0-274.0","1920x1080","","2198.899999999907","95","img/238/5.5/1/bw/001.png","","","interesting"
"","","","","","animation","275","1646619","0.0-275.0","1920x1080","","2015.8000000000466","85.58","img/117/5.5/0.66667/bw/001.png","","","interesting"
"","","","","","animation","276","1648371","0.0-276.0","1920x1080","","1750.2999999998137","63.76","img/314/4.5/2/bw/001.png","","","interesting"
"","","","","","animation","277","1650355","0.0-277.0","1920x1080","","1982.8999999999069","31.08","img/238/3.5/0.5/bw/001.png","","","interesting"
"","","","","","animation","278","1652619","0.0-278.0","1920x1080","","2263.600000000093","6","img/314/2.5/0.66667/bw/001.png","","","interesting"
"","","","","","animation","279","1654552","0.0-279.0","1920x1080","","1931.8000000000466","20.50","img/314/3.5/0.66667/bw/001.png","","","interesting"
"","","","","","animation","280","1661411","0.0-280.0","1920x1080","","6857.300000000047","52.25","img/314/3.5/1.5/bw/001.png","","","interesting"
"","","","","","animation","281","1664139","0.0-281.0","1920x1080","","2726.600000000093","56.08","img/314/4/2/bw/001.png","","","interesting"
"","","","","","animation","282","1668771","0.0-282.0","1920x1080","","4631","42.06","img/238/4.5/0.5/bw/001.png","","","interesting"
"","","","","","animation","283","1674155","0.0-283.0","1920x1080","","5382.699999999953","99","img/238/5.5/1.5/bw/001.png","","","interesting"
"","","","","","animation","284","1676707","0.0-284.0","1920x1080","","2551.1999999999534","33.86","img/117/3.5/1.5/bw/001.png","","","interesting"
"","","","","","animation","285","1681319","0.0-285.0","1920x1080","","4609.699999999953","91","img/238/5.5/0.5/bw/001.png","","","interesting"
"","","","","","animation","286","1683491","0.0-286.0","1920x1080","","2170.5","7.01","img/238/2.5/1.5/bw/001.png","","","interesting"
"","","","","","animation","287","1686869","0.0-287.0","1920x1080","","3377","69.44","img/238/4.5/1.5/bw/001.png","","","interesting"
"","","","","","animation","288","1689091","0.0-288.0","1920x1080","","2220.7999999998137","62.04","img/117/4.5/0.66667/bw/001.png","","","interesting"
"","","","","","animation","289","1691086","0.0-289.0","1920x1080","","1994","3.57","img/117/2.5/0.5/bw/001.png","","","interesting"
"","","","","","animation","290","1693769","0.0-290.0","1920x1080","","2682.3000000000466","30.29","img/314/4/1/bw/001.png","","","interesting"
"","","","","","animation","291","1696339","0.0-291.0","1920x1080","","2568.100000000093","5.82","img/238/2.5/0.66667/bw/001.png","","","interesting"
"","","","","","animation","292","1701307","0.0-292.0","1920x1080","","4966.699999999953","74.87","img/117/5.5/0.5/bw/001.png","","","interesting"
"","","","","","animation","293","1705186","0.0-293.0","1920x1080","","3877.399999999907","79.63","img/314/4.5/1.5/bw/001.png","","","interesting"
"","","","","","animation","294","1707652","0.0-294.0","1920x1080","","2466.100000000093","55.16","img/314/4.5/0.5/bw/001.png","","","interesting"
"","","","","","animation","295","1712585","0.0-295.0","1920x1080","","4931.899999999907","62.17","img/117/4.5/2/bw/001.png","","","interesting"
"","","","","","animation","296","1715019","0.0-296.0","1920x1080","","2432.0999999998603","74.34","img/314/5.5/1.5/bw/001.png","","","interesting"
"","","","","","animation","297","1717185","0.0-297.0","1920x1080","","2165.5","86.51","img/314/5.5/0.5/bw/001.png","","","interesting"
"","","","","","animation","298","1719219","0.0-298.0","1920x1080","","2031.8999999999069","10.98","img/117/3.5/1/bw/001.png","","","interesting"
"","","","","","animation","299","1723853","0.0-299.0","1920x1080","","4632.899999999907","51.98","img/117/4.5/1/bw/001.png","","","interesting"
"","","","","","animation","300","1726538","0.0-300.0","1920x1080","","2683.6999999999534","89.95","img/314/5.5/2/bw/001.png","","","interesting"
"","","","","","animation","301","1728669","0.0-301.0","1920x1080","","2125.899999999907","4.37","img/117/2.5/1.5/bw/001.png","","","interesting"
"","","","","","animation","302","1731570","0.0-302.0","1920x1080","","2898.600000000093","2.65","img/117/2.5/2/bw/001.png","","","interesting"
"","","","","","animation","303","1746235","0.0-303.0","1920x1080","","14664.09999999986","19.97","img/314/3.5/1/bw/001.png","","","interesting"
"","","","","","animation","304","1748185","0.0-304.0","1920x1080","","1948.6999999999534","34.92","img/117/4/1.5/bw/001.png","","","interesting"
"","","","","","animation","305","1750736","0.0-305.0","1920x1080","","2549.100000000093","39.15","img/238/4/2/bw/001.png","","","interesting"
"","","","","","animation","306","1753058","0.0-306.0","1920x1080","","2321.899999999907","21.83","img/238/3.5/1/bw/001.png","","","interesting"
"","","","","","animation","307","1755754","0.0-307.0","1920x1080","","2694.5","33.33","img/314/4.5/1/bw/001.png","","","interesting"
"","","","","","animation","308","1757690","0.0-308.0","1920x1080","","1935.0999999998603","3.97","img/117/2.5/1/bw/001.png","","","interesting"
"","","","","","animation","309","1761386","0.0-309.0","1920x1080","","3694.5","37.57","img/117/4/0.66667/bw/001.png","","","interesting"
"","","","","","animation","310","1765374","0.0-310.0","1920x1080","","3987.100000000093","45.24","img/238/3.5/0.66667/bw/001.png","","","interesting"
"","","","","","animation","311","1767633","0.0-311.0","1920x1080","","2259.6999999999534","61.51","img/238/4.5/2/bw/001.png","","","interesting"
"","","","","","animation","312","1778017","0.0-312.0","1920x1080","","10382.299999999814","93","img/238/5.5/2/bw/001.png","","","interesting"
"","","","","","html-button-response","313","1865410","0.0-313.0","1920x1080","","87381.19999999995","","<div class=""intro"">You are about to view a new series of animations.<br><br></div><div class=""intro"">You will evaluate them based on a different descriptor.<br><br></div><div class=""intro"">Move the slider to indicate how <strong style=""text-transform:capitalize"">APPEALING</strong> you find each animation.<br><br></div><div class=""intro"">0 = Least Appealing<br></div><div class=""intro"">1 = Most Appealing<br><br></div><div class=""intro"">Remember to use the <strong><em>entire range</em></strong> of the slider to make your ratings.<br></div><div class=""intro"">Please <strong><em>take your time</em></strong> and carefully consider each rating you make.<br><br></div>","0","",""
"","","","","","call-function","314","1865413","0.0-314.0","1920x1080","","","","","","",""
"","","","","","animation","315","1868514","0.0-315.0","1920x1080","","3100.3000000000466","26.06","img/314/4/1.5/bw/001.png","","","appealing"
"","","","","","animation","316","1870498","0.0-316.0","1920x1080","","1983","9.66","img/314/3.5/0.5/bw/001.png","","","appealing"
"","","","","","animation","317","1873162","0.0-317.0","1920x1080","","2662.8000000000466","62.17","img/314/4.5/1.5/bw/001.png","","","appealing"
"","","","","","animation","318","1875314","0.0-318.0","1920x1080","","2149.6999999999534","46.96","img/238/4/1/bw/001.png","","","appealing"
"","","","","","animation","319","1877378","0.0-319.0","1920x1080","","2062.2999999998137","2.91","img/117/2.5/2/bw/001.png","","","appealing"
"","","","","","animation","320","1880877","0.0-320.0","1920x1080","","3497.6999999999534","29.10","img/117/3.5/0.66667/bw/001.png","","","appealing"
"","","","","","animation","321","1882965","0.0-321.0","1920x1080","","2086.6999999999534","2.65","img/117/2.5/0.66667/bw/001.png","","","appealing"
"","","","","","animation","322","1886059","0.0-322.0","1920x1080","","3093.3000000000466","89.95","img/117/5.5/1.5/bw/001.png","","","appealing"
"","","","","","animation","323","1889346","0.0-323.0","1920x1080","","3285.3000000000466","6.22","img/238/2.5/0.5/bw/001.png","","","appealing"
"","","","","","animation","324","1891627","0.0-324.0","1920x1080","","2279.5999999998603","72.35","img/314/4.5/0.5/bw/001.png","","","appealing"
"","","","","","animation","325","1894743","0.0-325.0","1920x1080","","3114.8000000000466","91.14","img/117/5.5/1/bw/001.png","","","appealing"
"","","","","","animation","326","1898359","0.0-326.0","1920x1080","","3615.5","93.25","img/314/5.5/2/bw/001.png","","","appealing"
"","","","","","animation","327","1900293","0.0-327.0","1920x1080","","1932.5999999998603","47.35","img/238/4.5/0.5/bw/001.png","","","appealing"
"","","","","","animation","328","1902276","0.0-328.0","1920x1080","","1981.6000000000931","36.11","img/117/4.5/0.66667/bw/001.png","","","appealing"
"","","","","","animation","329","1904762","0.0-329.0","1920x1080","","2484.8000000000466","26.98","img/314/4/1/bw/001.png","","","appealing"
"","","","","","animation","330","1907714","0.0-330.0","1920x1080","","2950.399999999907","52.12","img/314/4/2/bw/001.png","","","appealing"
"","","","","","animation","331","1909693","0.0-331.0","1920x1080","","1977.7999999998137","47","img/117/4/0.66667/bw/001.png","","","appealing"
"","","","","","animation","332","1912650","0.0-332.0","1920x1080","","2956","47.49","img/238/3.5/2/bw/001.png","","","appealing"
"","","","","","animation","333","1915330","0.0-333.0","1920x1080","","2678.6999999999534","19.97","img/238/3.5/0.5/bw/001.png","","","appealing"
"","","","","","animation","334","1917314","0.0-334.0","1920x1080","","1982.7999999998137","25.13","img/238/4/0.5/bw/001.png","","","appealing"
"","","","","","animation","335","1919422","0.0-335.0","1920x1080","","2107.4000000001397","35.32","img/117/4/2/bw/001.png","","","appealing"
"","","","","","animation","336","1924178","0.0-336.0","1920x1080","","4753.90000000014","95","img/238/5.5/1/bw/001.png","","","appealing"
"","","","","","animation","337","1927092","0.0-337.0","1920x1080","","2913.399999999907","31.61","img/117/4/0.5/bw/001.png","","","appealing"
"","","","","","animation","338","1930642","0.0-338.0","1920x1080","","3548.9000000001397","67.72","img/238/4.5/1.5/bw/001.png","","","appealing"
"","","","","","animation","339","1936443","0.0-339.0","1920x1080","","5799","32.80","img/238/3.5/1.5/bw/001.png","","","appealing"
"","","","","","animation","340","1942932","0.0-340.0","1920x1080","","6488.300000000047","24","img/314/3.5/1/bw/001.png","","","appealing"
"","","","","","animation","341","1945771","0.0-341.0","1920x1080","","2837","92.72","img/238/5.5/0.66667/bw/001.png","","","appealing"
"","","","","","animation","342","1950409","0.0-342.0","1920x1080","","4637.5","70.77","img/238/4.5/1/bw/001.png","","","appealing"
"","","","","","animation","343","1952777","0.0-343.0","1920x1080","","2366.6999999999534","1.32","img/238/2.5/1.5/bw/001.png","","","appealing"
"","","","","","animation","344","1955227","0.0-344.0","1920x1080","","2448.6999999999534","19.84","img/117/3.5/2/bw/001.png","","","appealing"
"","","","","","animation","345","1959009","0.0-345.0","1920x1080","","3779.3000000000466","43.25","img/314/4.5/0.66667/bw/001.png","","","appealing"
"","","","","","animation","346","1961882","0.0-346.0","1920x1080","","2870.9000000001397","78.31","img/314/5.5/1/bw/001.png","","","appealing"
"","","","","","animation","347","1964603","0.0-347.0","1920x1080","","2720.3000000000466","1.98","img/314/2.5/0.5/bw/001.png","","","appealing"
"","","","","","animation","348","2003826","0.0-348.0","1920x1080","","39220.5","21.69","img/117/4/1/bw/001.png","","","appealing"
"","","","","","animation","349","2008096","0.0-349.0","1920x1080","","4268.09999999986","76","img/117/5.5/0.5/bw/001.png","","","appealing"
"","","","","","animation","350","2010083","0.0-350.0","1920x1080","","1985.8000000000466","2.65","img/314/2.5/2/bw/001.png","","","appealing"
"","","","","","animation","351","2012826","0.0-351.0","1920x1080","","2741.7999999998137","21.56","img/238/3.5/0.66667/bw/001.png","","","appealing"
"","","","","","animation","352","2015346","0.0-352.0","1920x1080","","2518.399999999907","5.42","img/238/2.5/0.66667/bw/001.png","","","appealing"
"","","","","","animation","353","2019578","0.0-353.0","1920x1080","","4230.699999999953","52.51","img/238/4/2/bw/001.png","","","appealing"
"","","","","","animation","354","2021546","0.0-354.0","1920x1080","","1966.8000000000466","5.42","img/314/2.5/1/bw/001.png","","","appealing"
"","","","","","animation","355","2024300","0.0-355.0","1920x1080","","2752.6999999999534","4.76","img/238/2.5/1/bw/001.png","","","appealing"
"","","","","","animation","356","2029287","0.0-356.0","1920x1080","","4985.800000000047","95","img/238/5.5/1.5/bw/001.png","","","appealing"
"","","","","","animation","357","2032266","0.0-357.0","1920x1080","","2978.100000000093","3.31","img/314/2.5/1.5/bw/001.png","","","appealing"
"","","","","","animation","358","2035731","0.0-358.0","1920x1080","","3463.5","34.26","img/314/3.5/0.66667/bw/001.png","","","appealing"
"","","","","","animation","359","2039827","0.0-359.0","1920x1080","","4093.5","71","img/117/5.5/0.66667/bw/001.png","","","appealing"
"","","","","","animation","360","2042601","0.0-360.0","1920x1080","","2773","79.23","img/238/5.5/0.5/bw/001.png","","","appealing"
"","","","","","animation","361","2044410","0.0-361.0","1920x1080","","1807.6999999999534","47.22","img/314/4/0.5/bw/001.png","","","appealing"
"","","","","","animation","362","2047287","0.0-362.0","1920x1080","","2875.8000000000466","6.61","img/117/2.5/0.5/bw/001.png","","","appealing"
"","","","","","animation","363","2057075","0.0-363.0","1920x1080","","9786.5","87.30","img/117/5.5/2/bw/001.png","","","appealing"
"","","","","","animation","364","2059659","0.0-364.0","1920x1080","","2582.2999999998137","6.61","img/117/2.5/1/bw/001.png","","","appealing"
"","","","","","animation","365","2061498","0.0-365.0","1920x1080","","1837.6000000000931","3.31","img/314/2.5/0.66667/bw/001.png","","","appealing"
"","","","","","animation","366","2063718","0.0-366.0","1920x1080","","2219.100000000093","32.01","img/314/3.5/2/bw/001.png","","","appealing"
"","","","","","animation","367","2067994","0.0-367.0","1920x1080","","4273.899999999907","49.21","img/314/4.5/2/bw/001.png","","","appealing"
"","","","","","animation","368","2080962","0.0-368.0","1920x1080","","12966.30000000028","31.35","img/314/3.5/1.5/bw/001.png","","","appealing"
"","","","","","animation","369","2084683","0.0-369.0","1920x1080","","3719.399999999907","89.02","img/314/5.5/0.66667/bw/001.png","","","appealing"
"","","","","","animation","370","2087227","0.0-370.0","1920x1080","","2542.2000000001863","39.29","img/238/4.5/2/bw/001.png","","","appealing"
"","","","","","animation","371","2092077","0.0-371.0","1920x1080","","4849.4000000003725","25.40","img/117/4.5/1/bw/001.png","","","appealing"
"","","","","","animation","372","2094718","0.0-372.0","1920x1080","","2638.600000000093","39.81","img/117/4.5/0.5/bw/001.png","","","appealing"
"","","","","","animation","373","2097394","0.0-373.0","1920x1080","","2675.000000000233","3.70","img/117/2.5/1.5/bw/001.png","","","appealing"
"","","","","","animation","374","2101327","0.0-374.0","1920x1080","","3932.2000000001863","16.01","img/117/3.5/0.5/bw/001.png","","","appealing"
"","","","","","animation","375","2104394","0.0-375.0","1920x1080","","3064.899999999907","23.68","img/238/4.5/0.66667/bw/001.png","","","appealing"
"","","","","","animation","376","2106419","0.0-376.0","1920x1080","","2024.3000000002794","26.46","img/238/4/0.66667/bw/001.png","","","appealing"
"","","","","","animation","377","2108596","0.0-377.0","1920x1080","","2175.7000000001863","42.06","img/314/4.5/1/bw/001.png","","","appealing"
"","","","","","animation","378","2111321","0.0-378.0","1920x1080","","2723.399999999907","50.13","img/117/4.5/1.5/bw/001.png","","","appealing"
"","","","","","animation","379","2113511","0.0-379.0","1920x1080","","2187.600000000093","36.90","img/117/3.5/1.5/bw/001.png","","","appealing"
"","","","","","animation","380","2115378","0.0-380.0","1920x1080","","1865.7999999998137","52.91","img/238/4/1.5/bw/001.png","","","appealing"
"","","","","","animation","381","2117944","0.0-381.0","1920x1080","","2565.399999999907","38.36","img/238/3.5/1/bw/001.png","","","appealing"
"","","","","","animation","382","2119994","0.0-382.0","1920x1080","","2049","56.08","img/117/4.5/2/bw/001.png","","","appealing"
"","","","","","animation","383","2123436","0.0-383.0","1920x1080","","3440.5","6","img/238/2.5/2/bw/001.png","","","appealing"
"","","","","","animation","384","2126234","0.0-384.0","1920x1080","","2807","90.34","img/238/5.5/2/bw/001.png","","","appealing"
"","","","","","animation","385","2129109","0.0-385.0","1920x1080","","2873.5","57.41","img/117/4/1.5/bw/001.png","","","appealing"
"","","","","","animation","386","2131334","0.0-386.0","1920x1080","","2224.1999999997206","43.39","img/314/4/0.66667/bw/001.png","","","appealing"
"","","","","","animation","387","2133601","0.0-387.0","1920x1080","","2265.3000000002794","33.73","img/117/3.5/1/bw/001.png","","","appealing"
"","","","","","animation","388","2138082","0.0-388.0","1920x1080","","4479.399999999907","92","img/314/5.5/1.5/bw/001.png","","","appealing"
"","","","","","animation","389","2142339","0.0-389.0","1920x1080","","4255.399999999907","73.02","img/314/5.5/0.5/bw/001.png","","","appealing"
"","","","","","html-button-response","390","2150002","0.0-390.0","1920x1080","","7659","","<strong>Study Debriefing</strong><br><p class=""debrief""><strong>Background:</strong> The patterns you rated are called <em>fractals</em>. The term fractal describes a class of irregular curves or shapes for which any suitably chosen part is similar in shape to a given larger or smaller part when magnified or reduced to the same size. Fractal properties are found throughout the natural and manmade world. The series of animations you saw today displayed animated fractal patterns of a varying complexity.</p><p class=""debrief""><strong>Purpose of this study:</strong> We hope to better understand how the perception of static fractals differs from the perception of animated fractals, and how the speed of the animated patterns influences people&apos;s perception of them. Fractals allow us to study the perception of aesthetic properties (e.g. the perceived level of beauty in an image) without using recognizable content, which makes them an excellent tool for studying abstract aesthetic judgement.</p><p class=""debrief""><strong>Your part:</strong> Your participation has helped us to further understand how humans perceive these patterns across different levels of speed and complexity. This research with allow us to better understand how the visual system and brain process our ever-changing visual environments.<p class=""debrief""><strong>Feedback and Further information:</strong> If you have additional questions about this study, please feel free to ask the researcher, Nathan Gonzales-Hess at nhess @ uoregon.edu. If you have any questions concerning your rights as a research participant, please contact Research Compliance Services, 5237 University of Oregon, Eugene, OR 97403, 541-346-2510, or email researchCompliance @ uoregon.edu. You can also email the Human Subjects Coordinator for psychology and linguistics research at hscoord @ uoregon.edu. ","0","",""
"","","","","","html-button-response","391","2153894","0.0-391.0","1920x1080","","3889","","Thank you for participating in this study. <br>Please click below to finish the experiment and submit your responses.<br><br>","0","",""
"true","","","","","fullscreen","392","2154909","0.0-392.0","1920x1080","15:39 19/10/2022","","","","","",""
