"success","timeout","failed_images","failed_audio","failed_video","trial_type","trial_index","time_elapsed","internal_node_id","resolution","timeStamp","rt","response","stimulus","button_pressed","value","descriptor"
"true","false","[]","[]","[]","preload","0","3833","0.0-0.0","1920x1080","","","","","","",""
"true","false","[]","[]","[]","preload","1","7650","0.0-1.0","1920x1080","","","","","","",""
"true","false","[]","[]","[]","preload","2","11189","0.0-2.0","1920x1080","","","","","","",""
"true","","","","","fullscreen","3","25161","0.0-3.0","1920x1080","10:38 27/5/2022","","","","","",""
"","","","","","survey-html-form","4","33287","0.0-4.0","1920x1080","","8123.300000071526","{""age"":""19"",""gender"":""Female""}","","","",""
"","","","","","html-button-response","5","71797","0.0-5.0","1920x1080","","38511.39999997616","","<div class=""complex"">You are going to see a series of animations.<br><br></div><div class=""complex"">Move the slider to indicate how <strong style=""text-transform:capitalize"">COMPLEX</strong> you find each animation.<br><br></div><div class=""complex"">0 = Least Complex<br></div><div class=""complex"">1 = Most Complex<br><br></div><div class=""complex"">Remember to use the <strong><em>entire range</em></strong> of the slider to make your ratings.<br></div><div class=""complex"">Please <strong><em>take your time</em></strong> and carefully consider each rating you make.<br><br></div><div class=""complex"">The study has five sections and will take about 45 minutes to complete.<br><br></div>","0","",""
"","","","","","call-function","6","71798","0.0-6.0","1920x1080","","","","","","",""
"","","","","","animation","7","88109","0.0-7.0","1920x1080","","16308.399999976158","49.21","img/117/2.5/2/bw/001.png","","","complex"
"","","","","","animation","8","92476","0.0-8.0","1920x1080","","4365.600000023842","76.46","img/238/2.5/0.5/bw/001.png","","","complex"
"","","","","","animation","9","97444","0.0-9.0","1920x1080","","4967.199999928474","38.10","img/314/2.5/1.5/bw/001.png","","","complex"
"","","","","","animation","10","104430","0.0-10.0","1920x1080","","6983.399999976158","61.51","img/238/4/0.66667/bw/001.png","","","complex"
"","","","","","animation","11","109062","0.0-11.0","1920x1080","","4631.100000023842","19.05","img/238/4.5/0.66667/bw/001.png","","","complex"
"","","","","","animation","12","113511","0.0-12.0","1920x1080","","4448","27.78","img/238/3.5/2/bw/001.png","","","complex"
"","","","","","animation","13","121223","0.0-13.0","1920x1080","","7709.699999928474","53.31","img/238/2.5/1.5/bw/001.png","","","complex"
"","","","","","animation","14","131095","0.0-14.0","1920x1080","","9871.100000023842","40.21","img/117/3.5/2/bw/001.png","","","complex"
"","","","","","animation","15","134727","0.0-15.0","1920x1080","","3630.899999976158","58.20","img/238/3.5/1/bw/001.png","","","complex"
"","","","","","animation","16","138919","0.0-16.0","1920x1080","","4190.899999976158","11.11","img/238/4.5/1.5/bw/001.png","","","complex"
"","","","","","animation","17","142662","0.0-17.0","1920x1080","","3742.7000000476837","24.07","img/117/4/2/bw/001.png","","","complex"
"","","","","","animation","18","147798","0.0-18.0","1920x1080","","5135.100000023842","5.56","img/238/5.5/1/bw/001.png","","","complex"
"","","","","","animation","19","151286","0.0-19.0","1920x1080","","3487.3000000715256","51.06","img/238/3.5/1.5/bw/001.png","","","complex"
"","","","","","animation","20","156046","0.0-20.0","1920x1080","","4759.100000023842","31.88","img/238/4.5/0.5/bw/001.png","","","complex"
"","","","","","animation","21","159775","0.0-21.0","1920x1080","","3727","19.84","img/117/4.5/1/bw/001.png","","","complex"
"","","","","","animation","22","163135","0.0-22.0","1920x1080","","3358.9000000953674","73.41","img/314/3.5/0.66667/bw/001.png","","","complex"
"","","","","","animation","23","165735","0.0-23.0","1920x1080","","2599.2000000476837","88.10","img/314/2.5/0.5/bw/001.png","","","complex"
"","","","","","animation","24","170551","0.0-24.0","1920x1080","","4815.699999928474","2.78","img/238/5.5/0.5/bw/001.png","","","complex"
"","","","","","animation","25","173167","0.0-25.0","1920x1080","","2615.2000000476837","83.60","img/238/2.5/0.66667/bw/001.png","","","complex"
"","","","","","animation","26","176943","0.0-26.0","1920x1080","","3775.399999976158","9.39","img/117/5.5/0.5/bw/001.png","","","complex"
"","","","","","animation","27","180015","0.0-27.0","1920x1080","","3070.899999976158","20.77","img/314/4.5/0.66667/bw/001.png","","","complex"
"","","","","","animation","28","186399","0.0-28.0","1920x1080","","6383.399999976158","4.89","img/314/5.5/1.5/bw/001.png","","","complex"
"","","","","","animation","29","190280","0.0-29.0","1920x1080","","3879.8000000715256","22","img/117/4.5/0.66667/bw/001.png","","","complex"
"","","","","","animation","30","197479","0.0-30.0","1920x1080","","7198.399999976158","79","img/238/3.5/0.5/bw/001.png","","","complex"
"","","","","","animation","31","200215","0.0-31.0","1920x1080","","2735.2000000476837","53.04","img/314/3.5/1/bw/001.png","","","complex"
"","","","","","animation","32","203287","0.0-32.0","1920x1080","","3071.2000000476837","75.40","img/238/2.5/1/bw/001.png","","","complex"
"","","","","","animation","33","206367","0.0-33.0","1920x1080","","3079.600000023842","4.89","img/117/5.5/1/bw/001.png","","","complex"
"","","","","","animation","34","208991","0.0-34.0","1920x1080","","2623.2999999523163","23.15","img/117/4/0.66667/bw/001.png","","","complex"
"","","","","","animation","35","211967","0.0-35.0","1920x1080","","2975.1999999284744","6.88","img/238/5.5/2/bw/001.png","","","complex"
"","","","","","animation","36","214239","0.0-36.0","1920x1080","","2271.399999976158","11.11","img/238/4.5/2/bw/001.png","","","complex"
"","","","","","animation","37","216607","0.0-37.0","1920x1080","","2367.3000000715256","28.70","img/117/4.5/0.5/bw/001.png","","","complex"
"","","","","","animation","38","218696","0.0-38.0","1920x1080","","2087.8000000715256","44.31","img/238/3.5/0.66667/bw/001.png","","","complex"
"","","","","","animation","39","221135","0.0-39.0","1920x1080","","2438","30.69","img/238/4/2/bw/001.png","","","complex"
"","","","","","animation","40","223415","0.0-40.0","1920x1080","","2278.8000000715256","84.52","img/117/2.5/0.66667/bw/001.png","","","complex"
"","","","","","animation","41","225855","0.0-41.0","1920x1080","","2439.7000000476837","9.79","img/238/5.5/1.5/bw/001.png","","","complex"
"","","","","","animation","42","229031","0.0-42.0","1920x1080","","3174.600000023842","31.48","img/314/3.5/2/bw/001.png","","","complex"
"","","","","","animation","43","232615","0.0-43.0","1920x1080","","3583.3000000715256","8.99","img/238/5.5/0.66667/bw/001.png","","","complex"
"","","","","","animation","44","236729","0.0-44.0","1920x1080","","4113.399999976158","87.70","img/314/2.5/0.66667/bw/001.png","","","complex"
"","","","","","animation","45","241239","0.0-45.0","1920x1080","","4509.200000047684","6.35","img/117/5.5/2/bw/001.png","","","complex"
"","","","","","animation","46","243991","0.0-46.0","1920x1080","","2751.100000023842","12.17","img/117/5.5/0.66667/bw/001.png","","","complex"
"","","","","","animation","47","249463","0.0-47.0","1920x1080","","5470.5","12.30","img/314/4.5/2/bw/001.png","","","complex"
"","","","","","animation","48","251896","0.0-48.0","1920x1080","","2432.6999999284744","79.89","img/117/3.5/0.5/bw/001.png","","","complex"
"","","","","","animation","49","254064","0.0-49.0","1920x1080","","2167.1999999284744","59.52","img/314/4/0.66667/bw/001.png","","","complex"
"","","","","","animation","50","256639","0.0-50.0","1920x1080","","2574.399999976158","11.38","img/314/5.5/2/bw/001.png","","","complex"
"","","","","","animation","51","259271","0.0-51.0","1920x1080","","2631.100000023842","22.88","img/314/4.5/0.5/bw/001.png","","","complex"
"","","","","","animation","52","265664","0.0-52.0","1920x1080","","6391.600000023842","26.72","img/238/4/1.5/bw/001.png","","","complex"
"","","","","","animation","53","268207","0.0-53.0","1920x1080","","2542.600000023842","46.69","img/117/3.5/1/bw/001.png","","","complex"
"","","","","","animation","54","270951","0.0-54.0","1920x1080","","2742.5999999046326","30.95","img/314/4/2/bw/001.png","","","complex"
"","","","","","animation","55","273129","0.0-55.0","1920x1080","","2177.2000000476837","20.77","img/314/4.5/1.5/bw/001.png","","","complex"
"","","","","","animation","56","275807","0.0-56.0","1920x1080","","2677.3000000715256","34.66","img/314/4/1.5/bw/001.png","","","complex"
"","","","","","animation","57","277746","0.0-57.0","1920x1080","","1938.2000000476837","36.38","img/117/4.5/2/bw/001.png","","","complex"
"","","","","","animation","58","282799","0.0-58.0","1920x1080","","5052","60.85","img/314/4/0.5/bw/001.png","","","complex"
"","","","","","animation","59","285623","0.0-59.0","1920x1080","","2823.5","11.51","img/314/5.5/0.5/bw/001.png","","","complex"
"","","","","","animation","60","292880","0.0-60.0","1920x1080","","7256.299999952316","46.43","img/117/4/0.5/bw/001.png","","","complex"
"","","","","","animation","61","294912","0.0-61.0","1920x1080","","2030.7999999523163","15.21","img/117/4.5/1.5/bw/001.png","","","complex"
"","","","","","animation","62","297863","0.0-62.0","1920x1080","","2950.2999999523163","89.68","img/238/2.5/2/bw/001.png","","","complex"
"","","","","","animation","63","301215","0.0-63.0","1920x1080","","3350.9000000953674","84.26","img/314/3.5/0.5/bw/001.png","","","complex"
"","","","","","animation","64","304079","0.0-64.0","1920x1080","","2863.2000000476837","59.79","img/117/4/1.5/bw/001.png","","","complex"
"","","","","","animation","65","307513","0.0-65.0","1920x1080","","3432.5","93.78","img/117/2.5/1/bw/001.png","","","complex"
"","","","","","animation","66","310791","0.0-66.0","1920x1080","","3277.600000023842","69.05","img/238/4/0.5/bw/001.png","","","complex"
"","","","","","animation","67","315775","0.0-67.0","1920x1080","","4983","36","img/238/4.5/1/bw/001.png","","","complex"
"","","","","","animation","68","319063","0.0-68.0","1920x1080","","3286.5","43.52","img/238/4/1/bw/001.png","","","complex"
"","","","","","animation","69","322912","0.0-69.0","1920x1080","","3848.5","62.57","img/117/3.5/0.66667/bw/001.png","","","complex"
"","","","","","animation","70","326799","0.0-70.0","1920x1080","","3885.9000000953674","30.29","img/117/4/1/bw/001.png","","","complex"
"","","","","","animation","71","329831","0.0-71.0","1920x1080","","3031","87.04","img/314/2.5/1/bw/001.png","","","complex"
"","","","","","animation","72","333863","0.0-72.0","1920x1080","","4031.3000000715256","78.04","img/314/2.5/2/bw/001.png","","","complex"
"","","","","","animation","73","338095","0.0-73.0","1920x1080","","4230.600000023842","5.69","img/314/5.5/0.66667/bw/001.png","","","complex"
"","","","","","animation","74","341735","0.0-74.0","1920x1080","","3639.7999999523163","83.99","img/117/2.5/1.5/bw/001.png","","","complex"
"","","","","","animation","75","343982","0.0-75.0","1920x1080","","2246.5","63.76","img/314/3.5/1.5/bw/001.png","","","complex"
"","","","","","animation","76","346129","0.0-76.0","1920x1080","","2145.7999999523163","52.65","img/314/4.5/1/bw/001.png","","","complex"
"","","","","","animation","77","349623","0.0-77.0","1920x1080","","3492.8000000715256","23.94","img/314/5.5/1/bw/001.png","","","complex"
"","","","","","animation","78","351862","0.0-78.0","1920x1080","","2238.3000000715256","56.08","img/117/3.5/1.5/bw/001.png","","","complex"
"","","","","","animation","79","354366","0.0-79.0","1920x1080","","2503.5","97","img/117/2.5/0.5/bw/001.png","","","complex"
"","","","","","animation","80","358671","0.0-80.0","1920x1080","","4303.5","7.94","img/117/5.5/1.5/bw/001.png","","","complex"
"","","","","","animation","81","361455","0.0-81.0","1920x1080","","2783","23.68","img/314/4/1/bw/001.png","","","complex"
"","","","","","html-button-response","82","414350","0.0-82.0","1920x1080","","52895.09999990463","","<div class=""intro"">You are about to view a new series of animations.<br><br></div><div class=""intro"">You will evaluate them based on a different descriptor.<br><br></div><div class=""intro"">Move the slider to indicate how <strong style=""text-transform:capitalize"">NATURAL</strong> you find each animation.<br><br></div><div class=""intro"">0 = Least Natural<br></div><div class=""intro"">1 = Most Natural<br><br></div><div class=""intro"">Remember to use the <strong><em>entire range</em></strong> of the slider to make your ratings.<br></div><div class=""intro"">Please <strong><em>take your time</em></strong> and carefully consider each rating you make.<br><br></div>","0","",""
"","","","","","call-function","83","414355","0.0-83.0","1920x1080","","","","","","",""
"","","","","","animation","84","426213","0.0-84.0","1920x1080","","11857.600000023842","96","img/117/4/2/bw/001.png","","","natural"
"","","","","","animation","85","431561","0.0-85.0","1920x1080","","5345.799999952316","73.54","img/238/4/1.5/bw/001.png","","","natural"
"","","","","","animation","86","435590","0.0-86.0","1920x1080","","4027.9000000953674","27.38","img/238/3.5/0.66667/bw/001.png","","","natural"
"","","","","","animation","87","439638","0.0-87.0","1920x1080","","4046.899999976158","9.52","img/238/2.5/1/bw/001.png","","","natural"
"","","","","","animation","88","443829","0.0-88.0","1920x1080","","4190.799999952316","3.17","img/314/2.5/0.66667/bw/001.png","","","natural"
"","","","","","animation","89","448638","0.0-89.0","1920x1080","","4807.300000071526","0","img/238/2.5/0.5/bw/001.png","","","natural"
"","","","","","animation","90","452213","0.0-90.0","1920x1080","","3574.0999999046326","59.79","img/117/4.5/1/bw/001.png","","","natural"
"","","","","","animation","91","454565","0.0-91.0","1920x1080","","2351.100000023842","40.74","img/238/3.5/2/bw/001.png","","","natural"
"","","","","","animation","92","459177","0.0-92.0","1920x1080","","4610.700000047684","52","img/117/4.5/0.66667/bw/001.png","","","natural"
"","","","","","animation","93","463531","0.0-93.0","1920x1080","","4355.900000095367","62.83","img/117/4.5/1.5/bw/001.png","","","natural"
"","","","","","animation","94","468058","0.0-94.0","1920x1080","","4526.599999904633","69.58","img/117/4/1.5/bw/001.png","","","natural"
"","","","","","animation","95","472725","0.0-95.0","1920x1080","","4666.100000023842","67.86","img/238/4.5/1.5/bw/001.png","","","natural"
"","","","","","animation","96","476963","0.0-96.0","1920x1080","","4236.200000047684","78.04","img/314/5.5/0.66667/bw/001.png","","","natural"
"","","","","","animation","97","479234","0.0-97.0","1920x1080","","2270.6999999284744","11.38","img/117/2.5/2/bw/001.png","","","natural"
"","","","","","animation","98","482159","0.0-98.0","1920x1080","","2923.3000000715256","83.86","img/314/5.5/1/bw/001.png","","","natural"
"","","","","","animation","99","484267","0.0-99.0","1920x1080","","2107","53.31","img/117/4/1/bw/001.png","","","natural"
"","","","","","animation","100","486747","0.0-100.0","1920x1080","","2479.2000000476837","8.60","img/314/2.5/1.5/bw/001.png","","","natural"
"","","","","","animation","101","490610","0.0-101.0","1920x1080","","3862.7999999523163","42.59","img/314/3.5/1/bw/001.png","","","natural"
"","","","","","animation","102","493508","0.0-102.0","1920x1080","","2896.2000000476837","2.51","img/314/2.5/0.5/bw/001.png","","","natural"
"","","","","","animation","103","499819","0.0-103.0","1920x1080","","6310.399999976158","57","img/238/4/1/bw/001.png","","","natural"
"","","","","","animation","104","502579","0.0-104.0","1920x1080","","2759.0999999046326","61.11","img/238/4/2/bw/001.png","","","natural"
"","","","","","animation","105","505691","0.0-105.0","1920x1080","","3111.1999999284744","6.61","img/314/2.5/2/bw/001.png","","","natural"
"","","","","","animation","106","511108","0.0-106.0","1920x1080","","5415.899999976158","56.22","img/238/4.5/0.66667/bw/001.png","","","natural"
"","","","","","animation","107","513843","0.0-107.0","1920x1080","","2734.2000000476837","17.33","img/117/3.5/0.5/bw/001.png","","","natural"
"","","","","","animation","108","516531","0.0-108.0","1920x1080","","2687.0999999046326","3.97","img/117/2.5/0.5/bw/001.png","","","natural"
"","","","","","animation","109","519827","0.0-109.0","1920x1080","","3294","75.00","img/117/5.5/1/bw/001.png","","","natural"
"","","","","","animation","110","521974","0.0-110.0","1920x1080","","2146.8000000715256","48.41","img/314/4/1/bw/001.png","","","natural"
"","","","","","animation","111","524608","0.0-111.0","1920x1080","","2635.600000023842","30.29","img/314/4/0.5/bw/001.png","","","natural"
"","","","","","animation","112","527096","0.0-112.0","1920x1080","","2487.5","6.61","img/117/2.5/0.66667/bw/001.png","","","natural"
"","","","","","animation","113","530538","0.0-113.0","1920x1080","","3441","30","img/117/4/0.5/bw/001.png","","","natural"
"","","","","","animation","114","532589","0.0-114.0","1920x1080","","2050.3000000715256","9.79","img/314/2.5/1/bw/001.png","","","natural"
"","","","","","animation","115","535088","0.0-115.0","1920x1080","","2498.100000023842","78.57","img/117/5.5/0.66667/bw/001.png","","","natural"
"","","","","","animation","116","537248","0.0-116.0","1920x1080","","2159.1999999284744","7.80","img/117/2.5/1.5/bw/001.png","","","natural"
"","","","","","animation","117","539356","0.0-117.0","1920x1080","","2106.899999976158","64.42","img/117/4.5/2/bw/001.png","","","natural"
"","","","","","animation","118","543289","0.0-118.0","1920x1080","","3932.2000000476837","66.40","img/314/4.5/1.5/bw/001.png","","","natural"
"","","","","","animation","119","545600","0.0-119.0","1920x1080","","2310.1999999284744","2.65","img/238/2.5/2/bw/001.png","","","natural"
"","","","","","animation","120","548689","0.0-120.0","1920x1080","","3087.2000000476837","26.72","img/314/3.5/0.66667/bw/001.png","","","natural"
"","","","","","animation","121","552722","0.0-121.0","1920x1080","","4033.100000023842","52.12","img/117/3.5/1.5/bw/001.png","","","natural"
"","","","","","animation","122","555664","0.0-122.0","1920x1080","","2941","61.77","img/314/4/2/bw/001.png","","","natural"
"","","","","","animation","123","558960","0.0-123.0","1920x1080","","3294.899999976158","65.48","img/314/3.5/2/bw/001.png","","","natural"
"","","","","","animation","124","564032","0.0-124.0","1920x1080","","5070.899999976158","78","img/238/4.5/2/bw/001.png","","","natural"
"","","","","","animation","125","566808","0.0-125.0","1920x1080","","2773.899999976158","63.23","img/238/4/0.66667/bw/001.png","","","natural"
"","","","","","animation","126","570280","0.0-126.0","1920x1080","","3471.5","53.31","img/314/4.5/0.66667/bw/001.png","","","natural"
"","","","","","animation","127","573048","0.0-127.0","1920x1080","","2767","59.52","img/117/3.5/2/bw/001.png","","","natural"
"","","","","","animation","128","576074","0.0-128.0","1920x1080","","3024.5","89.02","img/238/5.5/1.5/bw/001.png","","","natural"
"","","","","","animation","129","578096","0.0-129.0","1920x1080","","2021.2000000476837","50.00","img/117/3.5/1/bw/001.png","","","natural"
"","","","","","animation","130","580232","0.0-130.0","1920x1080","","2135.399999976158","60.58","img/314/3.5/1.5/bw/001.png","","","natural"
"","","","","","animation","131","582925","0.0-131.0","1920x1080","","2695.1999999284744","69.31","img/117/5.5/0.5/bw/001.png","","","natural"
"","","","","","animation","132","586125","0.0-132.0","1920x1080","","3198.899999976158","66.27","img/238/4.5/1/bw/001.png","","","natural"
"","","","","","animation","133","588536","0.0-133.0","1920x1080","","2409.7999999523163","51.59","img/117/4.5/0.5/bw/001.png","","","natural"
"","","","","","animation","134","591335","0.0-134.0","1920x1080","","2798.2999999523163","63.10","img/314/4.5/1/bw/001.png","","","natural"
"","","","","","animation","135","594109","0.0-135.0","1920x1080","","2772.9000000953674","77.25","img/314/5.5/0.5/bw/001.png","","","natural"
"","","","","","animation","136","595989","0.0-136.0","1920x1080","","1879.1999999284744","54.10","img/314/4/1.5/bw/001.png","","","natural"
"","","","","","animation","137","598357","0.0-137.0","1920x1080","","2367.2999999523163","82.67","img/238/5.5/0.66667/bw/001.png","","","natural"
"","","","","","animation","138","600136","0.0-138.0","1920x1080","","1778","57.94","img/314/4.5/0.5/bw/001.png","","","natural"
"","","","","","animation","139","603204","0.0-139.0","1920x1080","","3068.2000000476837","29.63","img/314/3.5/0.5/bw/001.png","","","natural"
"","","","","","animation","140","608335","0.0-140.0","1920x1080","","5130","25.66","img/238/5.5/0.5/bw/001.png","","","natural"
"","","","","","animation","141","610772","0.0-141.0","1920x1080","","2436.100000023842","11.11","img/117/2.5/1/bw/001.png","","","natural"
"","","","","","animation","142","612941","0.0-142.0","1920x1080","","2167.399999976158","35.19","img/238/3.5/1.5/bw/001.png","","","natural"
"","","","","","animation","143","618461","0.0-143.0","1920x1080","","5519","96","img/238/5.5/2/bw/001.png","","","natural"
"","","","","","animation","144","621185","0.0-144.0","1920x1080","","2723.5","41.53","img/238/3.5/0.5/bw/001.png","","","natural"
"","","","","","animation","145","623293","0.0-145.0","1920x1080","","2106.600000023842","58.33","img/314/4.5/2/bw/001.png","","","natural"
"","","","","","animation","146","625069","0.0-146.0","1920x1080","","1775","72.35","img/238/5.5/1/bw/001.png","","","natural"
"","","","","","animation","147","628261","0.0-147.0","1920x1080","","3191.100000023842","43.78","img/238/3.5/1/bw/001.png","","","natural"
"","","","","","animation","148","631645","0.0-148.0","1920x1080","","3383","88.23","img/314/5.5/1.5/bw/001.png","","","natural"
"","","","","","animation","149","634261","0.0-149.0","1920x1080","","2615.100000023842","85.71","img/117/5.5/1.5/bw/001.png","","","natural"
"","","","","","animation","150","636420","0.0-150.0","1920x1080","","2158.600000023842","57.94","img/238/4/0.5/bw/001.png","","","natural"
"","","","","","animation","151","638537","0.0-151.0","1920x1080","","2115.399999976158","82.28","img/117/5.5/2/bw/001.png","","","natural"
"","","","","","animation","152","640935","0.0-152.0","1920x1080","","2397.7000000476837","8.73","img/238/2.5/0.66667/bw/001.png","","","natural"
"","","","","","animation","153","643122","0.0-153.0","1920x1080","","2188.600000023842","33.47","img/117/4/0.66667/bw/001.png","","","natural"
"","","","","","animation","154","646649","0.0-154.0","1920x1080","","3526.8000000715256","25.13","img/117/3.5/0.66667/bw/001.png","","","natural"
"","","","","","animation","155","649154","0.0-155.0","1920x1080","","2503.399999976158","59.39","img/238/4.5/0.5/bw/001.png","","","natural"
"","","","","","animation","156","652233","0.0-156.0","1920x1080","","3078.600000023842","97","img/314/5.5/2/bw/001.png","","","natural"
"","","","","","animation","157","654599","0.0-157.0","1920x1080","","2364.600000023842","1.32","img/238/2.5/1.5/bw/001.png","","","natural"
"","","","","","animation","158","660217","0.0-158.0","1920x1080","","5617.700000047684","46.43","img/314/4/0.66667/bw/001.png","","","natural"
"","","","","","html-button-response","159","679333","0.0-159.0","1920x1080","","19114.700000047684","","<div class=""intro"">You are about to view a new series of animations.<br><br></div><div class=""intro"">You will evaluate them based on a different descriptor.<br><br></div><div class=""intro"">Move the slider to indicate how <strong style=""text-transform:capitalize"">RELAXING</strong> you find each animation.<br><br></div><div class=""intro"">0 = Least Relaxing<br></div><div class=""intro"">1 = Most Relaxing<br><br></div><div class=""intro"">Remember to use the <strong><em>entire range</em></strong> of the slider to make your ratings.<br></div><div class=""intro"">Please <strong><em>take your time</em></strong> and carefully consider each rating you make.<br><br></div>","0","",""
"","","","","","call-function","160","679334","0.0-160.0","1920x1080","","","","","","",""
"","","","","","animation","161","682532","0.0-161.0","1920x1080","","3197.899999976158","88.10","img/238/5.5/1/bw/001.png","","","relaxing"
"","","","","","animation","162","685866","0.0-162.0","1920x1080","","3331.3000000715256","92.99","img/238/5.5/0.66667/bw/001.png","","","relaxing"
"","","","","","animation","163","688858","0.0-163.0","1920x1080","","2991","37.30","img/238/4/0.66667/bw/001.png","","","relaxing"
"","","","","","animation","164","691499","0.0-164.0","1920x1080","","2640.399999976158","32.67","img/314/3.5/0.66667/bw/001.png","","","relaxing"
"","","","","","animation","165","695033","0.0-165.0","1920x1080","","3533.399999976158","-2.12","img/117/2.5/0.5/bw/001.png","","","relaxing"
"","","","","","animation","166","701549","0.0-166.0","1920x1080","","6515.200000047684","51.19","img/314/4.5/0.66667/bw/001.png","","","relaxing"
"","","","","","animation","167","704681","0.0-167.0","1920x1080","","3131.8000000715256","10","img/238/2.5/1/bw/001.png","","","relaxing"
"","","","","","animation","168","707320","0.0-168.0","1920x1080","","2638.399999976158","78.17","img/117/4/2/bw/001.png","","","relaxing"
"","","","","","animation","169","710131","0.0-169.0","1920x1080","","2809.7000000476837","0.00","img/117/2.5/0.66667/bw/001.png","","","relaxing"
"","","","","","animation","170","713747","0.0-170.0","1920x1080","","3615.5","32.54","img/238/3.5/0.66667/bw/001.png","","","relaxing"
"","","","","","animation","171","716336","0.0-171.0","1920x1080","","2587.899999976158","38.62","img/117/4/0.66667/bw/001.png","","","relaxing"
"","","","","","animation","172","719052","0.0-172.0","1920x1080","","2715.100000023842","7.54","img/238/2.5/1.5/bw/001.png","","","relaxing"
"","","","","","animation","173","722672","0.0-173.0","1920x1080","","3618.5","100","img/314/5.5/1.5/bw/001.png","","","relaxing"
"","","","","","animation","174","726184","0.0-174.0","1920x1080","","3510.3000000715256","66.80","img/238/3.5/2/bw/001.png","","","relaxing"
"","","","","","animation","175","730131","0.0-175.0","1920x1080","","3946","10","img/314/3.5/0.5/bw/001.png","","","relaxing"
"","","","","","animation","176","733597","0.0-176.0","1920x1080","","3465.2999999523163","98","img/238/5.5/1.5/bw/001.png","","","relaxing"
"","","","","","animation","177","735984","0.0-177.0","1920x1080","","2384","77","img/238/3.5/1.5/bw/001.png","","","relaxing"
"","","","","","animation","178","742432","0.0-178.0","1920x1080","","6446.899999976158","51.46","img/314/4/0.66667/bw/001.png","","","relaxing"
"","","","","","animation","179","745297","0.0-179.0","1920x1080","","2864.399999976158","36","img/117/3.5/0.5/bw/001.png","","","relaxing"
"","","","","","animation","180","748897","0.0-180.0","1920x1080","","3599.3000000715256","83","img/117/5.5/0.66667/bw/001.png","","","relaxing"
"","","","","","animation","181","751054","0.0-181.0","1920x1080","","2155.4000000953674","61","img/117/4.5/2/bw/001.png","","","relaxing"
"","","","","","animation","182","754000","0.0-182.0","1920x1080","","2944.8000000715256","56.22","img/117/4/1.5/bw/001.png","","","relaxing"
"","","","","","animation","183","757314","0.0-183.0","1920x1080","","3313","90","img/238/5.5/0.5/bw/001.png","","","relaxing"
"","","","","","animation","184","760181","0.0-184.0","1920x1080","","2866.100000023842","58.99","img/238/4.5/0.5/bw/001.png","","","relaxing"
"","","","","","animation","185","766999","0.0-185.0","1920x1080","","6818.300000071526","4.37","img/117/2.5/1.5/bw/001.png","","","relaxing"
"","","","","","animation","186","770304","0.0-186.0","1920x1080","","3303.5","94.18","img/314/5.5/2/bw/001.png","","","relaxing"
"","","","","","animation","187","773768","0.0-187.0","1920x1080","","3462.600000023842","57.41","img/238/4.5/0.66667/bw/001.png","","","relaxing"
"","","","","","animation","188","776952","0.0-188.0","1920x1080","","3182.7999999523163","0","img/117/2.5/2/bw/001.png","","","relaxing"
"","","","","","animation","189","780568","0.0-189.0","1920x1080","","3615.100000023842","65","img/238/4/2/bw/001.png","","","relaxing"
"","","","","","animation","190","784431","0.0-190.0","1920x1080","","3862.7000000476837","1","img/314/2.5/0.5/bw/001.png","","","relaxing"
"","","","","","animation","191","786864","0.0-191.0","1920x1080","","2431.2000000476837","31.08","img/314/4/0.5/bw/001.png","","","relaxing"
"","","","","","animation","192","789164","0.0-192.0","1920x1080","","2299.399999976158","38.23","img/314/3.5/1/bw/001.png","","","relaxing"
"","","","","","animation","193","792814","0.0-193.0","1920x1080","","3649","97","img/238/5.5/2/bw/001.png","","","relaxing"
"","","","","","animation","194","795320","0.0-194.0","1920x1080","","2504.8000000715256","61.64","img/314/3.5/1.5/bw/001.png","","","relaxing"
"","","","","","animation","195","800000","0.0-195.0","1920x1080","","4678.699999928474","66.67","img/238/4.5/2/bw/001.png","","","relaxing"
"","","","","","animation","196","802364","0.0-196.0","1920x1080","","2362.899999976158","26.98","img/117/4/0.5/bw/001.png","","","relaxing"
"","","","","","animation","197","804681","0.0-197.0","1920x1080","","2315.899999976158","1.59","img/314/2.5/2/bw/001.png","","","relaxing"
"","","","","","animation","198","807783","0.0-198.0","1920x1080","","3101.8000000715256","1.72","img/238/4/0.5/bw/001.png","","","relaxing"
"","","","","","animation","199","810614","0.0-199.0","1920x1080","","2829.5","37.96","img/314/4/2/bw/001.png","","","relaxing"
"","","","","","animation","200","812888","0.0-200.0","1920x1080","","2272.9000000953674","55.03","img/117/4.5/1/bw/001.png","","","relaxing"
"","","","","","animation","201","815688","0.0-201.0","1920x1080","","2799","0.53","img/314/2.5/1/bw/001.png","","","relaxing"
"","","","","","animation","202","820681","0.0-202.0","1920x1080","","4991.699999928474","63","img/117/4.5/1.5/bw/001.png","","","relaxing"
"","","","","","animation","203","823167","0.0-203.0","1920x1080","","2485.899999976158","58.86","img/238/4.5/1.5/bw/001.png","","","relaxing"
"","","","","","animation","204","825586","0.0-204.0","1920x1080","","2418.100000023842","31.61","img/117/3.5/0.66667/bw/001.png","","","relaxing"
"","","","","","animation","205","828830","0.0-205.0","1920x1080","","3242","3.57","img/314/2.5/0.66667/bw/001.png","","","relaxing"
"","","","","","animation","206","833197","0.0-206.0","1920x1080","","4366","31.35","img/314/4/1/bw/001.png","","","relaxing"
"","","","","","animation","207","837064","0.0-207.0","1920x1080","","3865.899999976158","50.40","img/117/4.5/0.66667/bw/001.png","","","relaxing"
"","","","","","animation","208","839932","0.0-208.0","1920x1080","","2867.5","65.48","img/238/4.5/1/bw/001.png","","","relaxing"
"","","","","","animation","209","844397","0.0-209.0","1920x1080","","4464.100000023842","54.10","img/314/4.5/0.5/bw/001.png","","","relaxing"
"","","","","","animation","210","849713","0.0-210.0","1920x1080","","5315.5","40","img/117/3.5/1/bw/001.png","","","relaxing"
"","","","","","animation","211","853902","0.0-211.0","1920x1080","","4187.699999928474","19.44","img/117/4/1/bw/001.png","","","relaxing"
"","","","","","animation","212","856167","0.0-212.0","1920x1080","","2263.1999999284744","2.25","img/238/2.5/0.5/bw/001.png","","","relaxing"
"","","","","","animation","213","861919","0.0-213.0","1920x1080","","5751.200000047684","61.64","img/314/4.5/1.5/bw/001.png","","","relaxing"
"","","","","","animation","214","864335","0.0-214.0","1920x1080","","2414.8000000715256","74.21","img/314/4.5/1/bw/001.png","","","relaxing"
"","","","","","animation","215","867383","0.0-215.0","1920x1080","","3046.2999999523163","98","img/117/5.5/2/bw/001.png","","","relaxing"
"","","","","","animation","216","873151","0.0-216.0","1920x1080","","5766.700000047684","77.12","img/117/4.5/0.5/bw/001.png","","","relaxing"
"","","","","","animation","217","875471","0.0-217.0","1920x1080","","2317.899999976158","94.97","img/314/5.5/0.5/bw/001.png","","","relaxing"
"","","","","","animation","218","878383","0.0-218.0","1920x1080","","2910.7999999523163","73.41","img/314/4/1.5/bw/001.png","","","relaxing"
"","","","","","animation","219","881331","0.0-219.0","1920x1080","","2946.600000023842","10.98","img/238/3.5/0.5/bw/001.png","","","relaxing"
"","","","","","animation","220","883847","0.0-220.0","1920x1080","","2515.3000000715256","46.16","img/238/4/1.5/bw/001.png","","","relaxing"
"","","","","","animation","221","886048","0.0-221.0","1920x1080","","2199.2999999523163","2.78","img/238/2.5/0.66667/bw/001.png","","","relaxing"
"","","","","","animation","222","889384","0.0-222.0","1920x1080","","3334.899999976158","12.96","img/238/2.5/2/bw/001.png","","","relaxing"
"","","","","","animation","223","892264","0.0-223.0","1920x1080","","2879.600000023842","69.44","img/117/5.5/1.5/bw/001.png","","","relaxing"
"","","","","","animation","224","895331","0.0-224.0","1920x1080","","3065.7999999523163","51.19","img/117/3.5/2/bw/001.png","","","relaxing"
"","","","","","animation","225","897632","0.0-225.0","1920x1080","","2299.6999999284744","41.40","img/238/4/1/bw/001.png","","","relaxing"
"","","","","","animation","226","904447","0.0-226.0","1920x1080","","6814.800000071526","15","img/314/2.5/1.5/bw/001.png","","","relaxing"
"","","","","","animation","227","908672","0.0-227.0","1920x1080","","4223","90.61","img/314/4.5/2/bw/001.png","","","relaxing"
"","","","","","animation","228","911904","0.0-228.0","1920x1080","","3230.899999976158","40.61","img/238/3.5/1/bw/001.png","","","relaxing"
"","","","","","animation","229","913914","0.0-229.0","1920x1080","","2009.5999999046326","49.74","img/117/3.5/1.5/bw/001.png","","","relaxing"
"","","","","","animation","230","918281","0.0-230.0","1920x1080","","4365.799999952316","100","img/314/5.5/1/bw/001.png","","","relaxing"
"","","","","","animation","231","921164","0.0-231.0","1920x1080","","2881.2999999523163","45.11","img/314/3.5/2/bw/001.png","","","relaxing"
"","","","","","animation","232","923298","0.0-232.0","1920x1080","","2133.100000023842","71.69","img/117/5.5/1/bw/001.png","","","relaxing"
"","","","","","animation","233","926752","0.0-233.0","1920x1080","","3453.2999999523163","59.13","img/117/5.5/0.5/bw/001.png","","","relaxing"
"","","","","","animation","234","931731","0.0-234.0","1920x1080","","4978.399999976158","83.99","img/314/5.5/0.66667/bw/001.png","","","relaxing"
"","","","","","animation","235","933915","0.0-235.0","1920x1080","","2158.6999999284744","6.48","img/117/2.5/1/bw/001.png","","","relaxing"
"","","","","","html-button-response","236","959264","0.0-236.0","1920x1080","","25348.200000047684","","<div class=""intro"">You are about to view a new series of animations.<br><br></div><div class=""intro"">You will evaluate them based on a different descriptor.<br><br></div><div class=""intro"">Move the slider to indicate how <strong style=""text-transform:capitalize"">APPEALING</strong> you find each animation.<br><br></div><div class=""intro"">0 = Least Appealing<br></div><div class=""intro"">1 = Most Appealing<br><br></div><div class=""intro"">Remember to use the <strong><em>entire range</em></strong> of the slider to make your ratings.<br></div><div class=""intro"">Please <strong><em>take your time</em></strong> and carefully consider each rating you make.<br><br></div>","0","",""
"","","","","","call-function","237","959267","0.0-237.0","1920x1080","","","","","","",""
"","","","","","animation","238","963844","0.0-238.0","1920x1080","","4575.399999976158","64","img/314/4.5/1/bw/001.png","","","appealing"
"","","","","","animation","239","967016","0.0-239.0","1920x1080","","3170.2999999523163","22.75","img/238/2.5/1/bw/001.png","","","appealing"
"","","","","","animation","240","970267","0.0-240.0","1920x1080","","3250.399999976158","55.29","img/238/4.5/0.66667/bw/001.png","","","appealing"
"","","","","","animation","241","974114","0.0-241.0","1920x1080","","3845.7999999523163","84.39","img/117/5.5/0.66667/bw/001.png","","","appealing"
"","","","","","animation","242","979314","0.0-242.0","1920x1080","","5198.400000095367","72.49","img/314/5.5/1.5/bw/001.png","","","appealing"
"","","","","","animation","243","981952","0.0-243.0","1920x1080","","2636.2000000476837","42.59","img/314/4/1.5/bw/001.png","","","appealing"
"","","","","","animation","244","985304","0.0-244.0","1920x1080","","3350.899999976158","44.84","img/238/3.5/2/bw/001.png","","","appealing"
"","","","","","animation","245","992314","0.0-245.0","1920x1080","","7009.100000023842","68","img/314/5.5/2/bw/001.png","","","appealing"
"","","","","","animation","246","999672","0.0-246.0","1920x1080","","7357","69.71","img/117/5.5/1.5/bw/001.png","","","appealing"
"","","","","","animation","247","1002800","0.0-247.0","1920x1080","","3125.7000000476837","0.13","img/238/2.5/0.66667/bw/001.png","","","appealing"
"","","","","","animation","248","1005614","0.0-248.0","1920x1080","","2813.2999999523163","15.21","img/314/3.5/0.5/bw/001.png","","","appealing"
"","","","","","animation","249","1007920","0.0-249.0","1920x1080","","2304.5","33.73","img/117/3.5/2/bw/001.png","","","appealing"
"","","","","","animation","250","1017752","0.0-250.0","1920x1080","","9830.899999976158","12.04","img/314/3.5/1/bw/001.png","","","appealing"
"","","","","","animation","251","1028704","0.0-251.0","1920x1080","","10949.299999952316","92.72","img/314/5.5/1/bw/001.png","","","appealing"
"","","","","","animation","252","1031800","0.0-252.0","1920x1080","","3094.5","72.62","img/117/4/1/bw/001.png","","","appealing"
"","","","","","animation","253","1036314","0.0-253.0","1920x1080","","4513","63.23","img/117/5.5/0.5/bw/001.png","","","appealing"
"","","","","","animation","254","1038688","0.0-254.0","1920x1080","","2372.5999999046326","32.14","img/117/3.5/0.66667/bw/001.png","","","appealing"
"","","","","","animation","255","1042201","0.0-255.0","1920x1080","","3512.4000000953674","77","img/314/4.5/1.5/bw/001.png","","","appealing"
"","","","","","animation","256","1046584","0.0-256.0","1920x1080","","4381.100000023842","-28.70","img/314/2.5/0.5/bw/001.png","","","appealing"
"","","","","","animation","257","1049198","0.0-257.0","1920x1080","","2612.2000000476837","18","img/117/3.5/0.5/bw/001.png","","","appealing"
"","","","","","animation","258","1052168","0.0-258.0","1920x1080","","2969","62.96","img/117/4.5/2/bw/001.png","","","appealing"
"","","","","","animation","259","1054448","0.0-259.0","1920x1080","","2278.2999999523163","66.14","img/314/4/2/bw/001.png","","","appealing"
"","","","","","animation","260","1056331","0.0-260.0","1920x1080","","1882.1999999284744","40.61","img/117/4/0.5/bw/001.png","","","appealing"
"","","","","","animation","261","1059014","0.0-261.0","1920x1080","","2682.2000000476837","14.29","img/314/2.5/2/bw/001.png","","","appealing"
"","","","","","animation","262","1061565","0.0-262.0","1920x1080","","2549.1999999284744","68.65","img/117/4.5/1/bw/001.png","","","appealing"
"","","","","","animation","263","1066182","0.0-263.0","1920x1080","","4615.600000023842","71.96","img/238/4.5/2/bw/001.png","","","appealing"
"","","","","","animation","264","1068481","0.0-264.0","1920x1080","","2298.5","34.13","img/238/3.5/1/bw/001.png","","","appealing"
"","","","","","animation","265","1071888","0.0-265.0","1920x1080","","3406.0999999046326","27.78","img/238/3.5/0.66667/bw/001.png","","","appealing"
"","","","","","animation","266","1077081","0.0-266.0","1920x1080","","5191","16.67","img/117/3.5/1.5/bw/001.png","","","appealing"
"","","","","","animation","267","1080953","0.0-267.0","1920x1080","","3869.899999976158","36.11","img/314/4/0.5/bw/001.png","","","appealing"
"","","","","","animation","268","1083800","0.0-268.0","1920x1080","","2846.7000000476837","57.94","img/117/4/2/bw/001.png","","","appealing"
"","","","","","animation","269","1086924","0.0-269.0","1920x1080","","3122.899999976158","43.65","img/314/3.5/0.66667/bw/001.png","","","appealing"
"","","","","","animation","270","1091400","0.0-270.0","1920x1080","","4474","70.63","img/238/4/2/bw/001.png","","","appealing"
"","","","","","animation","271","1094904","0.0-271.0","1920x1080","","3503","79.10","img/117/4.5/0.5/bw/001.png","","","appealing"
"","","","","","animation","272","1097150","0.0-272.0","1920x1080","","2244","76.06","img/238/4.5/0.5/bw/001.png","","","appealing"
"","","","","","animation","273","1100688","0.0-273.0","1920x1080","","3535.899999976158","7.54","img/314/2.5/1.5/bw/001.png","","","appealing"
"","","","","","animation","274","1104269","0.0-274.0","1920x1080","","3579.100000023842","1.32","img/314/2.5/0.66667/bw/001.png","","","appealing"
"","","","","","animation","275","1106432","0.0-275.0","1920x1080","","2161.9000000953674","72.88","img/314/4/0.66667/bw/001.png","","","appealing"
"","","","","","animation","276","1108818","0.0-276.0","1920x1080","","2385","83.99","img/117/5.5/1/bw/001.png","","","appealing"
"","","","","","animation","277","1111482","0.0-277.0","1920x1080","","2662.3000000715256","9.52","img/238/2.5/2/bw/001.png","","","appealing"
"","","","","","animation","278","1114515","0.0-278.0","1920x1080","","3031.7000000476837","1.32","img/314/2.5/1/bw/001.png","","","appealing"
"","","","","","animation","279","1117602","0.0-279.0","1920x1080","","3085.899999976158","91.93","img/238/5.5/0.5/bw/001.png","","","appealing"
"","","","","","animation","280","1120365","0.0-280.0","1920x1080","","2761.7999999523163","100","img/238/5.5/1.5/bw/001.png","","","appealing"
"","","","","","animation","281","1122520","0.0-281.0","1920x1080","","2154.4000000953674","31.48","img/314/3.5/1.5/bw/001.png","","","appealing"
"","","","","","animation","282","1126121","0.0-282.0","1920x1080","","3599.100000023842","100","img/238/5.5/2/bw/001.png","","","appealing"
"","","","","","animation","283","1129738","0.0-283.0","1920x1080","","3615.1999999284744","37.17","img/117/4.5/0.66667/bw/001.png","","","appealing"
"","","","","","animation","284","1132231","0.0-284.0","1920x1080","","2491.3000000715256","0.79","img/238/2.5/0.5/bw/001.png","","","appealing"
"","","","","","animation","285","1134297","0.0-285.0","1920x1080","","2065.0999999046326","37.96","img/238/4/0.5/bw/001.png","","","appealing"
"","","","","","animation","286","1136664","0.0-286.0","1920x1080","","2365.5","74.34","img/314/5.5/0.66667/bw/001.png","","","appealing"
"","","","","","animation","287","1139384","0.0-287.0","1920x1080","","2719.100000023842","32.41","img/238/3.5/1.5/bw/001.png","","","appealing"
"","","","","","animation","288","1142798","0.0-288.0","1920x1080","","3412.5","63.76","img/238/4.5/1/bw/001.png","","","appealing"
"","","","","","animation","289","1145968","0.0-289.0","1920x1080","","3168.4000000953674","5.42","img/117/2.5/1.5/bw/001.png","","","appealing"
"","","","","","animation","290","1149368","0.0-290.0","1920x1080","","3398.3000000715256","36.24","img/117/3.5/1/bw/001.png","","","appealing"
"","","","","","animation","291","1151808","0.0-291.0","1920x1080","","2439.5","48.94","img/314/4/1/bw/001.png","","","appealing"
"","","","","","animation","292","1154135","0.0-292.0","1920x1080","","2325.2999999523163","28.31","img/117/4/0.66667/bw/001.png","","","appealing"
"","","","","","animation","293","1156998","0.0-293.0","1920x1080","","2862.2000000476837","62","img/314/5.5/0.5/bw/001.png","","","appealing"
"","","","","","animation","294","1160491","0.0-294.0","1920x1080","","3491.399999976158","44.44","img/238/4/1/bw/001.png","","","appealing"
"","","","","","animation","295","1165480","0.0-295.0","1920x1080","","4987.800000071526","69.84","img/238/5.5/1/bw/001.png","","","appealing"
"","","","","","animation","296","1170616","0.0-296.0","1920x1080","","5133.200000047684","3.70","img/238/2.5/1.5/bw/001.png","","","appealing"
"","","","","","animation","297","1176304","0.0-297.0","1920x1080","","5687","51.98","img/238/4/1.5/bw/001.png","","","appealing"
"","","","","","animation","298","1179905","0.0-298.0","1920x1080","","3599.0999999046326","37.04","img/314/4.5/0.5/bw/001.png","","","appealing"
"","","","","","animation","299","1182387","0.0-299.0","1920x1080","","2481.5","42.06","img/314/4.5/0.66667/bw/001.png","","","appealing"
"","","","","","animation","300","1189088","0.0-300.0","1920x1080","","6699.699999928474","33.73","img/238/4/0.66667/bw/001.png","","","appealing"
"","","","","","animation","301","1192400","0.0-301.0","1920x1080","","3311.2000000476837","55","img/117/4/1.5/bw/001.png","","","appealing"
"","","","","","animation","302","1195641","0.0-302.0","1920x1080","","3239.899999976158","63.49","img/314/4.5/2/bw/001.png","","","appealing"
"","","","","","animation","303","1198500","0.0-303.0","1920x1080","","2856.6999999284744","4.89","img/117/2.5/0.5/bw/001.png","","","appealing"
"","","","","","animation","304","1200396","0.0-304.0","1920x1080","","1895.3999999761581","51.32","img/238/4.5/1.5/bw/001.png","","","appealing"
"","","","","","animation","305","1203032","0.0-305.0","1920x1080","","2634.1999999284744","7.28","img/117/2.5/0.66667/bw/001.png","","","appealing"
"","","","","","animation","306","1205536","0.0-306.0","1920x1080","","2503.100000023842","22.62","img/238/3.5/0.5/bw/001.png","","","appealing"
"","","","","","animation","307","1208432","0.0-307.0","1920x1080","","2894.399999976158","4.23","img/117/2.5/1/bw/001.png","","","appealing"
"","","","","","animation","308","1211688","0.0-308.0","1920x1080","","3255","57.94","img/117/4.5/1.5/bw/001.png","","","appealing"
"","","","","","animation","309","1215357","0.0-309.0","1920x1080","","3668.5","73.15","img/238/5.5/0.66667/bw/001.png","","","appealing"
"","","","","","animation","310","1218104","0.0-310.0","1920x1080","","2745.2999999523163","8.07","img/117/2.5/2/bw/001.png","","","appealing"
"","","","","","animation","311","1220081","0.0-311.0","1920x1080","","1974.7000000476837","71.96","img/117/5.5/2/bw/001.png","","","appealing"
"","","","","","animation","312","1223216","0.0-312.0","1920x1080","","3133.7000000476837","12.30","img/314/3.5/2/bw/001.png","","","appealing"
"","","","","","html-button-response","313","1278905","0.0-313.0","1920x1080","","55687.89999997616","","<div class=""intro"">You are about to view a new series of animations.<br><br></div><div class=""intro"">You will evaluate them based on a different descriptor.<br><br></div><div class=""intro"">Move the slider to indicate how <strong style=""text-transform:capitalize"">INTERESTING</strong> you find each animation.<br><br></div><div class=""intro"">0 = Least Interesting<br></div><div class=""intro"">1 = Most Interesting<br><br></div><div class=""intro"">Remember to use the <strong><em>entire range</em></strong> of the slider to make your ratings.<br></div><div class=""intro"">Please <strong><em>take your time</em></strong> and carefully consider each rating you make.<br><br></div>","0","",""
"","","","","","call-function","314","1278909","0.0-314.0","1920x1080","","","","","","",""
"","","","","","animation","315","1283299","0.0-315.0","1920x1080","","4388.899999976158","65.08","img/314/5.5/1/bw/001.png","","","interesting"
"","","","","","animation","316","1289138","0.0-316.0","1920x1080","","5836.899999976158","62.96","img/238/4.5/0.5/bw/001.png","","","interesting"
"","","","","","animation","317","1297032","0.0-317.0","1920x1080","","7892.800000071526","62.04","img/117/4/1.5/bw/001.png","","","interesting"
"","","","","","animation","318","1301821","0.0-318.0","1920x1080","","4787.900000095367","31.22","img/238/2.5/0.5/bw/001.png","","","interesting"
"","","","","","animation","319","1304384","0.0-319.0","1920x1080","","2561.1999999284744","74.21","img/238/4.5/2/bw/001.png","","","interesting"
"","","","","","animation","320","1309609","0.0-320.0","1920x1080","","5223.700000047684","14.42","img/238/5.5/0.66667/bw/001.png","","","interesting"
"","","","","","animation","321","1313348","0.0-321.0","1920x1080","","3736.5","70.11","img/238/3.5/1.5/bw/001.png","","","interesting"
"","","","","","animation","322","1316256","0.0-322.0","1920x1080","","2906.6999999284744","87.70","img/238/4.5/0.66667/bw/001.png","","","interesting"
"","","","","","animation","323","1318739","0.0-323.0","1920x1080","","2481","13.10","img/238/5.5/2/bw/001.png","","","interesting"
"","","","","","animation","324","1320640","0.0-324.0","1920x1080","","1899.7000000476837","74.74","img/117/3.5/2/bw/001.png","","","interesting"
"","","","","","animation","325","1324567","0.0-325.0","1920x1080","","3924.9000000953674","67.20","img/117/4/2/bw/001.png","","","interesting"
"","","","","","animation","326","1327431","0.0-326.0","1920x1080","","2863","69.97","img/238/4/1/bw/001.png","","","interesting"
"","","","","","animation","327","1330816","0.0-327.0","1920x1080","","3384.399999976158","76.98","img/314/4.5/1/bw/001.png","","","interesting"
"","","","","","animation","328","1333973","0.0-328.0","1920x1080","","3155.100000023842","7.28","img/238/5.5/1.5/bw/001.png","","","interesting"
"","","","","","animation","329","1338536","0.0-329.0","1920x1080","","4562.399999976158","52.78","img/117/3.5/0.66667/bw/001.png","","","interesting"
"","","","","","animation","330","1340731","0.0-330.0","1920x1080","","2192.6999999284744","66.40","img/314/4.5/1.5/bw/001.png","","","interesting"
"","","","","","animation","331","1343232","0.0-331.0","1920x1080","","2500.7000000476837","43.25","img/117/4.5/0.5/bw/001.png","","","interesting"
"","","","","","animation","332","1346659","0.0-332.0","1920x1080","","3426.100000023842","37.17","img/238/3.5/0.66667/bw/001.png","","","interesting"
"","","","","","animation","333","1349204","0.0-333.0","1920x1080","","2543.5999999046326","24.87","img/314/3.5/0.5/bw/001.png","","","interesting"
"","","","","","animation","334","1352616","0.0-334.0","1920x1080","","3410.600000023842","65.34","img/117/4/1/bw/001.png","","","interesting"
"","","","","","animation","335","1355328","0.0-335.0","1920x1080","","2710.899999976158","4.63","img/117/2.5/1.5/bw/001.png","","","interesting"
"","","","","","animation","336","1359070","0.0-336.0","1920x1080","","3739.5999999046326","67","img/238/4.5/1.5/bw/001.png","","","interesting"
"","","","","","animation","337","1362137","0.0-337.0","1920x1080","","3065.4000000953674","82.14","img/117/3.5/1/bw/001.png","","","interesting"
"","","","","","animation","338","1364749","0.0-338.0","1920x1080","","2611.399999976158","3.97","img/314/2.5/2/bw/001.png","","","interesting"
"","","","","","animation","339","1367736","0.0-339.0","1920x1080","","2985.5","12.30","img/117/5.5/0.5/bw/001.png","","","interesting"
"","","","","","animation","340","1371050","0.0-340.0","1920x1080","","3312.6999999284744","85","img/238/4/0.66667/bw/001.png","","","interesting"
"","","","","","animation","341","1373084","0.0-341.0","1920x1080","","2032.5","92.72","img/117/4.5/1/bw/001.png","","","interesting"
"","","","","","animation","342","1375297","0.0-342.0","1920x1080","","2211.3000000715256","77.78","img/314/3.5/1.5/bw/001.png","","","interesting"
"","","","","","animation","343","1377534","0.0-343.0","1920x1080","","2235.7999999523163","92.46","img/314/4/1/bw/001.png","","","interesting"
"","","","","","animation","344","1380268","0.0-344.0","1920x1080","","2732.6999999284744","11.51","img/238/5.5/0.5/bw/001.png","","","interesting"
"","","","","","animation","345","1382784","0.0-345.0","1920x1080","","2514.1999999284744","80.69","img/314/4/1.5/bw/001.png","","","interesting"
"","","","","","animation","346","1388047","0.0-346.0","1920x1080","","5261.700000047684","94.18","img/117/4.5/2/bw/001.png","","","interesting"
"","","","","","animation","347","1393064","0.0-347.0","1920x1080","","5015.600000023842","61","img/314/4/0.5/bw/001.png","","","interesting"
"","","","","","animation","348","1395000","0.0-348.0","1920x1080","","1934.2999999523163","16","img/238/2.5/0.66667/bw/001.png","","","interesting"
"","","","","","animation","349","1397648","0.0-349.0","1920x1080","","2646.600000023842","59.26","img/117/3.5/1.5/bw/001.png","","","interesting"
"","","","","","animation","350","1401682","0.0-350.0","1920x1080","","4032.7999999523163","67.33","img/238/3.5/2/bw/001.png","","","interesting"
"","","","","","animation","351","1403864","0.0-351.0","1920x1080","","2179.100000023842","55.29","img/314/4/0.66667/bw/001.png","","","interesting"
"","","","","","animation","352","1406707","0.0-352.0","1920x1080","","2842.399999976158","5.16","img/117/5.5/2/bw/001.png","","","interesting"
"","","","","","animation","353","1409152","0.0-353.0","1920x1080","","2443.7000000476837","22.49","img/314/4.5/0.5/bw/001.png","","","interesting"
"","","","","","animation","354","1411448","0.0-354.0","1920x1080","","2294.399999976158","3.70","img/314/2.5/1.5/bw/001.png","","","interesting"
"","","","","","animation","355","1413447","0.0-355.0","1920x1080","","1997.6999999284744","14.15","img/117/5.5/0.66667/bw/001.png","","","interesting"
"","","","","","animation","356","1416248","0.0-356.0","1920x1080","","2799.5","5.82","img/117/2.5/1/bw/001.png","","","interesting"
"","","","","","animation","357","1418970","0.0-357.0","1920x1080","","2721.2000000476837","17.72","img/314/5.5/1.5/bw/001.png","","","interesting"
"","","","","","animation","358","1422576","0.0-358.0","1920x1080","","3604","62","img/314/3.5/1/bw/001.png","","","interesting"
"","","","","","animation","359","1425848","0.0-359.0","1920x1080","","3270.100000023842","31.22","img/314/5.5/0.5/bw/001.png","","","interesting"
"","","","","","animation","360","1428953","0.0-360.0","1920x1080","","3104","22.49","img/117/5.5/1/bw/001.png","","","interesting"
"","","","","","animation","361","1431575","0.0-361.0","1920x1080","","2619.8000000715256","48.41","img/238/4/0.5/bw/001.png","","","interesting"
"","","","","","animation","362","1434049","0.0-362.0","1920x1080","","2473.100000023842","4.76","img/238/2.5/1/bw/001.png","","","interesting"
"","","","","","animation","363","1437017","0.0-363.0","1920x1080","","2966.2000000476837","91.80","img/238/4.5/1/bw/001.png","","","interesting"
"","","","","","animation","364","1439098","0.0-364.0","1920x1080","","2076.7000000476837","61.90","img/117/3.5/0.5/bw/001.png","","","interesting"
"","","","","","animation","365","1441800","0.0-365.0","1920x1080","","2700.1999999284744","82.67","img/314/4/2/bw/001.png","","","interesting"
"","","","","","animation","366","1443569","0.0-366.0","1920x1080","","1768","62.96","img/238/3.5/1/bw/001.png","","","interesting"
"","","","","","animation","367","1448082","0.0-367.0","1920x1080","","4511.600000023842","64","img/314/4.5/0.66667/bw/001.png","","","interesting"
"","","","","","animation","368","1451871","0.0-368.0","1920x1080","","3788.399999976158","43.12","img/238/4/2/bw/001.png","","","interesting"
"","","","","","animation","369","1454211","0.0-369.0","1920x1080","","2338.5999999046326","53.17","img/238/4/1.5/bw/001.png","","","interesting"
"","","","","","animation","370","1456382","0.0-370.0","1920x1080","","2169.2000000476837","11.24","img/117/2.5/0.5/bw/001.png","","","interesting"
"","","","","","animation","371","1459049","0.0-371.0","1920x1080","","2665.899999976158","20","img/238/3.5/0.5/bw/001.png","","","interesting"
"","","","","","animation","372","1465031","0.0-372.0","1920x1080","","5980","62.83","img/117/4.5/1.5/bw/001.png","","","interesting"
"","","","","","animation","373","1467649","0.0-373.0","1920x1080","","2616.7000000476837","72.49","img/314/3.5/2/bw/001.png","","","interesting"
"","","","","","animation","374","1471849","0.0-374.0","1920x1080","","4198.5","34.66","img/117/4/0.66667/bw/001.png","","","interesting"
"","","","","","animation","375","1475464","0.0-375.0","1920x1080","","3612.899999976158","17.20","img/314/5.5/2/bw/001.png","","","interesting"
"","","","","","animation","376","1478715","0.0-376.0","1920x1080","","3249.1999999284744","24.87","img/117/5.5/1.5/bw/001.png","","","interesting"
"","","","","","animation","377","1481515","0.0-377.0","1920x1080","","2798.5999999046326","6.48","img/238/2.5/1.5/bw/001.png","","","interesting"
"","","","","","animation","378","1486618","0.0-378.0","1920x1080","","5099.699999928474","4.63","img/238/2.5/2/bw/001.png","","","interesting"
"","","","","","animation","379","1488980","0.0-379.0","1920x1080","","2361","66.67","img/314/5.5/0.66667/bw/001.png","","","interesting"
"","","","","","animation","380","1497484","0.0-380.0","1920x1080","","8502.600000023842","45.11","img/314/3.5/0.66667/bw/001.png","","","interesting"
"","","","","","animation","381","1502288","0.0-381.0","1920x1080","","4802.100000023842","69.44","img/314/4.5/2/bw/001.png","","","interesting"
"","","","","","animation","382","1510718","0.0-382.0","1920x1080","","8429.299999952316","68.65","img/238/5.5/1/bw/001.png","","","interesting"
"","","","","","animation","383","1512202","0.0-383.0","1920x1080","","1482.1999999284744","69.44","img/117/4/0.5/bw/001.png","","","interesting"
"","","","","","animation","384","1514034","0.0-384.0","1920x1080","","1830.7999999523163","27.12","img/117/2.5/0.66667/bw/001.png","","","interesting"
"","","","","","animation","385","1515775","0.0-385.0","1920x1080","","1739.8999999761581","11.11","img/314/2.5/0.5/bw/001.png","","","interesting"
"","","","","","animation","386","1517894","0.0-386.0","1920x1080","","2118.2999999523163","9.66","img/314/2.5/1/bw/001.png","","","interesting"
"","","","","","animation","387","1520227","0.0-387.0","1920x1080","","2331.9000000953674","62.04","img/117/4.5/0.66667/bw/001.png","","","interesting"
"","","","","","animation","388","1521933","0.0-388.0","1920x1080","","1704.3999999761581","4.23","img/117/2.5/2/bw/001.png","","","interesting"
"","","","","","animation","389","1525771","0.0-389.0","1920x1080","","3836.4000000953674","0","img/314/2.5/0.66667/bw/001.png","","","interesting"
"","","","","","html-button-response","390","1556900","0.0-390.0","1920x1080","","31126.5","","<strong>Study Debriefing</strong><br><p class=""debrief""><strong>Background:</strong> The patterns you rated are called <em>fractals</em>. The term fractal describes a class of irregular curves or shapes for which any suitably chosen part is similar in shape to a given larger or smaller part when magnified or reduced to the same size. Fractal properties are found throughout the natural and manmade world. The series of animations you saw today displayed animated fractal patterns of a varying complexity.</p><p class=""debrief""><strong>Purpose of this study:</strong> We hope to better understand how the perception of static fractals differs from the perception of animated fractals, and how the speed of the animated patterns influences people&apos;s perception of them. Fractals allow us to study the perception of aesthetic properties (e.g. the perceived level of beauty in an image) without using recognizable content, which makes them an excellent tool for studying abstract aesthetic judgement.</p><p class=""debrief""><strong>Your part:</strong> Your participation has helped us to further understand how humans perceive these patterns across different levels of speed and complexity. This research with allow us to better understand how the visual system and brain process our ever-changing visual environments.<p class=""debrief""><strong>Feedback and Further information:</strong> If you have additional questions about this study, please feel free to ask the researcher, Nathan Gonzales-Hess at nhess @ uoregon.edu. If you have any questions concerning your rights as a research participant, please contact Research Compliance Services, 5237 University of Oregon, Eugene, OR 97403, 541-346-2510, or email researchCompliance @ uoregon.edu. You can also email the Human Subjects Coordinator for psychology and linguistics research at hscoord @ uoregon.edu. ","0","",""
"","","","","","html-button-response","391","1562118","0.0-391.0","1920x1080","","5213.700000047684","","Thank you for participating in this study. <br>Please click below to finish the experiment and submit your responses.<br><br>","0","",""
"true","","","","","fullscreen","392","1563128","0.0-392.0","1920x1080","11:4 27/5/2022","","","","","",""
