"success","timeout","failed_images","failed_audio","failed_video","trial_type","trial_index","time_elapsed","internal_node_id","resolution","timeStamp","rt","response","stimulus","button_pressed","value","descriptor"
"true","false","[]","[]","[]","preload","0","20128","0.0-0.0","1920x1080","","","","","","",""
"true","false","[]","[]","[]","preload","1","40083","0.0-1.0","1920x1080","","","","","","",""
"true","false","[]","[]","[]","preload","2","59935","0.0-2.0","1920x1080","","","","","","",""
"true","","","","","fullscreen","3","70571","0.0-3.0","1920x1080","12:56 3/6/2022","","","","","",""
"","","","","","survey-html-form","4","79625","0.0-4.0","1920x1080","","9051.600000143051","{""age"":""18"",""gender"":""female""}","","","",""
"","","","","","html-button-response","5","105281","0.0-5.0","1920x1080","","25654.700000047684","","<div class=""complex"">You are going to see a series of animations.<br><br></div><div class=""complex"">Move the slider to indicate how <strong style=""text-transform:capitalize"">COMPLEX</strong> you find each animation.<br><br></div><div class=""complex"">0 = Least Complex<br></div><div class=""complex"">1 = Most Complex<br><br></div><div class=""complex"">Remember to use the <strong><em>entire range</em></strong> of the slider to make your ratings.<br></div><div class=""complex"">Please <strong><em>take your time</em></strong> and carefully consider each rating you make.<br><br></div><div class=""complex"">The study has five sections and will take about 45 minutes to complete.<br><br></div>","0","",""
"","","","","","call-function","6","105282","0.0-6.0","1920x1080","","","","","","",""
"","","","","","animation","7","113441","0.0-7.0","1920x1080","","8156.599999904633","7","img/238/2.5/1.5/bw/001.png","","","complex"
"","","","","","animation","8","134096","0.0-8.0","1920x1080","","20653.900000095367","4","img/314/4/1.5/bw/001.png","","","complex"
"","","","","","animation","9","141416","0.0-9.0","1920x1080","","7317.299999952316","5","img/238/5.5/2/bw/001.png","","","complex"
"","","","","","animation","10","146576","0.0-10.0","1920x1080","","5157","6","img/238/4.5/2/bw/001.png","","","complex"
"","","","","","animation","11","156472","0.0-11.0","1920x1080","","9895.5","12.96","img/314/3.5/1/bw/001.png","","","complex"
"","","","","","animation","12","165448","0.0-12.0","1920x1080","","8974.900000095367","8.47","img/238/5.5/0.5/bw/001.png","","","complex"
"","","","","","animation","13","169400","0.0-13.0","1920x1080","","3951.4000000953674","16.01","img/117/3.5/1/bw/001.png","","","complex"
"","","","","","animation","14","179400","0.0-14.0","1920x1080","","9999","10.32","img/117/4.5/0.66667/bw/001.png","","","complex"
"","","","","","animation","15","183041","0.0-15.0","1920x1080","","3640.300000190735","14.02","img/117/3.5/1.5/bw/001.png","","","complex"
"","","","","","animation","16","187664","0.0-16.0","1920x1080","","4622.299999952316","14.68","img/117/5.5/0.66667/bw/001.png","","","complex"
"","","","","","animation","17","191592","0.0-17.0","1920x1080","","3926.7999999523163","14.42","img/314/3.5/0.5/bw/001.png","","","complex"
"","","","","","animation","18","197744","0.0-18.0","1920x1080","","6151","10.85","img/117/2.5/1/bw/001.png","","","complex"
"","","","","","animation","19","200192","0.0-19.0","1920x1080","","2447.4000000953674","10.32","img/117/2.5/1.5/bw/001.png","","","complex"
"","","","","","animation","20","203800","0.0-20.0","1920x1080","","3607.2999999523163","12","img/117/2.5/0.66667/bw/001.png","","","complex"
"","","","","","animation","21","210960","0.0-21.0","1920x1080","","7159","14.55","img/117/3.5/0.66667/bw/001.png","","","complex"
"","","","","","animation","22","227208","0.0-22.0","1920x1080","","16247.400000095367","16.14","img/314/4.5/1/bw/001.png","","","complex"
"","","","","","animation","23","233424","0.0-23.0","1920x1080","","6215.5","22.75","img/314/3.5/1.5/bw/001.png","","","complex"
"","","","","","animation","24","248576","0.0-24.0","1920x1080","","15151","27.51","img/314/4.5/0.5/bw/001.png","","","complex"
"","","","","","animation","25","255944","0.0-25.0","1920x1080","","7367","15","img/238/2.5/0.66667/bw/001.png","","","complex"
"","","","","","animation","26","271560","0.0-26.0","1920x1080","","15615.400000095367","16.14","img/117/5.5/0.5/bw/001.png","","","complex"
"","","","","","animation","27","283257","0.0-27.0","1920x1080","","11696.100000143051","14.68","img/238/4/1/bw/001.png","","","complex"
"","","","","","animation","28","296392","0.0-28.0","1920x1080","","13134.399999856949","14.95","img/117/4/1/bw/001.png","","","complex"
"","","","","","animation","29","309688","0.0-29.0","1920x1080","","13295.900000095367","20.63","img/238/2.5/0.5/bw/001.png","","","complex"
"","","","","","animation","30","315696","0.0-30.0","1920x1080","","6006.700000047684","18.78","img/238/2.5/1/bw/001.png","","","complex"
"","","","","","animation","31","318600","0.0-31.0","1920x1080","","2903.2999999523163","19","img/117/2.5/0.5/bw/001.png","","","complex"
"","","","","","animation","32","327608","0.0-32.0","1920x1080","","9007.399999856949","25.40","img/314/3.5/2/bw/001.png","","","complex"
"","","","","","animation","33","330760","0.0-33.0","1920x1080","","3150.7000000476837","24.21","img/314/2.5/1.5/bw/001.png","","","complex"
"","","","","","animation","34","347112","0.0-34.0","1920x1080","","16351.200000047684","51.85","img/238/4/1.5/bw/001.png","","","complex"
"","","","","","animation","35","359737","0.0-35.0","1920x1080","","12623.200000047684","37.96","img/314/3.5/0.66667/bw/001.png","","","complex"
"","","","","","animation","36","379897","0.0-36.0","1920x1080","","20158.700000047684","35.19","img/238/4/0.66667/bw/001.png","","","complex"
"","","","","","animation","37","401089","0.0-37.0","1920x1080","","21191","54","img/117/4.5/1/bw/001.png","","","complex"
"","","","","","animation","38","416176","0.0-38.0","1920x1080","","15087","59","img/238/4.5/0.5/bw/001.png","","","complex"
"","","","","","animation","39","441177","0.0-39.0","1920x1080","","24999.5","64.95","img/314/5.5/2/bw/001.png","","","complex"
"","","","","","animation","40","447049","0.0-40.0","1920x1080","","5870.599999904633","20","img/238/2.5/2/bw/001.png","","","complex"
"","","","","","animation","41","451849","0.0-41.0","1920x1080","","4799.600000143051","63.62","img/238/5.5/1/bw/001.png","","","complex"
"","","","","","animation","42","455841","0.0-42.0","1920x1080","","3991.600000143051","10.98","img/314/4/1/bw/001.png","","","complex"
"","","","","","animation","43","477553","0.0-43.0","1920x1080","","21710.200000047684","42.59","img/314/2.5/2/bw/001.png","","","complex"
"","","","","","animation","44","487809","0.0-44.0","1920x1080","","10254.900000095367","55.16","img/117/4.5/2/bw/001.png","","","complex"
"","","","","","animation","45","499753","0.0-45.0","1920x1080","","11943.200000047684","40.08","img/117/4/2/bw/001.png","","","complex"
"","","","","","animation","46","504674","0.0-46.0","1920x1080","","4920.699999809265","32.28","img/238/3.5/1.5/bw/001.png","","","complex"
"","","","","","animation","47","510033","0.0-47.0","1920x1080","","5356.700000047684","50.53","img/238/4.5/1/bw/001.png","","","complex"
"","","","","","animation","48","519897","0.0-48.0","1920x1080","","9862.799999952316","55.42","img/238/5.5/0.66667/bw/001.png","","","complex"
"","","","","","animation","49","524392","0.0-49.0","1920x1080","","4495","66.80","img/117/4.5/0.5/bw/001.png","","","complex"
"","","","","","animation","50","531849","0.0-50.0","1920x1080","","7455.599999904633","60.05","img/238/3.5/1/bw/001.png","","","complex"
"","","","","","animation","51","540034","0.0-51.0","1920x1080","","8183","52.25","img/117/5.5/1/bw/001.png","","","complex"
"","","","","","animation","52","543348","0.0-52.0","1920x1080","","3313.5999999046326","65.87","img/117/4/0.5/bw/001.png","","","complex"
"","","","","","animation","53","551162","0.0-53.0","1920x1080","","7812.100000143051","74.60","img/314/5.5/0.5/bw/001.png","","","complex"
"","","","","","animation","54","554882","0.0-54.0","1920x1080","","3719.5","36.24","img/238/3.5/0.5/bw/001.png","","","complex"
"","","","","","animation","55","559393","0.0-55.0","1920x1080","","4510.599999904633","56","img/314/5.5/0.66667/bw/001.png","","","complex"
"","","","","","animation","56","563138","0.0-56.0","1920x1080","","3743.7000000476837","16.14","img/314/2.5/1/bw/001.png","","","complex"
"","","","","","animation","57","566858","0.0-57.0","1920x1080","","3719.0999999046326","51.98","img/117/4.5/1.5/bw/001.png","","","complex"
"","","","","","animation","58","571746","0.0-58.0","1920x1080","","4886.800000190735","67.46","img/117/5.5/2/bw/001.png","","","complex"
"","","","","","animation","59","575465","0.0-59.0","1920x1080","","3719.0999999046326","40.08","img/117/3.5/2/bw/001.png","","","complex"
"","","","","","animation","60","582938","0.0-60.0","1920x1080","","7471.200000047684","63.62","img/238/3.5/2/bw/001.png","","","complex"
"","","","","","animation","61","585986","0.0-61.0","1920x1080","","3047.199999809265","73.54","img/117/5.5/1.5/bw/001.png","","","complex"
"","","","","","animation","62","589898","0.0-62.0","1920x1080","","3910.9000000953674","69.31","img/314/4.5/1.5/bw/001.png","","","complex"
"","","","","","animation","63","593842","0.0-63.0","1920x1080","","3943.4000000953674","51","img/238/5.5/1.5/bw/001.png","","","complex"
"","","","","","animation","64","602824","0.0-64.0","1920x1080","","8982.399999856949","61.51","img/314/4/0.5/bw/001.png","","","complex"
"","","","","","animation","65","604691","0.0-65.0","1920x1080","","1866.1999998092651","67.46","img/238/4.5/0.66667/bw/001.png","","","complex"
"","","","","","animation","66","607721","0.0-66.0","1920x1080","","3028.4000000953674","68.25","img/314/5.5/1/bw/001.png","","","complex"
"","","","","","animation","67","613449","0.0-67.0","1920x1080","","5727.299999952316","66.14","img/314/5.5/1.5/bw/001.png","","","complex"
"","","","","","animation","68","620649","0.0-68.0","1920x1080","","7199.200000047684","47.35","img/314/4/0.66667/bw/001.png","","","complex"
"","","","","","animation","69","625009","0.0-69.0","1920x1080","","4358.700000047684","57.28","img/117/3.5/0.5/bw/001.png","","","complex"
"","","","","","animation","70","645049","0.0-70.0","1920x1080","","20039.10000014305","62","img/314/4/2/bw/001.png","","","complex"
"","","","","","animation","71","654777","0.0-71.0","1920x1080","","9726.399999856949","69.58","img/314/4.5/2/bw/001.png","","","complex"
"","","","","","animation","72","657530","0.0-72.0","1920x1080","","2751.100000143051","64.81","img/238/4/2/bw/001.png","","","complex"
"","","","","","animation","73","662109","0.0-73.0","1920x1080","","4578.200000047684","75.40","img/314/4.5/0.66667/bw/001.png","","","complex"
"","","","","","animation","74","666018","0.0-74.0","1920x1080","","3908.199999809265","16.93","img/314/2.5/0.5/bw/001.png","","","complex"
"","","","","","animation","75","672994","0.0-75.0","1920x1080","","6974.299999952316","43","img/238/4.5/1.5/bw/001.png","","","complex"
"","","","","","animation","76","676708","0.0-76.0","1920x1080","","3713.399999856949","29.76","img/238/4/0.5/bw/001.png","","","complex"
"","","","","","animation","77","679754","0.0-77.0","1920x1080","","3045.4000000953674","18","img/117/4/1.5/bw/001.png","","","complex"
"","","","","","animation","78","682659","0.0-78.0","1920x1080","","2903.600000143051","12.83","img/117/2.5/2/bw/001.png","","","complex"
"","","","","","animation","79","685754","0.0-79.0","1920x1080","","3094.399999856949","16.53","img/314/2.5/0.66667/bw/001.png","","","complex"
"","","","","","animation","80","689891","0.0-80.0","1920x1080","","4136.400000095367","22.49","img/117/4/0.66667/bw/001.png","","","complex"
"","","","","","animation","81","693962","0.0-81.0","1920x1080","","4069.5","32.54","img/238/3.5/0.66667/bw/001.png","","","complex"
"","","","","","html-button-response","82","712387","0.0-82.0","1920x1080","","18423.199999809265","","<div class=""intro"">You are about to view a new series of animations.<br><br></div><div class=""intro"">You will evaluate them based on a different descriptor.<br><br></div><div class=""intro"">Move the slider to indicate how <strong style=""text-transform:capitalize"">NATURAL</strong> you find each animation.<br><br></div><div class=""intro"">0 = Least Natural<br></div><div class=""intro"">1 = Most Natural<br><br></div><div class=""intro"">Remember to use the <strong><em>entire range</em></strong> of the slider to make your ratings.<br></div><div class=""intro"">Please <strong><em>take your time</em></strong> and carefully consider each rating you make.<br><br></div>","0","",""
"","","","","","call-function","83","712388","0.0-83.0","1920x1080","","","","","","",""
"","","","","","animation","84","726610","0.0-84.0","1920x1080","","14221","90.21","img/314/5.5/2/bw/001.png","","","natural"
"","","","","","animation","85","731298","0.0-85.0","1920x1080","","4687.5","3.84","img/314/3.5/2/bw/001.png","","","natural"
"","","","","","animation","86","734826","0.0-86.0","1920x1080","","3527.5","68.65","img/238/4.5/1.5/bw/001.png","","","natural"
"","","","","","animation","87","738954","0.0-87.0","1920x1080","","4126.600000143051","0.13","img/117/4/0.5/bw/001.png","","","natural"
"","","","","","animation","88","742786","0.0-88.0","1920x1080","","3830.5","10.58","img/238/3.5/1/bw/001.png","","","natural"
"","","","","","animation","89","748330","0.0-89.0","1920x1080","","5543.299999952316","40.08","img/238/4.5/0.66667/bw/001.png","","","natural"
"","","","","","animation","90","752308","0.0-90.0","1920x1080","","3977.4000000953674","31.88","img/117/4.5/1/bw/001.png","","","natural"
"","","","","","animation","91","757418","0.0-91.0","1920x1080","","5108.600000143051","93.78","img/238/5.5/2/bw/001.png","","","natural"
"","","","","","animation","92","762370","0.0-92.0","1920x1080","","4950.799999952316","44","img/314/4.5/1/bw/001.png","","","natural"
"","","","","","animation","93","769970","0.0-93.0","1920x1080","","7599","73.68","img/117/5.5/0.66667/bw/001.png","","","natural"
"","","","","","animation","94","775153","0.0-94.0","1920x1080","","5182.5","0","img/238/3.5/0.5/bw/001.png","","","natural"
"","","","","","animation","95","780930","0.0-95.0","1920x1080","","5775.399999856949","70","img/314/5.5/0.5/bw/001.png","","","natural"
"","","","","","animation","96","785557","0.0-96.0","1920x1080","","4626.599999904633","0.79","img/238/2.5/1/bw/001.png","","","natural"
"","","","","","animation","97","789986","0.0-97.0","1920x1080","","4427.5","89.42","img/314/5.5/1/bw/001.png","","","natural"
"","","","","","animation","98","798092","0.0-98.0","1920x1080","","8105.799999952316","70.11","img/117/4.5/1.5/bw/001.png","","","natural"
"","","","","","animation","99","800157","0.0-99.0","1920x1080","","2064.0999999046326","1","img/117/2.5/1.5/bw/001.png","","","natural"
"","","","","","animation","100","806541","0.0-100.0","1920x1080","","6382.100000143051","47.22","img/238/4.5/0.5/bw/001.png","","","natural"
"","","","","","animation","101","811314","0.0-101.0","1920x1080","","4772.300000190735","7.01","img/238/3.5/0.66667/bw/001.png","","","natural"
"","","","","","animation","102","814490","0.0-102.0","1920x1080","","3175.5999999046326","4.23","img/117/2.5/2/bw/001.png","","","natural"
"","","","","","animation","103","817450","0.0-103.0","1920x1080","","2958.5","0","img/117/2.5/0.66667/bw/001.png","","","natural"
"","","","","","animation","104","820941","0.0-104.0","1920x1080","","3487.7999999523163","3","img/314/2.5/2/bw/001.png","","","natural"
"","","","","","animation","105","838141","0.0-105.0","1920x1080","","17199","4.76","img/117/3.5/1.5/bw/001.png","","","natural"
"","","","","","animation","106","841818","0.0-106.0","1920x1080","","3675.5","0.00","img/238/2.5/1.5/bw/001.png","","","natural"
"","","","","","animation","107","845217","0.0-107.0","1920x1080","","3398.600000143051","65.87","img/117/4/1.5/bw/001.png","","","natural"
"","","","","","animation","108","848761","0.0-108.0","1920x1080","","3542.7999999523163","2.12","img/314/2.5/0.5/bw/001.png","","","natural"
"","","","","","animation","109","852009","0.0-109.0","1920x1080","","3247","0.79","img/238/2.5/0.5/bw/001.png","","","natural"
"","","","","","animation","110","857002","0.0-110.0","1920x1080","","4991.399999856949","1.19","img/117/3.5/0.5/bw/001.png","","","natural"
"","","","","","animation","111","860177","0.0-111.0","1920x1080","","3174.7999999523163","0.79","img/117/2.5/0.5/bw/001.png","","","natural"
"","","","","","animation","112","863358","0.0-112.0","1920x1080","","3179.2999999523163","15","img/314/3.5/0.5/bw/001.png","","","natural"
"","","","","","animation","113","869882","0.0-113.0","1920x1080","","6523.400000095367","71","img/117/5.5/0.5/bw/001.png","","","natural"
"","","","","","animation","114","878075","0.0-114.0","1920x1080","","8192.399999856949","100","img/314/5.5/1.5/bw/001.png","","","natural"
"","","","","","animation","115","893609","0.0-115.0","1920x1080","","15533.099999904633","41","img/314/4.5/0.5/bw/001.png","","","natural"
"","","","","","animation","116","896498","0.0-116.0","1920x1080","","2887.4000000953674","3.17","img/314/2.5/0.66667/bw/001.png","","","natural"
"","","","","","animation","117","900530","0.0-117.0","1920x1080","","4030.699999809265","51.46","img/238/4/2/bw/001.png","","","natural"
"","","","","","animation","118","905891","0.0-118.0","1920x1080","","5359.5","62.57","img/314/4.5/1.5/bw/001.png","","","natural"
"","","","","","animation","119","914930","0.0-119.0","1920x1080","","9037.899999856949","55.95","img/238/4/1/bw/001.png","","","natural"
"","","","","","animation","120","924666","0.0-120.0","1920x1080","","9735.100000143051","46.16","img/314/4/1/bw/001.png","","","natural"
"","","","","","animation","121","928610","0.0-121.0","1920x1080","","3942.699999809265","27","img/117/4/0.66667/bw/001.png","","","natural"
"","","","","","animation","122","932298","0.0-122.0","1920x1080","","3687.300000190735","58.20","img/314/4/1.5/bw/001.png","","","natural"
"","","","","","animation","123","934458","0.0-123.0","1920x1080","","2159","30.95","img/314/4/0.5/bw/001.png","","","natural"
"","","","","","animation","124","952358","0.0-124.0","1920x1080","","17899","31.88","img/117/4/1/bw/001.png","","","natural"
"","","","","","animation","125","954915","0.0-125.0","1920x1080","","2553.9000000953674","36.24","img/238/4/0.66667/bw/001.png","","","natural"
"","","","","","animation","126","960378","0.0-126.0","1920x1080","","5462.600000143051","10.19","img/238/3.5/2/bw/001.png","","","natural"
"","","","","","animation","127","964962","0.0-127.0","1920x1080","","4583.299999952316","76.72","img/238/4.5/2/bw/001.png","","","natural"
"","","","","","animation","128","970875","0.0-128.0","1920x1080","","5911.200000047684","94.97","img/117/5.5/2/bw/001.png","","","natural"
"","","","","","animation","129","977267","0.0-129.0","1920x1080","","6390.400000095367","70.63","img/238/5.5/0.5/bw/001.png","","","natural"
"","","","","","animation","130","982715","0.0-130.0","1920x1080","","5446.900000095367","29","img/238/4/1.5/bw/001.png","","","natural"
"","","","","","animation","131","985314","0.0-131.0","1920x1080","","2599","1.72","img/238/2.5/0.66667/bw/001.png","","","natural"
"","","","","","animation","132","990499","0.0-132.0","1920x1080","","5183","18.52","img/314/3.5/1/bw/001.png","","","natural"
"","","","","","animation","133","995392","0.0-133.0","1920x1080","","4892.099999904633","70.37","img/238/4.5/1/bw/001.png","","","natural"
"","","","","","animation","134","999514","0.0-134.0","1920x1080","","4121.5","18","img/117/3.5/1/bw/001.png","","","natural"
"","","","","","animation","135","1007850","0.0-135.0","1920x1080","","8334.600000143051","67.33","img/117/4.5/2/bw/001.png","","","natural"
"","","","","","animation","136","1019242","0.0-136.0","1920x1080","","11390.400000095367","71.83","img/117/4.5/0.66667/bw/001.png","","","natural"
"","","","","","animation","137","1030634","0.0-137.0","1920x1080","","11391.5","11.51","img/314/4/2/bw/001.png","","","natural"
"","","","","","animation","138","1035242","0.0-138.0","1920x1080","","4606.5","1.32","img/238/2.5/2/bw/001.png","","","natural"
"","","","","","animation","139","1048482","0.0-139.0","1920x1080","","13239.200000047684","61","img/117/4.5/0.5/bw/001.png","","","natural"
"","","","","","animation","140","1053402","0.0-140.0","1920x1080","","4919.100000143051","87.30","img/117/5.5/1.5/bw/001.png","","","natural"
"","","","","","animation","141","1057291","0.0-141.0","1920x1080","","3887.899999856949","3.31","img/314/2.5/1/bw/001.png","","","natural"
"","","","","","animation","142","1060082","0.0-142.0","1920x1080","","2789.2999999523163","0.13","img/117/2.5/1/bw/001.png","","","natural"
"","","","","","animation","143","1063958","0.0-143.0","1920x1080","","3874.600000143051","31.48","img/117/3.5/2/bw/001.png","","","natural"
"","","","","","animation","144","1070530","0.0-144.0","1920x1080","","6571.599999904633","86.11","img/238/5.5/0.66667/bw/001.png","","","natural"
"","","","","","animation","145","1073708","0.0-145.0","1920x1080","","3176.9000000953674","1.59","img/314/2.5/1.5/bw/001.png","","","natural"
"","","","","","animation","146","1075592","0.0-146.0","1920x1080","","1881.7999999523163","73.54","img/314/4.5/0.66667/bw/001.png","","","natural"
"","","","","","animation","147","1080058","0.0-147.0","1920x1080","","4465.799999952316","34.66","img/117/3.5/0.66667/bw/001.png","","","natural"
"","","","","","animation","148","1087010","0.0-148.0","1920x1080","","6951.099999904633","89.29","img/117/5.5/1/bw/001.png","","","natural"
"","","","","","animation","149","1090675","0.0-149.0","1920x1080","","3663.600000143051","37","img/314/3.5/1.5/bw/001.png","","","natural"
"","","","","","animation","150","1107835","0.0-150.0","1920x1080","","17159","27.25","img/238/4/0.5/bw/001.png","","","natural"
"","","","","","animation","151","1111394","0.0-151.0","1920x1080","","3558.399999856949","88.49","img/238/5.5/1/bw/001.png","","","natural"
"","","","","","animation","152","1114941","0.0-152.0","1920x1080","","3546.2000000476837","19.18","img/314/3.5/0.66667/bw/001.png","","","natural"
"","","","","","animation","153","1143808","0.0-153.0","1920x1080","","28865.60000014305","74.87","img/117/4/2/bw/001.png","","","natural"
"","","","","","animation","154","1146808","0.0-154.0","1920x1080","","2999.0999999046326","88.76","img/238/5.5/1.5/bw/001.png","","","natural"
"","","","","","animation","155","1149667","0.0-155.0","1920x1080","","2857.899999856949","24.34","img/314/4/0.66667/bw/001.png","","","natural"
"","","","","","animation","156","1155042","0.0-156.0","1920x1080","","5374.200000047684","64","img/314/4.5/2/bw/001.png","","","natural"
"","","","","","animation","157","1159858","0.0-157.0","1920x1080","","4814.700000047684","87.57","img/314/5.5/0.66667/bw/001.png","","","natural"
"","","","","","animation","158","1162674","0.0-158.0","1920x1080","","2814.5999999046326","21","img/238/3.5/1.5/bw/001.png","","","natural"
"","","","","","html-button-response","159","1181643","0.0-159.0","1920x1080","","18967.299999952316","","<div class=""intro"">You are about to view a new series of animations.<br><br></div><div class=""intro"">You will evaluate them based on a different descriptor.<br><br></div><div class=""intro"">Move the slider to indicate how <strong style=""text-transform:capitalize"">APPEALING</strong> you find each animation.<br><br></div><div class=""intro"">0 = Least Appealing<br></div><div class=""intro"">1 = Most Appealing<br><br></div><div class=""intro"">Remember to use the <strong><em>entire range</em></strong> of the slider to make your ratings.<br></div><div class=""intro"">Please <strong><em>take your time</em></strong> and carefully consider each rating you make.<br><br></div>","0","",""
"","","","","","call-function","160","1181644","0.0-160.0","1920x1080","","","","","","",""
"","","","","","animation","161","1190125","0.0-161.0","1920x1080","","8480.399999856949","12.04","img/238/3.5/2/bw/001.png","","","appealing"
"","","","","","animation","162","1194324","0.0-162.0","1920x1080","","4198.400000095367","24.07","img/117/4.5/0.5/bw/001.png","","","appealing"
"","","","","","animation","163","1198010","0.0-163.0","1920x1080","","3684.800000190735","0.93","img/314/2.5/1/bw/001.png","","","appealing"
"","","","","","animation","164","1203082","0.0-164.0","1920x1080","","5070.900000095367","63.62","img/238/4.5/1.5/bw/001.png","","","appealing"
"","","","","","animation","165","1213541","0.0-165.0","1920x1080","","10457.100000143051","27","img/117/3.5/1.5/bw/001.png","","","appealing"
"","","","","","animation","166","1219082","0.0-166.0","1920x1080","","5540.299999952316","96","img/238/5.5/1.5/bw/001.png","","","appealing"
"","","","","","animation","167","1224227","0.0-167.0","1920x1080","","5142.600000143051","91.40","img/117/5.5/1.5/bw/001.png","","","appealing"
"","","","","","animation","168","1241524","0.0-168.0","1920x1080","","17295.799999952316","2","img/238/2.5/0.66667/bw/001.png","","","appealing"
"","","","","","animation","169","1247546","0.0-169.0","1920x1080","","6020.400000095367","1.19","img/117/2.5/1.5/bw/001.png","","","appealing"
"","","","","","animation","170","1251924","0.0-170.0","1920x1080","","4376.5","86.77","img/314/5.5/1.5/bw/001.png","","","appealing"
"","","","","","animation","171","1256418","0.0-171.0","1920x1080","","4500.799999952316","60.19","img/314/4/1.5/bw/001.png","","","appealing"
"","","","","","animation","172","1263691","0.0-172.0","1920x1080","","7269.299999952316","43.25","img/314/4/1/bw/001.png","","","appealing"
"","","","","","animation","173","1267733","0.0-173.0","1920x1080","","4040.899999856949","2.38","img/238/2.5/1/bw/001.png","","","appealing"
"","","","","","animation","174","1271383","0.0-174.0","1920x1080","","3649.100000143051","30.56","img/314/3.5/1.5/bw/001.png","","","appealing"
"","","","","","animation","175","1279234","0.0-175.0","1920x1080","","7850.400000095367","63.36","img/238/4.5/1/bw/001.png","","","appealing"
"","","","","","animation","176","1285658","0.0-176.0","1920x1080","","6423.200000047684","0.00","img/238/3.5/0.5/bw/001.png","","","appealing"
"","","","","","animation","177","1290550","0.0-177.0","1920x1080","","4889","80.03","img/314/4.5/2/bw/001.png","","","appealing"
"","","","","","animation","178","1311166","0.0-178.0","1920x1080","","20615.200000047684","50.26","img/238/4.5/0.66667/bw/001.png","","","appealing"
"","","","","","animation","179","1319499","0.0-179.0","1920x1080","","8322.5","39.81","img/238/4/0.66667/bw/001.png","","","appealing"
"","","","","","animation","180","1324160","0.0-180.0","1920x1080","","4659","11.90","img/117/4/0.5/bw/001.png","","","appealing"
"","","","","","animation","181","1326899","0.0-181.0","1920x1080","","2738.2000000476837","1.72","img/238/3.5/1.5/bw/001.png","","","appealing"
"","","","","","animation","182","1334643","0.0-182.0","1920x1080","","7742.299999952316","54.89","img/314/4/2/bw/001.png","","","appealing"
"","","","","","animation","183","1337931","0.0-183.0","1920x1080","","3287.0999999046326","0.40","img/117/2.5/1/bw/001.png","","","appealing"
"","","","","","animation","184","1348325","0.0-184.0","1920x1080","","10392.5","45.11","img/238/4/1/bw/001.png","","","appealing"
"","","","","","animation","185","1350958","0.0-185.0","1920x1080","","2632.0999999046326","6.35","img/314/2.5/1.5/bw/001.png","","","appealing"
"","","","","","animation","186","1354058","0.0-186.0","1920x1080","","3098.5","84.39","img/117/4.5/1.5/bw/001.png","","","appealing"
"","","","","","animation","187","1358221","0.0-187.0","1920x1080","","4162.099999904633","16.40","img/314/3.5/0.66667/bw/001.png","","","appealing"
"","","","","","animation","188","1365441","0.0-188.0","1920x1080","","7219.099999904633","65.08","img/117/4/2/bw/001.png","","","appealing"
"","","","","","animation","189","1387259","0.0-189.0","1920x1080","","21816.39999985695","25.13","img/238/4/0.5/bw/001.png","","","appealing"
"","","","","","animation","190","1391091","0.0-190.0","1920x1080","","3831","3.31","img/117/2.5/0.5/bw/001.png","","","appealing"
"","","","","","animation","191","1394458","0.0-191.0","1920x1080","","3363.2000000476837","3.97","img/117/2.5/0.66667/bw/001.png","","","appealing"
"","","","","","animation","192","1399731","0.0-192.0","1920x1080","","5272.099999904633","20.63","img/314/3.5/0.5/bw/001.png","","","appealing"
"","","","","","animation","193","1405325","0.0-193.0","1920x1080","","5592.299999952316","97","img/238/5.5/0.5/bw/001.png","","","appealing"
"","","","","","animation","194","1410242","0.0-194.0","1920x1080","","4915.199999809265","90.87","img/117/5.5/0.66667/bw/001.png","","","appealing"
"","","","","","animation","195","1414596","0.0-195.0","1920x1080","","4352.699999809265","69.31","img/314/4.5/1.5/bw/001.png","","","appealing"
"","","","","","animation","196","1418042","0.0-196.0","1920x1080","","3444.7999999523163","1.98","img/314/2.5/2/bw/001.png","","","appealing"
"","","","","","animation","197","1424292","0.0-197.0","1920x1080","","6248.299999952316","54.23","img/238/4.5/0.5/bw/001.png","","","appealing"
"","","","","","animation","198","1437291","0.0-198.0","1920x1080","","12998.799999952316","80.03","img/117/4.5/2/bw/001.png","","","appealing"
"","","","","","animation","199","1441075","0.0-199.0","1920x1080","","3782.600000143051","42.33","img/314/4/0.66667/bw/001.png","","","appealing"
"","","","","","animation","200","1445608","0.0-200.0","1920x1080","","4531.700000047684","5.03","img/238/2.5/0.5/bw/001.png","","","appealing"
"","","","","","animation","201","1452227","0.0-201.0","1920x1080","","6617.799999952316","13","img/238/2.5/1.5/bw/001.png","","","appealing"
"","","","","","animation","202","1456099","0.0-202.0","1920x1080","","3870.7999999523163","66.14","img/314/4.5/0.5/bw/001.png","","","appealing"
"","","","","","animation","203","1465283","0.0-203.0","1920x1080","","9183.299999952316","100","img/238/5.5/1/bw/001.png","","","appealing"
"","","","","","animation","204","1470242","0.0-204.0","1920x1080","","4957.200000047684","91.80","img/314/5.5/1/bw/001.png","","","appealing"
"","","","","","animation","205","1476995","0.0-205.0","1920x1080","","6751.900000095367","51.59","img/238/4/1.5/bw/001.png","","","appealing"
"","","","","","animation","206","1479443","0.0-206.0","1920x1080","","2447","57.41","img/238/4/2/bw/001.png","","","appealing"
"","","","","","animation","207","1481924","0.0-207.0","1920x1080","","2480.2999999523163","15.48","img/117/3.5/2/bw/001.png","","","appealing"
"","","","","","animation","208","1485193","0.0-208.0","1920x1080","","3267.2000000476837","40.08","img/117/4/1/bw/001.png","","","appealing"
"","","","","","animation","209","1490275","0.0-209.0","1920x1080","","5080.5","15.21","img/117/3.5/0.66667/bw/001.png","","","appealing"
"","","","","","animation","210","1495596","0.0-210.0","1920x1080","","5319.700000047684","3","img/314/2.5/0.66667/bw/001.png","","","appealing"
"","","","","","animation","211","1502441","0.0-211.0","1920x1080","","6844.600000143051","90","img/314/5.5/0.5/bw/001.png","","","appealing"
"","","","","","animation","212","1515427","0.0-212.0","1920x1080","","12984.5","92.20","img/314/5.5/2/bw/001.png","","","appealing"
"","","","","","animation","213","1524915","0.0-213.0","1920x1080","","9486.900000095367","36","img/117/4.5/0.66667/bw/001.png","","","appealing"
"","","","","","animation","214","1529996","0.0-214.0","1920x1080","","5079","10.32","img/238/2.5/2/bw/001.png","","","appealing"
"","","","","","animation","215","1536007","0.0-215.0","1920x1080","","6010.300000190735","44.31","img/314/4/0.5/bw/001.png","","","appealing"
"","","","","","animation","216","1543325","0.0-216.0","1920x1080","","7316.200000047684","90.08","img/117/5.5/1/bw/001.png","","","appealing"
"","","","","","animation","217","1546758","0.0-217.0","1920x1080","","3432.100000143051","97","img/117/5.5/2/bw/001.png","","","appealing"
"","","","","","animation","218","1551077","0.0-218.0","1920x1080","","4317.599999904633","33.99","img/117/4/0.66667/bw/001.png","","","appealing"
"","","","","","animation","219","1563592","0.0-219.0","1920x1080","","12513.100000143051","73.15","img/238/4.5/2/bw/001.png","","","appealing"
"","","","","","animation","220","1569875","0.0-220.0","1920x1080","","6282.5","55","img/314/4.5/1/bw/001.png","","","appealing"
"","","","","","animation","221","1573659","0.0-221.0","1920x1080","","3782.899999856949","28.97","img/314/3.5/1/bw/001.png","","","appealing"
"","","","","","animation","222","1575780","0.0-222.0","1920x1080","","2119.0999999046326","21.03","img/238/3.5/1/bw/001.png","","","appealing"
"","","","","","animation","223","1586100","0.0-223.0","1920x1080","","10318.599999904633","97","img/238/5.5/2/bw/001.png","","","appealing"
"","","","","","animation","224","1588258","0.0-224.0","1920x1080","","2157.4000000953674","68.65","img/117/4.5/1/bw/001.png","","","appealing"
"","","","","","animation","225","1590941","0.0-225.0","1920x1080","","2681.2999999523163","53.57","img/117/4/1.5/bw/001.png","","","appealing"
"","","","","","animation","226","1593825","0.0-226.0","1920x1080","","2883.100000143051","26.46","img/314/3.5/2/bw/001.png","","","appealing"
"","","","","","animation","227","1596861","0.0-227.0","1920x1080","","3034.2999999523163","11.77","img/117/3.5/0.5/bw/001.png","","","appealing"
"","","","","","animation","228","1614474","0.0-228.0","1920x1080","","17612.099999904633","85.45","img/314/4.5/0.66667/bw/001.png","","","appealing"
"","","","","","animation","229","1616900","0.0-229.0","1920x1080","","2423.7999999523163","99","img/238/5.5/0.66667/bw/001.png","","","appealing"
"","","","","","animation","230","1619227","0.0-230.0","1920x1080","","2325.2000000476837","3.84","img/238/3.5/0.66667/bw/001.png","","","appealing"
"","","","","","animation","231","1621763","0.0-231.0","1920x1080","","2534.7000000476837","0","img/117/2.5/2/bw/001.png","","","appealing"
"","","","","","animation","232","1623524","0.0-232.0","1920x1080","","1759.4000000953674","31.61","img/117/3.5/1/bw/001.png","","","appealing"
"","","","","","animation","233","1625641","0.0-233.0","1920x1080","","2116.2999999523163","77.25","img/117/5.5/0.5/bw/001.png","","","appealing"
"","","","","","animation","234","1627858","0.0-234.0","1920x1080","","2215.5","84.13","img/314/5.5/0.66667/bw/001.png","","","appealing"
"","","","","","animation","235","1630363","0.0-235.0","1920x1080","","2504.399999856949","3.84","img/314/2.5/0.5/bw/001.png","","","appealing"
"","","","","","html-button-response","236","1649316","0.0-236.0","1920x1080","","18950.900000095367","","<div class=""intro"">You are about to view a new series of animations.<br><br></div><div class=""intro"">You will evaluate them based on a different descriptor.<br><br></div><div class=""intro"">Move the slider to indicate how <strong style=""text-transform:capitalize"">INTERESTING</strong> you find each animation.<br><br></div><div class=""intro"">0 = Least Interesting<br></div><div class=""intro"">1 = Most Interesting<br><br></div><div class=""intro"">Remember to use the <strong><em>entire range</em></strong> of the slider to make your ratings.<br></div><div class=""intro"">Please <strong><em>take your time</em></strong> and carefully consider each rating you make.<br><br></div>","0","",""
"","","","","","call-function","237","1649317","0.0-237.0","1920x1080","","","","","","",""
"","","","","","animation","238","1658595","0.0-238.0","1920x1080","","9278.299999952316","75","img/117/4.5/0.5/bw/001.png","","","interesting"
"","","","","","animation","239","1662524","0.0-239.0","1920x1080","","3927.100000143051","81.61","img/238/3.5/2/bw/001.png","","","interesting"
"","","","","","animation","240","1679780","0.0-240.0","1920x1080","","17253.39999985695","8.60","img/117/2.5/0.66667/bw/001.png","","","interesting"
"","","","","","animation","241","1684599","0.0-241.0","1920x1080","","4817.800000190735","38.49","img/314/4/2/bw/001.png","","","interesting"
"","","","","","animation","242","1691821","0.0-242.0","1920x1080","","7219.599999904633","9.52","img/238/5.5/1/bw/001.png","","","interesting"
"","","","","","animation","243","1699658","0.0-243.0","1920x1080","","7835.5","84.26","img/238/3.5/1.5/bw/001.png","","","interesting"
"","","","","","animation","244","1704308","0.0-244.0","1920x1080","","4648.200000047684","10.19","img/238/4.5/1.5/bw/001.png","","","interesting"
"","","","","","animation","245","1710341","0.0-245.0","1920x1080","","6030.800000190735","96","img/314/3.5/2/bw/001.png","","","interesting"
"","","","","","animation","246","1716796","0.0-246.0","1920x1080","","6453.900000095367","65","img/238/4/0.5/bw/001.png","","","interesting"
"","","","","","animation","247","1722192","0.0-247.0","1920x1080","","5394.5","20.37","img/238/5.5/2/bw/001.png","","","interesting"
"","","","","","animation","248","1726316","0.0-248.0","1920x1080","","4122.799999952316","73.94","img/314/4.5/0.5/bw/001.png","","","interesting"
"","","","","","animation","249","1732227","0.0-249.0","1920x1080","","5910.199999809265","88.10","img/314/5.5/0.5/bw/001.png","","","interesting"
"","","","","","animation","250","1735800","0.0-250.0","1920x1080","","3570.7999999523163","80.95","img/314/4/1.5/bw/001.png","","","interesting"
"","","","","","animation","251","1740675","0.0-251.0","1920x1080","","4872.600000143051","38","img/238/5.5/1.5/bw/001.png","","","interesting"
"","","","","","animation","252","1793762","0.0-252.0","1920x1080","","53086.299999952316","76.85","img/314/4.5/1.5/bw/001.png","","","interesting"
"","","","","","animation","253","1801374","0.0-253.0","1920x1080","","7611.600000143051","61.51","img/314/4.5/2/bw/001.png","","","interesting"
"","","","","","animation","254","1806592","0.0-254.0","1920x1080","","5215.899999856949","27.65","img/314/5.5/2/bw/001.png","","","interesting"
"","","","","","animation","255","1810212","0.0-255.0","1920x1080","","3619.399999856949","51.32","img/117/5.5/0.5/bw/001.png","","","interesting"
"","","","","","animation","256","1812516","0.0-256.0","1920x1080","","2302.699999809265","40.08","img/117/5.5/1.5/bw/001.png","","","interesting"
"","","","","","animation","257","1815676","0.0-257.0","1920x1080","","3157.7999999523163","78.04","img/238/4.5/0.66667/bw/001.png","","","interesting"
"","","","","","animation","258","1820183","0.0-258.0","1920x1080","","4506.399999856949","13.23","img/238/2.5/1/bw/001.png","","","interesting"
"","","","","","animation","259","1825596","0.0-259.0","1920x1080","","5411","64.29","img/238/5.5/0.5/bw/001.png","","","interesting"
"","","","","","animation","260","1829679","0.0-260.0","1920x1080","","4081.2000000476837","76.19","img/117/4/2/bw/001.png","","","interesting"
"","","","","","animation","261","1835557","0.0-261.0","1920x1080","","5876.799999952316","54.50","img/117/5.5/1/bw/001.png","","","interesting"
"","","","","","animation","262","1839758","0.0-262.0","1920x1080","","4199","80.29","img/238/4.5/0.5/bw/001.png","","","interesting"
"","","","","","animation","263","1843780","0.0-263.0","1920x1080","","4020.9000000953674","70.37","img/314/4.5/1/bw/001.png","","","interesting"
"","","","","","animation","264","1848412","0.0-264.0","1920x1080","","4630","7.67","img/314/2.5/2/bw/001.png","","","interesting"
"","","","","","animation","265","1851258","0.0-265.0","1920x1080","","2844.5999999046326","7.54","img/314/2.5/0.66667/bw/001.png","","","interesting"
"","","","","","animation","266","1855215","0.0-266.0","1920x1080","","3955.699999809265","68.12","img/314/4/1/bw/001.png","","","interesting"
"","","","","","animation","267","1862963","0.0-267.0","1920x1080","","7746.700000047684","59.92","img/314/5.5/0.66667/bw/001.png","","","interesting"
"","","","","","animation","268","1867229","0.0-268.0","1920x1080","","4264.399999856949","10.71","img/314/2.5/1.5/bw/001.png","","","interesting"
"","","","","","animation","269","1870460","0.0-269.0","1920x1080","","3229.199999809265","11","img/117/2.5/2/bw/001.png","","","interesting"
"","","","","","animation","270","1872943","0.0-270.0","1920x1080","","2481.7000000476837","79.63","img/117/5.5/2/bw/001.png","","","interesting"
"","","","","","animation","271","1875474","0.0-271.0","1920x1080","","2529.9000000953674","16.80","img/117/4.5/1/bw/001.png","","","interesting"
"","","","","","animation","272","1877797","0.0-272.0","1920x1080","","2320.7999999523163","68.78","img/314/4/0.5/bw/001.png","","","interesting"
"","","","","","animation","273","1880147","0.0-273.0","1920x1080","","2346.9000000953674","62.96","img/238/4/1/bw/001.png","","","interesting"
"","","","","","animation","274","1883049","0.0-274.0","1920x1080","","2900.5","73","img/314/4.5/0.66667/bw/001.png","","","interesting"
"","","","","","animation","275","1885980","0.0-275.0","1920x1080","","2929.0999999046326","18.12","img/238/4/1.5/bw/001.png","","","interesting"
"","","","","","animation","276","1894007","0.0-276.0","1920x1080","","8024.5","78.44","img/117/4/1/bw/001.png","","","interesting"
"","","","","","animation","277","1896407","0.0-277.0","1920x1080","","2399.2000000476837","6.75","img/117/2.5/1/bw/001.png","","","interesting"
"","","","","","animation","278","1899816","0.0-278.0","1920x1080","","3407.2999999523163","10.85","img/314/2.5/0.5/bw/001.png","","","interesting"
"","","","","","animation","279","1902541","0.0-279.0","1920x1080","","2722.7999999523163","76.59","img/117/5.5/0.66667/bw/001.png","","","interesting"
"","","","","","animation","280","1905044","0.0-280.0","1920x1080","","2501.7999999523163","10.45","img/314/5.5/1/bw/001.png","","","interesting"
"","","","","","animation","281","1908675","0.0-281.0","1920x1080","","3630.2000000476837","3.44","img/238/2.5/0.5/bw/001.png","","","interesting"
"","","","","","animation","282","1912475","0.0-282.0","1920x1080","","3798.5999999046326","66.93","img/117/3.5/0.5/bw/001.png","","","interesting"
"","","","","","animation","283","1915510","0.0-283.0","1920x1080","","3031.4000000953674","58.33","img/238/4.5/2/bw/001.png","","","interesting"
"","","","","","animation","284","1917679","0.0-284.0","1920x1080","","2166.899999856949","64.81","img/117/4.5/1.5/bw/001.png","","","interesting"
"","","","","","animation","285","1920848","0.0-285.0","1920x1080","","3168.2999999523163","75.00","img/238/4/0.66667/bw/001.png","","","interesting"
"","","","","","animation","286","1926025","0.0-286.0","1920x1080","","5174.800000190735","13.89","img/117/2.5/1.5/bw/001.png","","","interesting"
"","","","","","animation","287","1930637","0.0-287.0","1920x1080","","4609.299999952316","43.25","img/238/3.5/0.66667/bw/001.png","","","interesting"
"","","","","","animation","288","1933149","0.0-288.0","1920x1080","","2510.5","17.59","img/117/2.5/0.5/bw/001.png","","","interesting"
"","","","","","animation","289","1935958","0.0-289.0","1920x1080","","2807.600000143051","70.63","img/117/4/0.5/bw/001.png","","","interesting"
"","","","","","animation","290","1942442","0.0-290.0","1920x1080","","6481.800000190735","66","img/314/3.5/1.5/bw/001.png","","","interesting"
"","","","","","animation","291","1948684","0.0-291.0","1920x1080","","6240.399999856949","63.36","img/117/4/1.5/bw/001.png","","","interesting"
"","","","","","animation","292","1953732","0.0-292.0","1920x1080","","5045","21.43","img/117/3.5/1.5/bw/001.png","","","interesting"
"","","","","","animation","293","1958298","0.0-293.0","1920x1080","","4564","74.87","img/314/3.5/0.5/bw/001.png","","","interesting"
"","","","","","animation","294","1963325","0.0-294.0","1920x1080","","5025.100000143051","7","img/238/2.5/2/bw/001.png","","","interesting"
"","","","","","animation","295","1975324","0.0-295.0","1920x1080","","11997.900000095367","64","img/117/3.5/2/bw/001.png","","","interesting"
"","","","","","animation","296","1983475","0.0-296.0","1920x1080","","8148","8.86","img/238/2.5/0.66667/bw/001.png","","","interesting"
"","","","","","animation","297","1992991","0.0-297.0","1920x1080","","9513.800000190735","40.21","img/314/5.5/1.5/bw/001.png","","","interesting"
"","","","","","animation","298","1996414","0.0-298.0","1920x1080","","3420.600000143051","66","img/314/3.5/0.66667/bw/001.png","","","interesting"
"","","","","","animation","299","1999184","0.0-299.0","1920x1080","","2769.0999999046326","4.23","img/238/2.5/1.5/bw/001.png","","","interesting"
"","","","","","animation","300","2003098","0.0-300.0","1920x1080","","3911.2999999523163","36.90","img/238/5.5/0.66667/bw/001.png","","","interesting"
"","","","","","animation","301","2006364","0.0-301.0","1920x1080","","3265.100000143051","70.50","img/238/3.5/0.5/bw/001.png","","","interesting"
"","","","","","animation","302","2009198","0.0-302.0","1920x1080","","2833.100000143051","72.22","img/117/3.5/0.66667/bw/001.png","","","interesting"
"","","","","","animation","303","2012615","0.0-303.0","1920x1080","","3414.5999999046326","15.08","img/314/2.5/1/bw/001.png","","","interesting"
"","","","","","animation","304","2015438","0.0-304.0","1920x1080","","2821.600000143051","59.79","img/117/3.5/1/bw/001.png","","","interesting"
"","","","","","animation","305","2019863","0.0-305.0","1920x1080","","4422.700000047684","73.41","img/238/4.5/1/bw/001.png","","","interesting"
"","","","","","animation","306","2022924","0.0-306.0","1920x1080","","3059.2999999523163","76.72","img/238/4/2/bw/001.png","","","interesting"
"","","","","","animation","307","2026182","0.0-307.0","1920x1080","","3257","69.71","img/314/3.5/1/bw/001.png","","","interesting"
"","","","","","animation","308","2029701","0.0-308.0","1920x1080","","3517.2000000476837","56.75","img/238/3.5/1/bw/001.png","","","interesting"
"","","","","","animation","309","2034300","0.0-309.0","1920x1080","","4595.600000143051","81.61","img/117/4.5/0.66667/bw/001.png","","","interesting"
"","","","","","animation","310","2036703","0.0-310.0","1920x1080","","2401.600000143051","60.85","img/117/4/0.66667/bw/001.png","","","interesting"
"","","","","","animation","311","2046094","0.0-311.0","1920x1080","","9389.700000047684","81.88","img/117/4.5/2/bw/001.png","","","interesting"
"","","","","","animation","312","2048965","0.0-312.0","1920x1080","","2869.5999999046326","68.78","img/314/4/0.66667/bw/001.png","","","interesting"
"","","","","","html-button-response","313","2070758","0.0-313.0","1920x1080","","21790.799999952316","","<div class=""intro"">You are about to view a new series of animations.<br><br></div><div class=""intro"">You will evaluate them based on a different descriptor.<br><br></div><div class=""intro"">Move the slider to indicate how <strong style=""text-transform:capitalize"">RELAXING</strong> you find each animation.<br><br></div><div class=""intro"">0 = Least Relaxing<br></div><div class=""intro"">1 = Most Relaxing<br><br></div><div class=""intro"">Remember to use the <strong><em>entire range</em></strong> of the slider to make your ratings.<br></div><div class=""intro"">Please <strong><em>take your time</em></strong> and carefully consider each rating you make.<br><br></div>","0","",""
"","","","","","call-function","314","2070760","0.0-314.0","1920x1080","","","","","","",""
"","","","","","animation","315","2073708","0.0-315.0","1920x1080","","2946.9000000953674","2.91","img/238/2.5/1/bw/001.png","","","relaxing"
"","","","","","animation","316","2076324","0.0-316.0","1920x1080","","2614.899999856949","1.19","img/314/2.5/0.5/bw/001.png","","","relaxing"
"","","","","","animation","317","2081258","0.0-317.0","1920x1080","","4932.799999952316","15.48","img/238/2.5/2/bw/001.png","","","relaxing"
"","","","","","animation","318","2084143","0.0-318.0","1920x1080","","2882.899999856949","63","img/238/4.5/1.5/bw/001.png","","","relaxing"
"","","","","","animation","319","2086396","0.0-319.0","1920x1080","","2251.0999999046326","55.29","img/314/4/1.5/bw/001.png","","","relaxing"
"","","","","","animation","320","2088776","0.0-320.0","1920x1080","","2378.2000000476837","76.72","img/238/5.5/0.66667/bw/001.png","","","relaxing"
"","","","","","animation","321","2093628","0.0-321.0","1920x1080","","4850.199999809265","97","img/314/5.5/2/bw/001.png","","","relaxing"
"","","","","","animation","322","2098144","0.0-322.0","1920x1080","","4512.399999856949","2.12","img/117/2.5/0.66667/bw/001.png","","","relaxing"
"","","","","","animation","323","2102407","0.0-323.0","1920x1080","","4260.700000047684","6.08","img/238/2.5/0.5/bw/001.png","","","relaxing"
"","","","","","animation","324","2106433","0.0-324.0","1920x1080","","4023.7999999523163","10.05","img/314/3.5/0.66667/bw/001.png","","","relaxing"
"","","","","","animation","325","2110044","0.0-325.0","1920x1080","","3609.2999999523163","27.78","img/117/4/1/bw/001.png","","","relaxing"
"","","","","","animation","326","2113692","0.0-326.0","1920x1080","","3645.199999809265","11.51","img/238/4/0.5/bw/001.png","","","relaxing"
"","","","","","animation","327","2118775","0.0-327.0","1920x1080","","5081.799999952316","4.50","img/238/3.5/1.5/bw/001.png","","","relaxing"
"","","","","","animation","328","2136308","0.0-328.0","1920x1080","","17530.89999985695","32.14","img/117/4/0.66667/bw/001.png","","","relaxing"
"","","","","","animation","329","2139831","0.0-329.0","1920x1080","","3522","56","img/314/4.5/1/bw/001.png","","","relaxing"
"","","","","","animation","330","2143917","0.0-330.0","1920x1080","","4084.100000143051","87","img/314/5.5/1/bw/001.png","","","relaxing"
"","","","","","animation","331","2147157","0.0-331.0","1920x1080","","3238","41.93","img/238/3.5/0.5/bw/001.png","","","relaxing"
"","","","","","animation","332","2151207","0.0-332.0","1920x1080","","4048.2999999523163","17.20","img/314/2.5/1.5/bw/001.png","","","relaxing"
"","","","","","animation","333","2154461","0.0-333.0","1920x1080","","3251.100000143051","12.96","img/117/3.5/1/bw/001.png","","","relaxing"
"","","","","","animation","334","2179629","0.0-334.0","1920x1080","","25166.60000014305","35.58","img/238/3.5/0.66667/bw/001.png","","","relaxing"
"","","","","","animation","335","2191174","0.0-335.0","1920x1080","","11543.799999952316","20.37","img/314/3.5/1.5/bw/001.png","","","relaxing"
"","","","","","animation","336","2194312","0.0-336.0","1920x1080","","3136.5","72.35","img/314/5.5/0.5/bw/001.png","","","relaxing"
"","","","","","animation","337","2198359","0.0-337.0","1920x1080","","4045.2999999523163","90.08","img/238/5.5/1/bw/001.png","","","relaxing"
"","","","","","animation","338","2203077","0.0-338.0","1920x1080","","4716.299999952316","42.20","img/117/4/0.5/bw/001.png","","","relaxing"
"","","","","","animation","339","2205303","0.0-339.0","1920x1080","","2224.899999856949","38.23","img/117/4.5/0.5/bw/001.png","","","relaxing"
"","","","","","animation","340","2216876","0.0-340.0","1920x1080","","11572.299999952316","15.87","img/117/3.5/0.5/bw/001.png","","","relaxing"
"","","","","","animation","341","2222913","0.0-341.0","1920x1080","","6035","25.00","img/314/4/1/bw/001.png","","","relaxing"
"","","","","","animation","342","2232192","0.0-342.0","1920x1080","","9277.400000095367","70","img/117/4.5/1/bw/001.png","","","relaxing"
"","","","","","animation","343","2235958","0.0-343.0","1920x1080","","3765","10.58","img/314/3.5/0.5/bw/001.png","","","relaxing"
"","","","","","animation","344","2241053","0.0-344.0","1920x1080","","5093.399999856949","100","img/117/5.5/2/bw/001.png","","","relaxing"
"","","","","","animation","345","2247758","0.0-345.0","1920x1080","","6703","88.76","img/238/5.5/0.5/bw/001.png","","","relaxing"
"","","","","","animation","346","2250459","0.0-346.0","1920x1080","","2698.7999999523163","65.87","img/238/4/2/bw/001.png","","","relaxing"
"","","","","","animation","347","2255658","0.0-347.0","1920x1080","","5197.899999856949","48.54","img/117/5.5/0.5/bw/001.png","","","relaxing"
"","","","","","animation","348","2258574","0.0-348.0","1920x1080","","2915.2000000476837","2.38","img/117/2.5/0.5/bw/001.png","","","relaxing"
"","","","","","animation","349","2263876","0.0-349.0","1920x1080","","5300.700000047684","56.61","img/117/4.5/1.5/bw/001.png","","","relaxing"
"","","","","","animation","350","2268574","0.0-350.0","1920x1080","","4696.5","80.82","img/314/5.5/0.66667/bw/001.png","","","relaxing"
"","","","","","animation","351","2271300","0.0-351.0","1920x1080","","2724.9000000953674","79.23","img/117/5.5/0.66667/bw/001.png","","","relaxing"
"","","","","","animation","352","2277045","0.0-352.0","1920x1080","","5742.600000143051","51","img/238/4/1/bw/001.png","","","relaxing"
"","","","","","animation","353","2281296","0.0-353.0","1920x1080","","4249.700000047684","44.44","img/238/4/1.5/bw/001.png","","","relaxing"
"","","","","","animation","354","2285584","0.0-354.0","1920x1080","","4286.400000095367","52.51","img/314/4.5/0.66667/bw/001.png","","","relaxing"
"","","","","","animation","355","2288527","0.0-355.0","1920x1080","","2942","56","img/238/4.5/1/bw/001.png","","","relaxing"
"","","","","","animation","356","2306775","0.0-356.0","1920x1080","","18247","96","img/238/5.5/1.5/bw/001.png","","","relaxing"
"","","","","","animation","357","2314874","0.0-357.0","1920x1080","","8097.400000095367","59.13","img/238/4.5/0.66667/bw/001.png","","","relaxing"
"","","","","","animation","358","2317192","0.0-358.0","1920x1080","","2315.699999809265","69.97","img/314/5.5/1.5/bw/001.png","","","relaxing"
"","","","","","animation","359","2322061","0.0-359.0","1920x1080","","4867.900000095367","35.32","img/314/4/2/bw/001.png","","","relaxing"
"","","","","","animation","360","2331609","0.0-360.0","1920x1080","","9546.100000143051","56.88","img/238/4.5/2/bw/001.png","","","relaxing"
"","","","","","animation","361","2352444","0.0-361.0","1920x1080","","20833.700000047684","84.79","img/238/5.5/2/bw/001.png","","","relaxing"
"","","","","","animation","362","2355877","0.0-362.0","1920x1080","","3431.800000190735","4","img/117/2.5/2/bw/001.png","","","relaxing"
"","","","","","animation","363","2359229","0.0-363.0","1920x1080","","3350.2999999523163","26.98","img/314/3.5/2/bw/001.png","","","relaxing"
"","","","","","animation","364","2362375","0.0-364.0","1920x1080","","3142.7000000476837","10.98","img/314/4/0.5/bw/001.png","","","relaxing"
"","","","","","animation","365","2368702","0.0-365.0","1920x1080","","6326.299999952316","86","img/117/5.5/1/bw/001.png","","","relaxing"
"","","","","","animation","366","2378029","0.0-366.0","1920x1080","","9324.799999952316","80.16","img/314/4.5/2/bw/001.png","","","relaxing"
"","","","","","animation","367","2382745","0.0-367.0","1920x1080","","4714.5","46","img/314/4/0.66667/bw/001.png","","","relaxing"
"","","","","","animation","368","2386254","0.0-368.0","1920x1080","","3505.7000000476837","41.40","img/238/4/0.66667/bw/001.png","","","relaxing"
"","","","","","animation","369","2395444","0.0-369.0","1920x1080","","9189.200000047684","54","img/238/4.5/0.5/bw/001.png","","","relaxing"
"","","","","","animation","370","2399346","0.0-370.0","1920x1080","","3898.300000190735","3.17","img/117/2.5/1/bw/001.png","","","relaxing"
"","","","","","animation","371","2403318","0.0-371.0","1920x1080","","3968.899999856949","68.39","img/117/4.5/2/bw/001.png","","","relaxing"
"","","","","","animation","372","2422458","0.0-372.0","1920x1080","","19137.89999985695","70.11","img/117/4/1.5/bw/001.png","","","relaxing"
"","","","","","animation","373","2426374","0.0-373.0","1920x1080","","3914","3.57","img/314/2.5/1/bw/001.png","","","relaxing"
"","","","","","animation","374","2430341","0.0-374.0","1920x1080","","3963.7000000476837","87","img/117/5.5/1.5/bw/001.png","","","relaxing"
"","","","","","animation","375","2432557","0.0-375.0","1920x1080","","2214.100000143051","3.97","img/238/2.5/0.66667/bw/001.png","","","relaxing"
"","","","","","animation","376","2435396","0.0-376.0","1920x1080","","2837.7000000476837","85.05","img/314/4.5/0.5/bw/001.png","","","relaxing"
"","","","","","animation","377","2438474","0.0-377.0","1920x1080","","3075.7999999523163","3.04","img/314/2.5/0.66667/bw/001.png","","","relaxing"
"","","","","","animation","378","2441019","0.0-378.0","1920x1080","","2542.7999999523163","4.50","img/117/3.5/2/bw/001.png","","","relaxing"
"","","","","","animation","379","2446640","0.0-379.0","1920x1080","","5619.199999809265","63","img/314/4.5/1.5/bw/001.png","","","relaxing"
"","","","","","animation","380","2455363","0.0-380.0","1920x1080","","8720.299999952316","48.81","img/117/4.5/0.66667/bw/001.png","","","relaxing"
"","","","","","animation","381","2463141","0.0-381.0","1920x1080","","7777.200000047684","29.89","img/238/3.5/1/bw/001.png","","","relaxing"
"","","","","","animation","382","2465991","0.0-382.0","1920x1080","","2848.399999856949","4.76","img/314/2.5/2/bw/001.png","","","relaxing"
"","","","","","animation","383","2470408","0.0-383.0","1920x1080","","4414.5","67.06","img/314/3.5/1/bw/001.png","","","relaxing"
"","","","","","animation","384","2473225","0.0-384.0","1920x1080","","2814.5999999046326","22.88","img/117/4/2/bw/001.png","","","relaxing"
"","","","","","animation","385","2475392","0.0-385.0","1920x1080","","2165","71.96","img/117/3.5/1.5/bw/001.png","","","relaxing"
"","","","","","animation","386","2478175","0.0-386.0","1920x1080","","2782","9.13","img/238/2.5/1.5/bw/001.png","","","relaxing"
"","","","","","animation","387","2487458","0.0-387.0","1920x1080","","9281","31.48","img/117/3.5/0.66667/bw/001.png","","","relaxing"
"","","","","","animation","388","2499491","0.0-388.0","1920x1080","","12031.5","10.05","img/117/2.5/1.5/bw/001.png","","","relaxing"
"","","","","","animation","389","2502309","0.0-389.0","1920x1080","","2815.2999999523163","28.84","img/238/3.5/2/bw/001.png","","","relaxing"
"","","","","","html-button-response","390","2640894","0.0-390.0","1920x1080","","138582.5","","<strong>Study Debriefing</strong><br><p class=""debrief""><strong>Background:</strong> The patterns you rated are called <em>fractals</em>. The term fractal describes a class of irregular curves or shapes for which any suitably chosen part is similar in shape to a given larger or smaller part when magnified or reduced to the same size. Fractal properties are found throughout the natural and manmade world. The series of animations you saw today displayed animated fractal patterns of a varying complexity.</p><p class=""debrief""><strong>Purpose of this study:</strong> We hope to better understand how the perception of static fractals differs from the perception of animated fractals, and how the speed of the animated patterns influences people&apos;s perception of them. Fractals allow us to study the perception of aesthetic properties (e.g. the perceived level of beauty in an image) without using recognizable content, which makes them an excellent tool for studying abstract aesthetic judgement.</p><p class=""debrief""><strong>Your part:</strong> Your participation has helped us to further understand how humans perceive these patterns across different levels of speed and complexity. This research with allow us to better understand how the visual system and brain process our ever-changing visual environments.<p class=""debrief""><strong>Feedback and Further information:</strong> If you have additional questions about this study, please feel free to ask the researcher, Nathan Gonzales-Hess at nhess @ uoregon.edu. If you have any questions concerning your rights as a research participant, please contact Research Compliance Services, 5237 University of Oregon, Eugene, OR 97403, 541-346-2510, or email researchCompliance @ uoregon.edu. You can also email the Human Subjects Coordinator for psychology and linguistics research at hscoord @ uoregon.edu. ","0","",""
"","","","","","html-button-response","391","2644501","0.0-391.0","1920x1080","","3602.300000190735","","Thank you for participating in this study. <br>Please click below to finish the experiment and submit your responses.<br><br>","0","",""
"true","","","","","fullscreen","392","2645513","0.0-392.0","1920x1080","13:39 3/6/2022","","","","","",""
