"success","timeout","failed_images","failed_audio","failed_video","trial_type","trial_index","time_elapsed","internal_node_id","resolution","timeStamp","rt","response","stimulus","button_pressed","value","descriptor"
"true","false","[]","[]","[]","preload","0","5811","0.0-0.0","1920x1080","","","","","","",""
"true","false","[]","[]","[]","preload","1","11835","0.0-1.0","1920x1080","","","","","","",""
"true","false","[]","[]","[]","preload","2","17725","0.0-2.0","1920x1080","","","","","","",""
"true","","","","","fullscreen","3","310819","0.0-3.0","1920x1080","10:50 10/10/2022","","","","","",""
"","","","","","survey-html-form","4","323872","0.0-4.0","1920x1080","","13050","{""age"":""21"",""gender"":""Female""}","","","",""
"","","","","","html-button-response","5","363879","0.0-5.0","1920x1080","","40006.80000001192","","<div class=""complex"">You are going to see a series of animations.<br><br></div><div class=""complex"">Move the slider to indicate how <strong style=""text-transform:capitalize"">COMPLEX</strong> you find each animation.<br><br></div><div class=""complex"">0 = Least Complex<br></div><div class=""complex"">1 = Most Complex<br><br></div><div class=""complex"">Remember to use the <strong><em>entire range</em></strong> of the slider to make your ratings.<br></div><div class=""complex"">Please <strong><em>take your time</em></strong> and carefully consider each rating you make.<br><br></div><div class=""complex"">The study has five sections and will take about 45 minutes to complete.<br><br></div>","0","",""
"","","","","","call-function","6","363880","0.0-6.0","1920x1080","","","","","","",""
"","","","","","animation","7","372223","0.0-7.0","1920x1080","","8342.300000011921","63.36","img/314/4/1.5/bw/001.png","","","complex"
"","","","","","animation","8","380327","0.0-8.0","1920x1080","","8103.600000023842","71.96","img/314/3.5/0.66667/bw/001.png","","","complex"
"","","","","","animation","9","386423","0.0-9.0","1920x1080","","6094.5","24.34","img/314/4.5/2/bw/001.png","","","complex"
"","","","","","animation","10","396383","0.0-10.0","1920x1080","","9959","19.58","img/238/4.5/0.66667/bw/001.png","","","complex"
"","","","","","animation","11","400951","0.0-11.0","1920x1080","","4567.399999976158","65","img/117/4/0.66667/bw/001.png","","","complex"
"","","","","","animation","12","405047","0.0-12.0","1920x1080","","4094.900000035763","55.29","img/117/4/2/bw/001.png","","","complex"
"","","","","","animation","13","409423","0.0-13.0","1920x1080","","4375.600000023842","94.58","img/314/2.5/0.66667/bw/001.png","","","complex"
"","","","","","animation","14","412695","0.0-14.0","1920x1080","","3271","37.70","img/117/4/1/bw/001.png","","","complex"
"","","","","","animation","15","421263","0.0-15.0","1920x1080","","8567.099999964237","62","img/314/3.5/1/bw/001.png","","","complex"
"","","","","","animation","16","424958","0.0-16.0","1920x1080","","3695.300000011921","7","img/117/5.5/1.5/bw/001.png","","","complex"
"","","","","","animation","17","428254","0.0-17.0","1920x1080","","3295","22.22","img/117/4.5/0.66667/bw/001.png","","","complex"
"","","","","","animation","18","431959","0.0-18.0","1920x1080","","3703.5","95","img/117/2.5/0.5/bw/001.png","","","complex"
"","","","","","animation","19","438070","0.0-19.0","1920x1080","","6111","85.85","img/117/2.5/2/bw/001.png","","","complex"
"","","","","","animation","20","442870","0.0-20.0","1920x1080","","4798.5","23.68","img/314/4.5/0.5/bw/001.png","","","complex"
"","","","","","animation","21","448894","0.0-21.0","1920x1080","","6023.099999964237","28.04","img/117/4/1.5/bw/001.png","","","complex"
"","","","","","animation","22","455127","0.0-22.0","1920x1080","","6231.699999988079","12","img/117/5.5/1/bw/001.png","","","complex"
"","","","","","animation","23","459318","0.0-23.0","1920x1080","","4187.699999988079","5.95","img/314/5.5/2/bw/001.png","","","complex"
"","","","","","animation","24","465286","0.0-24.0","1920x1080","","5967.899999976158","20.63","img/238/4/0.66667/bw/001.png","","","complex"
"","","","","","animation","25","469998","0.0-25.0","1920x1080","","4710.899999976158","11.11","img/238/5.5/0.5/bw/001.png","","","complex"
"","","","","","animation","26","473902","0.0-26.0","1920x1080","","3899.7999999523163","86","img/117/2.5/1/bw/001.png","","","complex"
"","","","","","animation","27","478534","0.0-27.0","1920x1080","","4631.600000023842","33","img/314/4.5/0.66667/bw/001.png","","","complex"
"","","","","","animation","28","485565","0.0-28.0","1920x1080","","7030.5","27","img/238/3.5/1.5/bw/001.png","","","complex"
"","","","","","animation","29","489943","0.0-29.0","1920x1080","","4376.900000035763","72.75","img/117/3.5/0.66667/bw/001.png","","","complex"
"","","","","","animation","30","493165","0.0-30.0","1920x1080","","3221.400000035763","63.10","img/314/3.5/1.5/bw/001.png","","","complex"
"","","","","","animation","31","496485","0.0-31.0","1920x1080","","3319.5","97","img/238/2.5/1/bw/001.png","","","complex"
"","","","","","animation","32","502485","0.0-32.0","1920x1080","","5998.600000023842","25","img/314/4/2/bw/001.png","","","complex"
"","","","","","animation","33","506837","0.0-33.0","1920x1080","","4351.399999976158","5.42","img/238/5.5/2/bw/001.png","","","complex"
"","","","","","animation","34","509949","0.0-34.0","1920x1080","","3111.699999988079","22","img/117/4.5/1.5/bw/001.png","","","complex"
"","","","","","animation","35","514189","0.0-35.0","1920x1080","","4239.399999976158","88.89","img/238/2.5/2/bw/001.png","","","complex"
"","","","","","animation","36","519749","0.0-36.0","1920x1080","","5559","29","img/314/4/1/bw/001.png","","","complex"
"","","","","","animation","37","532181","0.0-37.0","1920x1080","","12430.899999976158","46","img/314/4/0.5/bw/001.png","","","complex"
"","","","","","animation","38","537197","0.0-38.0","1920x1080","","5014.800000011921","83","img/314/2.5/1.5/bw/001.png","","","complex"
"","","","","","animation","39","543133","0.0-39.0","1920x1080","","5935","87","img/117/3.5/0.5/bw/001.png","","","complex"
"","","","","","animation","40","548394","0.0-40.0","1920x1080","","5261.199999988079","19","img/314/5.5/0.5/bw/001.png","","","complex"
"","","","","","animation","41","552210","0.0-41.0","1920x1080","","3815.100000023842","14","img/238/5.5/1/bw/001.png","","","complex"
"","","","","","animation","42","554834","0.0-42.0","1920x1080","","2623.600000023842","96","img/238/2.5/0.66667/bw/001.png","","","complex"
"","","","","","animation","43","559355","0.0-43.0","1920x1080","","4520.400000035763","30.16","img/238/4/2/bw/001.png","","","complex"
"","","","","","animation","44","563307","0.0-44.0","1920x1080","","3950.5","96","img/314/2.5/0.5/bw/001.png","","","complex"
"","","","","","animation","45","568218","0.0-45.0","1920x1080","","4910.199999988079","39.02","img/238/4/0.5/bw/001.png","","","complex"
"","","","","","animation","46","571570","0.0-46.0","1920x1080","","3351.199999988079","92.46","img/314/2.5/2/bw/001.png","","","complex"
"","","","","","animation","47","577282","0.0-47.0","1920x1080","","5711","75","img/238/3.5/0.66667/bw/001.png","","","complex"
"","","","","","animation","48","580489","0.0-48.0","1920x1080","","3206.600000023842","11.24","img/117/5.5/2/bw/001.png","","","complex"
"","","","","","animation","49","582956","0.0-49.0","1920x1080","","2465.800000011921","30.29","img/238/4.5/2/bw/001.png","","","complex"
"","","","","","animation","50","588682","0.0-50.0","1920x1080","","5725","42","img/314/4/0.66667/bw/001.png","","","complex"
"","","","","","animation","51","593602","0.0-51.0","1920x1080","","4919.100000023842","95","img/238/2.5/0.5/bw/001.png","","","complex"
"","","","","","animation","52","596482","0.0-52.0","1920x1080","","2878.699999988079","35","img/117/4.5/2/bw/001.png","","","complex"
"","","","","","animation","53","599441","0.0-53.0","1920x1080","","2958.400000035763","10.19","img/314/5.5/1.5/bw/001.png","","","complex"
"","","","","","animation","54","602178","0.0-54.0","1920x1080","","2735.399999976158","38.10","img/238/4.5/1/bw/001.png","","","complex"
"","","","","","animation","55","605927","0.0-55.0","1920x1080","","3744.699999988079","43.39","img/238/4/1/bw/001.png","","","complex"
"","","","","","animation","56","608478","0.0-56.0","1920x1080","","2550.100000023842","67.59","img/117/4/0.5/bw/001.png","","","complex"
"","","","","","animation","57","612765","0.0-57.0","1920x1080","","4286.300000011921","17","img/238/5.5/1.5/bw/001.png","","","complex"
"","","","","","animation","58","615589","0.0-58.0","1920x1080","","2823.399999976158","29","img/117/4.5/0.5/bw/001.png","","","complex"
"","","","","","animation","59","620453","0.0-59.0","1920x1080","","4863.099999964237","30","img/238/4.5/0.5/bw/001.png","","","complex"
"","","","","","animation","60","622845","0.0-60.0","1920x1080","","2390.900000035763","19.05","img/238/4.5/1.5/bw/001.png","","","complex"
"","","","","","animation","61","625694","0.0-61.0","1920x1080","","2845.2000000476837","26.98","img/117/5.5/0.5/bw/001.png","","","complex"
"","","","","","animation","62","632301","0.0-62.0","1920x1080","","6606.5","61","img/238/3.5/1/bw/001.png","","","complex"
"","","","","","animation","63","635181","0.0-63.0","1920x1080","","2879","55","img/314/3.5/2/bw/001.png","","","complex"
"","","","","","animation","64","641286","0.0-64.0","1920x1080","","6103.099999964237","18.12","img/314/5.5/0.66667/bw/001.png","","","complex"
"","","","","","animation","65","649045","0.0-65.0","1920x1080","","7758.5","20","img/238/5.5/0.66667/bw/001.png","","","complex"
"","","","","","animation","66","651797","0.0-66.0","1920x1080","","2751","82.14","img/314/2.5/1/bw/001.png","","","complex"
"","","","","","animation","67","654377","0.0-67.0","1920x1080","","2578.600000023842","82.01","img/238/2.5/1.5/bw/001.png","","","complex"
"","","","","","animation","68","659895","0.0-68.0","1920x1080","","5517","33","img/117/5.5/0.66667/bw/001.png","","","complex"
"","","","","","animation","69","662501","0.0-69.0","1920x1080","","2605.199999988079","31.88","img/238/4/1.5/bw/001.png","","","complex"
"","","","","","animation","70","667013","0.0-70.0","1920x1080","","4511","30.29","img/314/4.5/1.5/bw/001.png","","","complex"
"","","","","","animation","71","669365","0.0-71.0","1920x1080","","2351.099999964237","34.92","img/117/4.5/1/bw/001.png","","","complex"
"","","","","","animation","72","674628","0.0-72.0","1920x1080","","5262.899999976158","62.43","img/117/3.5/1/bw/001.png","","","complex"
"","","","","","animation","73","676805","0.0-73.0","1920x1080","","2175.699999988079","59.79","img/117/3.5/1.5/bw/001.png","","","complex"
"","","","","","animation","74","678701","0.0-74.0","1920x1080","","1895.199999988079","58.86","img/117/3.5/2/bw/001.png","","","complex"
"","","","","","animation","75","680869","0.0-75.0","1920x1080","","2167.100000023842","59.13","img/238/3.5/2/bw/001.png","","","complex"
"","","","","","animation","76","686765","0.0-76.0","1920x1080","","5895.100000023842","19","img/314/5.5/1/bw/001.png","","","complex"
"","","","","","animation","77","692549","0.0-77.0","1920x1080","","5782.5","70","img/238/3.5/0.5/bw/001.png","","","complex"
"","","","","","animation","78","694893","0.0-78.0","1920x1080","","2342.600000023842","83","img/117/2.5/1.5/bw/001.png","","","complex"
"","","","","","animation","79","698221","0.0-79.0","1920x1080","","3327.100000023842","38.23","img/314/4.5/1/bw/001.png","","","complex"
"","","","","","animation","80","700829","0.0-80.0","1920x1080","","2607","65.34","img/314/3.5/0.5/bw/001.png","","","complex"
"","","","","","animation","81","703516","0.0-81.0","1920x1080","","2687","84.66","img/117/2.5/0.66667/bw/001.png","","","complex"
"","","","","","html-button-response","82","724809","0.0-82.0","1920x1080","","21287.69999998808","","<div class=""intro"">You are about to view a new series of animations.<br><br></div><div class=""intro"">You will evaluate them based on a different descriptor.<br><br></div><div class=""intro"">Move the slider to indicate how <strong style=""text-transform:capitalize"">RELAXING</strong> you find each animation.<br><br></div><div class=""intro"">0 = Least Relaxing<br></div><div class=""intro"">1 = Most Relaxing<br><br></div><div class=""intro"">Remember to use the <strong><em>entire range</em></strong> of the slider to make your ratings.<br></div><div class=""intro"">Please <strong><em>take your time</em></strong> and carefully consider each rating you make.<br><br></div>","0","",""
"","","","","","call-function","83","724810","0.0-83.0","1920x1080","","","","","","",""
"","","","","","animation","84","731568","0.0-84.0","1920x1080","","6757.300000011921","34.92","img/314/4.5/0.5/bw/001.png","","","relaxing"
"","","","","","animation","85","742163","0.0-85.0","1920x1080","","10593.5","35","img/238/4/1/bw/001.png","","","relaxing"
"","","","","","animation","86","747608","0.0-86.0","1920x1080","","5442.900000035763","61.51","img/117/4.5/1.5/bw/001.png","","","relaxing"
"","","","","","animation","87","751808","0.0-87.0","1920x1080","","4198.800000011921","36.51","img/314/4/2/bw/001.png","","","relaxing"
"","","","","","animation","88","758248","0.0-88.0","1920x1080","","6438.199999988079","82.01","img/314/5.5/2/bw/001.png","","","relaxing"
"","","","","","animation","89","762448","0.0-89.0","1920x1080","","4198.800000011921","38.36","img/238/4/2/bw/001.png","","","relaxing"
"","","","","","animation","90","765632","0.0-90.0","1920x1080","","3183.300000011921","16.14","img/314/4/0.5/bw/001.png","","","relaxing"
"","","","","","animation","91","768136","0.0-91.0","1920x1080","","2503.399999976158","2.25","img/117/2.5/0.5/bw/001.png","","","relaxing"
"","","","","","animation","92","774456","0.0-92.0","1920x1080","","6319.200000047684","41.14","img/238/4.5/1.5/bw/001.png","","","relaxing"
"","","","","","animation","93","778032","0.0-93.0","1920x1080","","3574.5","37.83","img/314/4.5/0.66667/bw/001.png","","","relaxing"
"","","","","","animation","94","781979","0.0-94.0","1920x1080","","3946.899999976158","72.75","img/117/5.5/1/bw/001.png","","","relaxing"
"","","","","","animation","95","784659","0.0-95.0","1920x1080","","2683.300000011921","3.04","img/238/2.5/1/bw/001.png","","","relaxing"
"","","","","","animation","96","787125","0.0-96.0","1920x1080","","2465.300000011921","3.44","img/117/2.5/1.5/bw/001.png","","","relaxing"
"","","","","","animation","97","790252","0.0-97.0","1920x1080","","3125.199999988079","18.25","img/117/4/2/bw/001.png","","","relaxing"
"","","","","","animation","98","793407","0.0-98.0","1920x1080","","3154.800000011921","6.08","img/238/3.5/0.5/bw/001.png","","","relaxing"
"","","","","","animation","99","801020","0.0-99.0","1920x1080","","7611.199999988079","39","img/238/4.5/1/bw/001.png","","","relaxing"
"","","","","","animation","100","803300","0.0-100.0","1920x1080","","2279.100000023842","16.40","img/117/4/0.5/bw/001.png","","","relaxing"
"","","","","","animation","101","811043","0.0-101.0","1920x1080","","7742.400000035763","83","img/117/5.5/2/bw/001.png","","","relaxing"
"","","","","","animation","102","817875","0.0-102.0","1920x1080","","6831","30.42","img/238/4.5/0.66667/bw/001.png","","","relaxing"
"","","","","","animation","103","822500","0.0-103.0","1920x1080","","4622.5","68.65","img/314/4.5/2/bw/001.png","","","relaxing"
"","","","","","animation","104","825190","0.0-104.0","1920x1080","","2689.600000023842","26.85","img/314/3.5/2/bw/001.png","","","relaxing"
"","","","","","animation","105","827620","0.0-105.0","1920x1080","","2428.5","24.34","img/117/3.5/2/bw/001.png","","","relaxing"
"","","","","","animation","106","830563","0.0-106.0","1920x1080","","2942.5","22.35","img/117/3.5/0.5/bw/001.png","","","relaxing"
"","","","","","animation","107","834475","0.0-107.0","1920x1080","","3910.5","76.72","img/117/5.5/0.66667/bw/001.png","","","relaxing"
"","","","","","animation","108","837292","0.0-108.0","1920x1080","","2816.199999988079","20.63","img/314/3.5/0.66667/bw/001.png","","","relaxing"
"","","","","","animation","109","840359","0.0-109.0","1920x1080","","3065.400000035763","8.20","img/314/2.5/1/bw/001.png","","","relaxing"
"","","","","","animation","110","842509","0.0-110.0","1920x1080","","2148.400000035763","4","img/238/2.5/1.5/bw/001.png","","","relaxing"
"","","","","","animation","111","846235","0.0-111.0","1920x1080","","3725.600000023842","77.78","img/238/5.5/0.66667/bw/001.png","","","relaxing"
"","","","","","animation","112","848963","0.0-112.0","1920x1080","","2726.899999976158","17.99","img/314/3.5/0.5/bw/001.png","","","relaxing"
"","","","","","animation","113","851173","0.0-113.0","1920x1080","","2209.199999988079","13.62","img/117/3.5/1/bw/001.png","","","relaxing"
"","","","","","animation","114","853390","0.0-114.0","1920x1080","","2216.199999988079","13.49","img/314/3.5/1/bw/001.png","","","relaxing"
"","","","","","animation","115","858963","0.0-115.0","1920x1080","","5572.100000023842","25","img/314/4/1.5/bw/001.png","","","relaxing"
"","","","","","animation","116","863531","0.0-116.0","1920x1080","","4566.899999976158","25.26","img/238/4.5/2/bw/001.png","","","relaxing"
"","","","","","animation","117","879483","0.0-117.0","1920x1080","","15950.599999964237","74","img/117/5.5/1.5/bw/001.png","","","relaxing"
"","","","","","animation","118","883995","0.0-118.0","1920x1080","","4507.800000011921","27.38","img/314/3.5/1.5/bw/001.png","","","relaxing"
"","","","","","animation","119","886675","0.0-119.0","1920x1080","","2678.600000023842","4.89","img/238/2.5/0.5/bw/001.png","","","relaxing"
"","","","","","animation","120","892195","0.0-120.0","1920x1080","","5519.5","86.77","img/314/5.5/1/bw/001.png","","","relaxing"
"","","","","","animation","121","894947","0.0-121.0","1920x1080","","2751","5.56","img/238/2.5/2/bw/001.png","","","relaxing"
"","","","","","animation","122","898059","0.0-122.0","1920x1080","","3110.5","22.09","img/117/4.5/2/bw/001.png","","","relaxing"
"","","","","","animation","123","902259","0.0-123.0","1920x1080","","4199","37.43","img/238/4.5/0.5/bw/001.png","","","relaxing"
"","","","","","animation","124","906120","0.0-124.0","1920x1080","","3855.600000023842","82.14","img/314/5.5/0.66667/bw/001.png","","","relaxing"
"","","","","","animation","125","908568","0.0-125.0","1920x1080","","2447","4.63","img/117/2.5/1/bw/001.png","","","relaxing"
"","","","","","animation","126","912568","0.0-126.0","1920x1080","","3998.800000011921","21.56","img/314/4/0.66667/bw/001.png","","","relaxing"
"","","","","","animation","127","914688","0.0-127.0","1920x1080","","2119.099999964237","16.93","img/117/4/1.5/bw/001.png","","","relaxing"
"","","","","","animation","128","918136","0.0-128.0","1920x1080","","3447.100000023842","17.06","img/117/4/1/bw/001.png","","","relaxing"
"","","","","","animation","129","920745","0.0-129.0","1920x1080","","2608.199999988079","11.24","img/117/3.5/1.5/bw/001.png","","","relaxing"
"","","","","","animation","130","922864","0.0-130.0","1920x1080","","2117.399999976158","2","img/238/2.5/0.66667/bw/001.png","","","relaxing"
"","","","","","animation","131","929920","0.0-131.0","1920x1080","","7055.5","88.89","img/238/5.5/1/bw/001.png","","","relaxing"
"","","","","","animation","132","932536","0.0-132.0","1920x1080","","2615.199999988079","38.76","img/117/4.5/0.5/bw/001.png","","","relaxing"
"","","","","","animation","133","936000","0.0-133.0","1920x1080","","3463","87.57","img/314/5.5/1.5/bw/001.png","","","relaxing"
"","","","","","animation","134","938664","0.0-134.0","1920x1080","","2662.199999988079","33.07","img/117/4.5/0.66667/bw/001.png","","","relaxing"
"","","","","","animation","135","941313","0.0-135.0","1920x1080","","2648.600000023842","81.08","img/314/5.5/0.5/bw/001.png","","","relaxing"
"","","","","","animation","136","947040","0.0-136.0","1920x1080","","5725.599999964237","93","img/238/5.5/1.5/bw/001.png","","","relaxing"
"","","","","","animation","137","950168","0.0-137.0","1920x1080","","3127","5.42","img/117/2.5/2/bw/001.png","","","relaxing"
"","","","","","animation","138","954628","0.0-138.0","1920x1080","","4458.900000035763","85.45","img/238/5.5/0.5/bw/001.png","","","relaxing"
"","","","","","animation","139","958128","0.0-139.0","1920x1080","","3498.800000011921","29.10","img/314/4/1/bw/001.png","","","relaxing"
"","","","","","animation","140","960796","0.0-140.0","1920x1080","","2667.400000035763","18.25","img/238/4/0.5/bw/001.png","","","relaxing"
"","","","","","animation","141","963545","0.0-141.0","1920x1080","","2748.099999964237","36.38","img/238/4/1.5/bw/001.png","","","relaxing"
"","","","","","animation","142","965562","0.0-142.0","1920x1080","","2016.5999999642372","22.09","img/238/3.5/1/bw/001.png","","","relaxing"
"","","","","","animation","143","968456","0.0-143.0","1920x1080","","2892.600000023842","6.22","img/314/2.5/1.5/bw/001.png","","","relaxing"
"","","","","","animation","144","970704","0.0-144.0","1920x1080","","2246.899999976158","21.30","img/238/3.5/1.5/bw/001.png","","","relaxing"
"","","","","","animation","145","978395","0.0-145.0","1920x1080","","7690.100000023842","40","img/238/3.5/2/bw/001.png","","","relaxing"
"","","","","","animation","146","980799","0.0-146.0","1920x1080","","2403.599999964237","12.70","img/314/2.5/2/bw/001.png","","","relaxing"
"","","","","","animation","147","984612","0.0-147.0","1920x1080","","3811.199999988079","67.20","img/314/4.5/1.5/bw/001.png","","","relaxing"
"","","","","","animation","148","987456","0.0-148.0","1920x1080","","2843.199999988079","67.99","img/117/5.5/0.5/bw/001.png","","","relaxing"
"","","","","","animation","149","990479","0.0-149.0","1920x1080","","3022.399999976158","19.31","img/117/3.5/0.66667/bw/001.png","","","relaxing"
"","","","","","animation","150","993456","0.0-150.0","1920x1080","","2975.600000023842","33.47","img/117/4.5/1/bw/001.png","","","relaxing"
"","","","","","animation","151","995815","0.0-151.0","1920x1080","","2358.5","37.04","img/314/4.5/1/bw/001.png","","","relaxing"
"","","","","","animation","152","998215","0.0-152.0","1920x1080","","2399.099999964237","-1.59","img/314/2.5/0.5/bw/001.png","","","relaxing"
"","","","","","animation","153","1004361","0.0-153.0","1920x1080","","6145.199999988079","15","img/238/3.5/0.66667/bw/001.png","","","relaxing"
"","","","","","animation","154","1006616","0.0-154.0","1920x1080","","2253.199999988079","-5.29","img/314/2.5/0.66667/bw/001.png","","","relaxing"
"","","","","","animation","155","1009345","0.0-155.0","1920x1080","","2727.7999999523163","16.01","img/238/4/0.66667/bw/001.png","","","relaxing"
"","","","","","animation","156","1012616","0.0-156.0","1920x1080","","3270","0","img/117/2.5/0.66667/bw/001.png","","","relaxing"
"","","","","","animation","157","1015079","0.0-157.0","1920x1080","","2462.900000035763","21.56","img/117/4/0.66667/bw/001.png","","","relaxing"
"","","","","","animation","158","1018431","0.0-158.0","1920x1080","","3350.600000023842","91.14","img/238/5.5/2/bw/001.png","","","relaxing"
"","","","","","html-button-response","159","1051638","0.0-159.0","1920x1080","","33199","","<div class=""intro"">You are about to view a new series of animations.<br><br></div><div class=""intro"">You will evaluate them based on a different descriptor.<br><br></div><div class=""intro"">Move the slider to indicate how <strong style=""text-transform:capitalize"">INTERESTING</strong> you find each animation.<br><br></div><div class=""intro"">0 = Least Interesting<br></div><div class=""intro"">1 = Most Interesting<br><br></div><div class=""intro"">Remember to use the <strong><em>entire range</em></strong> of the slider to make your ratings.<br></div><div class=""intro"">Please <strong><em>take your time</em></strong> and carefully consider each rating you make.<br><br></div>","0","",""
"","","","","","call-function","160","1051642","0.0-160.0","1920x1080","","","","","","",""
"","","","","","animation","161","1057325","0.0-161.0","1920x1080","","5682.099999964237","32","img/238/4.5/1.5/bw/001.png","","","interesting"
"","","","","","animation","162","1067800","0.0-162.0","1920x1080","","10473.699999988079","62.30","img/314/4.5/2/bw/001.png","","","interesting"
"","","","","","animation","163","1082725","0.0-163.0","1920x1080","","14924.699999988079","71.30","img/117/5.5/0.66667/bw/001.png","","","interesting"
"","","","","","animation","164","1086578","0.0-164.0","1920x1080","","3858.5","29.76","img/117/2.5/1/bw/001.png","","","interesting"
"","","","","","animation","165","1090702","0.0-165.0","1920x1080","","4122.800000011921","24.34","img/117/4/0.5/bw/001.png","","","interesting"
"","","","","","animation","166","1098243","0.0-166.0","1920x1080","","7539.899999976158","65.74","img/314/5.5/1/bw/001.png","","","interesting"
"","","","","","animation","167","1101302","0.0-167.0","1920x1080","","3057.899999976158","38.49","img/117/3.5/2/bw/001.png","","","interesting"
"","","","","","animation","168","1103999","0.0-168.0","1920x1080","","2695.399999976158","33.47","img/314/4/1.5/bw/001.png","","","interesting"
"","","","","","animation","169","1107567","0.0-169.0","1920x1080","","3566.699999988079","69.97","img/314/5.5/1.5/bw/001.png","","","interesting"
"","","","","","animation","170","1111583","0.0-170.0","1920x1080","","4015.100000023842","81.35","img/314/2.5/1/bw/001.png","","","interesting"
"","","","","","animation","171","1117944","0.0-171.0","1920x1080","","6358.5","68.52","img/238/5.5/2/bw/001.png","","","interesting"
"","","","","","animation","172","1122367","0.0-172.0","1920x1080","","4421.800000011921","65.87","img/314/3.5/0.66667/bw/001.png","","","interesting"
"","","","","","animation","173","1126782","0.0-173.0","1920x1080","","4414.599999964237","69.97","img/117/3.5/0.5/bw/001.png","","","interesting"
"","","","","","animation","174","1131060","0.0-174.0","1920x1080","","4273.699999988079","78.44","img/117/5.5/1.5/bw/001.png","","","interesting"
"","","","","","animation","175","1138319","0.0-175.0","1920x1080","","7256.899999976158","37.57","img/314/4/1/bw/001.png","","","interesting"
"","","","","","animation","176","1147213","0.0-176.0","1920x1080","","8894.199999988079","74","img/117/4.5/1.5/bw/001.png","","","interesting"
"","","","","","animation","177","1152975","0.0-177.0","1920x1080","","5761.199999988079","33.73","img/117/3.5/0.66667/bw/001.png","","","interesting"
"","","","","","animation","178","1155797","0.0-178.0","1920x1080","","2820.899999976158","35.19","img/238/4/1.5/bw/001.png","","","interesting"
"","","","","","animation","179","1158885","0.0-179.0","1920x1080","","3087.100000023842","31.35","img/117/3.5/1/bw/001.png","","","interesting"
"","","","","","animation","180","1161749","0.0-180.0","1920x1080","","2859.600000023842","65.34","img/314/4.5/0.5/bw/001.png","","","interesting"
"","","","","","animation","181","1166058","0.0-181.0","1920x1080","","4308.100000023842","38.62","img/238/3.5/1/bw/001.png","","","interesting"
"","","","","","animation","182","1169175","0.0-182.0","1920x1080","","3115.899999976158","14.15","img/238/2.5/1.5/bw/001.png","","","interesting"
"","","","","","animation","183","1178461","0.0-183.0","1920x1080","","9284.100000023842","21","img/314/4/2/bw/001.png","","","interesting"
"","","","","","animation","184","1183501","0.0-184.0","1920x1080","","5039.300000011921","75.13","img/238/2.5/2/bw/001.png","","","interesting"
"","","","","","animation","185","1188625","0.0-185.0","1920x1080","","5122.699999988079","15.34","img/117/2.5/0.66667/bw/001.png","","","interesting"
"","","","","","animation","186","1198701","0.0-186.0","1920x1080","","10074.600000023842","66","img/314/4.5/1/bw/001.png","","","interesting"
"","","","","","animation","187","1204346","0.0-187.0","1920x1080","","5639.199999988079","36.51","img/238/4.5/2/bw/001.png","","","interesting"
"","","","","","animation","188","1208865","0.0-188.0","1920x1080","","4517.400000035763","86.24","img/314/5.5/0.5/bw/001.png","","","interesting"
"","","","","","animation","189","1213690","0.0-189.0","1920x1080","","4823.200000047684","34.52","img/117/3.5/1.5/bw/001.png","","","interesting"
"","","","","","animation","190","1217418","0.0-190.0","1920x1080","","3726.7999999523163","6.22","img/238/2.5/0.5/bw/001.png","","","interesting"
"","","","","","animation","191","1219649","0.0-191.0","1920x1080","","2230.600000023842","12.30","img/238/2.5/1/bw/001.png","","","interesting"
"","","","","","animation","192","1225680","0.0-192.0","1920x1080","","6030.300000011921","20.11","img/117/4/1/bw/001.png","","","interesting"
"","","","","","animation","193","1228548","0.0-193.0","1920x1080","","2865.300000011921","12.43","img/314/3.5/0.5/bw/001.png","","","interesting"
"","","","","","animation","194","1232217","0.0-194.0","1920x1080","","3668.300000011921","7.01","img/117/2.5/0.5/bw/001.png","","","interesting"
"","","","","","animation","195","1235065","0.0-195.0","1920x1080","","2846.699999988079","5.29","img/314/2.5/0.5/bw/001.png","","","interesting"
"","","","","","animation","196","1239647","0.0-196.0","1920x1080","","4579.799999952316","63.89","img/117/2.5/2/bw/001.png","","","interesting"
"","","","","","animation","197","1243938","0.0-197.0","1920x1080","","4290","65.34","img/314/4.5/0.66667/bw/001.png","","","interesting"
"","","","","","animation","198","1247306","0.0-198.0","1920x1080","","3366.7000000476837","32.67","img/117/4/1.5/bw/001.png","","","interesting"
"","","","","","animation","199","1250570","0.0-199.0","1920x1080","","3262.400000035763","30.56","img/314/3.5/1.5/bw/001.png","","","interesting"
"","","","","","animation","200","1253497","0.0-200.0","1920x1080","","2926.300000011921","8.73","img/238/2.5/0.66667/bw/001.png","","","interesting"
"","","","","","animation","201","1257379","0.0-201.0","1920x1080","","3880.800000011921","30.42","img/238/3.5/1.5/bw/001.png","","","interesting"
"","","","","","animation","202","1261880","0.0-202.0","1920x1080","","4499.300000011921","63.49","img/117/4.5/1/bw/001.png","","","interesting"
"","","","","","animation","203","1266246","0.0-203.0","1920x1080","","4365.099999964237","26","img/238/3.5/0.66667/bw/001.png","","","interesting"
"","","","","","animation","204","1273846","0.0-204.0","1920x1080","","7599","74.47","img/238/5.5/1/bw/001.png","","","interesting"
"","","","","","animation","205","1277479","0.0-205.0","1920x1080","","3630.899999976158","80.56","img/314/5.5/0.66667/bw/001.png","","","interesting"
"","","","","","animation","206","1280785","0.0-206.0","1920x1080","","3305.199999988079","34.66","img/238/3.5/2/bw/001.png","","","interesting"
"","","","","","animation","207","1283305","0.0-207.0","1920x1080","","2519.300000011921","67.99","img/117/5.5/1/bw/001.png","","","interesting"
"","","","","","animation","208","1286729","0.0-208.0","1920x1080","","3422.400000035763","29.76","img/238/3.5/0.5/bw/001.png","","","interesting"
"","","","","","animation","209","1289369","0.0-209.0","1920x1080","","2639","34.26","img/238/4/0.66667/bw/001.png","","","interesting"
"","","","","","animation","210","1293249","0.0-210.0","1920x1080","","3878.300000011921","37.70","img/238/4/2/bw/001.png","","","interesting"
"","","","","","animation","211","1297665","0.0-211.0","1920x1080","","4414.699999988079","62","img/314/4/0.66667/bw/001.png","","","interesting"
"","","","","","animation","212","1302569","0.0-212.0","1920x1080","","4903.5","61.64","img/238/4/1/bw/001.png","","","interesting"
"","","","","","animation","213","1307179","0.0-213.0","1920x1080","","4608.300000011921","35","img/117/4.5/2/bw/001.png","","","interesting"
"","","","","","animation","214","1313937","0.0-214.0","1920x1080","","6757.100000023842","32.01","img/238/4.5/1/bw/001.png","","","interesting"
"","","","","","animation","215","1319033","0.0-215.0","1920x1080","","5094.100000023842","77.78","img/238/5.5/1.5/bw/001.png","","","interesting"
"","","","","","animation","216","1321446","0.0-216.0","1920x1080","","2410.400000035763","7.94","img/314/2.5/0.66667/bw/001.png","","","interesting"
"","","","","","animation","217","1327494","0.0-217.0","1920x1080","","6048.599999964237","75","img/117/5.5/0.5/bw/001.png","","","interesting"
"","","","","","animation","218","1330710","0.0-218.0","1920x1080","","3215.199999988079","6.88","img/314/2.5/2/bw/001.png","","","interesting"
"","","","","","animation","219","1339987","0.0-219.0","1920x1080","","9275.199999988079","74","img/238/4.5/0.5/bw/001.png","","","interesting"
"","","","","","animation","220","1343611","0.0-220.0","1920x1080","","3621.199999988079","8.99","img/314/2.5/1.5/bw/001.png","","","interesting"
"","","","","","animation","221","1351561","0.0-221.0","1920x1080","","7948.300000011921","78","img/238/5.5/0.5/bw/001.png","","","interesting"
"","","","","","animation","222","1360594","0.0-222.0","1920x1080","","9031.900000035763","39.15","img/117/5.5/2/bw/001.png","","","interesting"
"","","","","","animation","223","1363646","0.0-223.0","1920x1080","","3050.7999999523163","30.82","img/117/4/0.66667/bw/001.png","","","interesting"
"","","","","","animation","224","1371210","0.0-224.0","1920x1080","","7562.899999976158","26.85","img/117/4.5/0.66667/bw/001.png","","","interesting"
"","","","","","animation","225","1373479","0.0-225.0","1920x1080","","2265.199999988079","11.90","img/117/2.5/1.5/bw/001.png","","","interesting"
"","","","","","animation","226","1376510","0.0-226.0","1920x1080","","3029.899999976158","17.99","img/314/4.5/1.5/bw/001.png","","","interesting"
"","","","","","animation","227","1379136","0.0-227.0","1920x1080","","2623.900000035763","29.63","img/117/4/2/bw/001.png","","","interesting"
"","","","","","animation","228","1383567","0.0-228.0","1920x1080","","4430.600000023842","68.52","img/117/4.5/0.5/bw/001.png","","","interesting"
"","","","","","animation","229","1388335","0.0-229.0","1920x1080","","4766.599999964237","83","img/314/5.5/2/bw/001.png","","","interesting"
"","","","","","animation","230","1396551","0.0-230.0","1920x1080","","8214.5","30.95","img/238/4.5/0.66667/bw/001.png","","","interesting"
"","","","","","animation","231","1400383","0.0-231.0","1920x1080","","3829.699999988079","65.48","img/314/4/0.5/bw/001.png","","","interesting"
"","","","","","animation","232","1403826","0.0-232.0","1920x1080","","3442.5","32.54","img/314/3.5/1/bw/001.png","","","interesting"
"","","","","","animation","233","1416493","0.0-233.0","1920x1080","","12665.800000011921","79","img/238/5.5/0.66667/bw/001.png","","","interesting"
"","","","","","animation","234","1421383","0.0-234.0","1920x1080","","4888.5","30","img/238/4/0.5/bw/001.png","","","interesting"
"","","","","","animation","235","1424615","0.0-235.0","1920x1080","","3230.7000000476837","17","img/314/3.5/2/bw/001.png","","","interesting"
"","","","","","html-button-response","236","1465489","0.0-236.0","1920x1080","","40863.19999998808","","<div class=""intro"">You are about to view a new series of animations.<br><br></div><div class=""intro"">You will evaluate them based on a different descriptor.<br><br></div><div class=""intro"">Move the slider to indicate how <strong style=""text-transform:capitalize"">NATURAL</strong> you find each animation.<br><br></div><div class=""intro"">0 = Least Natural<br></div><div class=""intro"">1 = Most Natural<br><br></div><div class=""intro"">Remember to use the <strong><em>entire range</em></strong> of the slider to make your ratings.<br></div><div class=""intro"">Please <strong><em>take your time</em></strong> and carefully consider each rating you make.<br><br></div>","0","",""
"","","","","","call-function","237","1465493","0.0-237.0","1920x1080","","","","","","",""
"","","","","","animation","238","1502451","0.0-238.0","1920x1080","","36957.80000001192","33.20","img/314/3.5/2/bw/001.png","","","natural"
"","","","","","animation","239","1509893","0.0-239.0","1920x1080","","7449","62.96","img/238/4.5/0.66667/bw/001.png","","","natural"
"","","","","","animation","240","1526293","0.0-240.0","1920x1080","","16396.19999998808","76","img/314/5.5/1/bw/001.png","","","natural"
"","","","","","animation","241","1531160","0.0-241.0","1920x1080","","4865.199999988079","7","img/117/2.5/2/bw/001.png","","","natural"
"","","","","","animation","242","1619818","0.0-242.0","1920x1080","","88653.60000002384","8.73","img/117/2.5/1/bw/001.png","","","natural"
"","","","","","animation","243","1623913","0.0-243.0","1920x1080","","4094","30.03","img/238/4.5/0.5/bw/001.png","","","natural"
"","","","","","animation","244","1628713","0.0-244.0","1920x1080","","4798.600000023842","65.48","img/117/4.5/2/bw/001.png","","","natural"
"","","","","","animation","245","1634061","0.0-245.0","1920x1080","","5346.400000035763","26.06","img/117/3.5/1.5/bw/001.png","","","natural"
"","","","","","animation","246","1639466","0.0-246.0","1920x1080","","5402.700000047684","20.50","img/238/3.5/0.5/bw/001.png","","","natural"
"","","","","","animation","247","1645978","0.0-247.0","1920x1080","","6509.599999964237","71.96","img/314/5.5/1.5/bw/001.png","","","natural"
"","","","","","animation","248","1657977","0.0-248.0","1920x1080","","11997.699999988079","88.62","img/238/5.5/2/bw/001.png","","","natural"
"","","","","","animation","249","1665911","0.0-249.0","1920x1080","","7932.5","31.75","img/314/4.5/1/bw/001.png","","","natural"
"","","","","","animation","250","1673377","0.0-250.0","1920x1080","","7464.099999964237","63.49","img/117/5.5/0.5/bw/001.png","","","natural"
"","","","","","animation","251","1883576","0.0-251.0","1920x1080","","210189.80000001192","31.22","img/314/4/1.5/bw/001.png","","","natural"
"","","","","","animation","252","1887721","0.0-252.0","1920x1080","","4143.399999976158","12.04","img/238/2.5/1.5/bw/001.png","","","natural"
"","","","","","animation","253","1891642","0.0-253.0","1920x1080","","3918.399999976158","24.47","img/314/3.5/0.66667/bw/001.png","","","natural"
"","","","","","animation","254","1894284","0.0-254.0","1920x1080","","2640.800000011921","8.33","img/314/2.5/0.5/bw/001.png","","","natural"
"","","","","","animation","255","1899351","0.0-255.0","1920x1080","","5066","35.85","img/117/4.5/1/bw/001.png","","","natural"
"","","","","","animation","256","1901937","0.0-256.0","1920x1080","","2584.5","28.31","img/117/3.5/0.66667/bw/001.png","","","natural"
"","","","","","animation","257","1905442","0.0-257.0","1920x1080","","3503.199999988079","24.74","img/238/3.5/0.66667/bw/001.png","","","natural"
"","","","","","animation","258","1911334","0.0-258.0","1920x1080","","5890.699999988079","31.35","img/117/4/0.5/bw/001.png","","","natural"
"","","","","","animation","259","1916042","0.0-259.0","1920x1080","","4706.300000011921","23.54","img/117/4.5/0.5/bw/001.png","","","natural"
"","","","","","animation","260","1919401","0.0-260.0","1920x1080","","3356.899999976158","23.28","img/314/4/0.66667/bw/001.png","","","natural"
"","","","","","animation","261","1922017","0.0-261.0","1920x1080","","2615.800000011921","28.97","img/314/4.5/0.5/bw/001.png","","","natural"
"","","","","","animation","262","1926037","0.0-262.0","1920x1080","","4015.5","9.26","img/314/2.5/2/bw/001.png","","","natural"
"","","","","","animation","263","1928370","0.0-263.0","1920x1080","","2332.099999964237","21.16","img/238/3.5/1/bw/001.png","","","natural"
"","","","","","animation","264","1933756","0.0-264.0","1920x1080","","5384.699999988079","14.81","img/314/3.5/0.5/bw/001.png","","","natural"
"","","","","","animation","265","2122005","0.0-265.0","1920x1080","","188246.69999998808","87.96","img/117/5.5/1.5/bw/001.png","","","natural"
"","","","","","animation","266","2138587","0.0-266.0","1920x1080","","16580.5","36.64","img/117/4/0.66667/bw/001.png","","","natural"
"","","","","","animation","267","2142662","0.0-267.0","1920x1080","","4071.399999976158","69.18","img/238/4.5/1.5/bw/001.png","","","natural"
"","","","","","animation","268","2147920","0.0-268.0","1920x1080","","5257","31.75","img/238/4/0.66667/bw/001.png","","","natural"
"","","","","","animation","269","2156286","0.0-269.0","1920x1080","","8365.199999988079","23.68","img/117/4/1/bw/001.png","","","natural"
"","","","","","animation","270","2187957","0.0-270.0","1920x1080","","31662.899999976158","40.21","img/238/4/1.5/bw/001.png","","","natural"
"","","","","","animation","271","2191793","0.0-271.0","1920x1080","","3834.5","25.53","img/238/3.5/2/bw/001.png","","","natural"
"","","","","","animation","272","2203957","0.0-272.0","1920x1080","","12161.599999964237","78.44","img/314/5.5/0.66667/bw/001.png","","","natural"
"","","","","","animation","273","2219362","0.0-273.0","1920x1080","","15402.699999988079","70","img/238/5.5/1/bw/001.png","","","natural"
"","","","","","animation","274","2225206","0.0-274.0","1920x1080","","5844.100000023842","33","img/238/3.5/1.5/bw/001.png","","","natural"
"","","","","","animation","275","2231456","0.0-275.0","1920x1080","","6248.899999976158","76","img/117/5.5/0.66667/bw/001.png","","","natural"
"","","","","","animation","276","2234939","0.0-276.0","1920x1080","","3480.199999988079","7","img/238/2.5/1/bw/001.png","","","natural"
"","","","","","animation","277","2238208","0.0-277.0","1920x1080","","3267.599999964237","16","img/314/4/0.5/bw/001.png","","","natural"
"","","","","","animation","278","2244960","0.0-278.0","1920x1080","","6750.5","26","img/117/3.5/1/bw/001.png","","","natural"
"","","","","","animation","279","2256456","0.0-279.0","1920x1080","","11494.299999952316","28.44","img/238/4.5/2/bw/001.png","","","natural"
"","","","","","animation","280","2264006","0.0-280.0","1920x1080","","7546.5","78.97","img/238/5.5/0.5/bw/001.png","","","natural"
"","","","","","animation","281","2269472","0.0-281.0","1920x1080","","5462.5","30","img/117/4/1.5/bw/001.png","","","natural"
"","","","","","animation","282","2275489","0.0-282.0","1920x1080","","6015","21.69","img/117/3.5/2/bw/001.png","","","natural"
"","","","","","animation","283","2281240","0.0-283.0","1920x1080","","5748.399999976158","5","img/238/2.5/0.5/bw/001.png","","","natural"
"","","","","","animation","284","2283772","0.0-284.0","1920x1080","","2530","5.82","img/117/2.5/0.5/bw/001.png","","","natural"
"","","","","","animation","285","2289624","0.0-285.0","1920x1080","","5850.899999976158","13.49","img/314/4.5/0.66667/bw/001.png","","","natural"
"","","","","","animation","286","2293006","0.0-286.0","1920x1080","","3378.099999964237","28.44","img/314/4.5/2/bw/001.png","","","natural"
"","","","","","animation","287","2299957","0.0-287.0","1920x1080","","6949.199999988079","33","img/314/4/1/bw/001.png","","","natural"
"","","","","","animation","288","2312528","0.0-288.0","1920x1080","","12570.199999988079","33.86","img/117/4.5/1.5/bw/001.png","","","natural"
"","","","","","animation","289","2315872","0.0-289.0","1920x1080","","3342.399999976158","26.46","img/238/4/0.5/bw/001.png","","","natural"
"","","","","","animation","290","2322923","0.0-290.0","1920x1080","","7048.5","23.94","img/314/4/2/bw/001.png","","","natural"
"","","","","","animation","291","2326739","0.0-291.0","1920x1080","","3813","5.56","img/314/2.5/0.66667/bw/001.png","","","natural"
"","","","","","animation","292","2333473","0.0-292.0","1920x1080","","6731.899999976158","83.47","img/117/5.5/1/bw/001.png","","","natural"
"","","","","","animation","293","2337122","0.0-293.0","1920x1080","","3646.5","69.84","img/238/4.5/1/bw/001.png","","","natural"
"","","","","","animation","294","2341360","0.0-294.0","1920x1080","","4236.700000047684","3.84","img/238/2.5/0.66667/bw/001.png","","","natural"
"","","","","","animation","295","2358209","0.0-295.0","1920x1080","","16843","80","img/314/5.5/2/bw/001.png","","","natural"
"","","","","","animation","296","2368564","0.0-296.0","1920x1080","","10353.199999988079","68.52","img/314/4.5/1.5/bw/001.png","","","natural"
"","","","","","animation","297","2370953","0.0-297.0","1920x1080","","2385.800000011921","6.22","img/117/2.5/0.66667/bw/001.png","","","natural"
"","","","","","animation","298","2373676","0.0-298.0","1920x1080","","2721.100000023842","13.10","img/117/2.5/1.5/bw/001.png","","","natural"
"","","","","","animation","299","2377042","0.0-299.0","1920x1080","","3364.699999988079","71.69","img/238/5.5/1.5/bw/001.png","","","natural"
"","","","","","animation","300","2378983","0.0-300.0","1920x1080","","1939.8999999761581","35.58","img/314/3.5/1/bw/001.png","","","natural"
"","","","","","animation","301","2381611","0.0-301.0","1920x1080","","2626.599999964237","15.08","img/238/2.5/2/bw/001.png","","","natural"
"","","","","","animation","302","2386692","0.0-302.0","1920x1080","","5079.400000035763","70.37","img/238/5.5/0.66667/bw/001.png","","","natural"
"","","","","","animation","303","2390659","0.0-303.0","1920x1080","","3965","66.67","img/314/5.5/0.5/bw/001.png","","","natural"
"","","","","","animation","304","2393700","0.0-304.0","1920x1080","","3039.599999964237","17.86","img/314/2.5/1.5/bw/001.png","","","natural"
"","","","","","animation","305","2397375","0.0-305.0","1920x1080","","3673.800000011921","28.57","img/117/3.5/0.5/bw/001.png","","","natural"
"","","","","","animation","306","2401658","0.0-306.0","1920x1080","","4281.600000023842","70","img/117/5.5/2/bw/001.png","","","natural"
"","","","","","animation","307","2404057","0.0-307.0","1920x1080","","2399.7999999523163","9.79","img/314/2.5/1/bw/001.png","","","natural"
"","","","","","animation","308","2410489","0.0-308.0","1920x1080","","6431.399999976158","24.87","img/238/4/1/bw/001.png","","","natural"
"","","","","","animation","309","2413056","0.0-309.0","1920x1080","","2565.399999976158","20.24","img/238/4/2/bw/001.png","","","natural"
"","","","","","animation","310","2420891","0.0-310.0","1920x1080","","7833.300000011921","28","img/314/3.5/1.5/bw/001.png","","","natural"
"","","","","","animation","311","2427666","0.0-311.0","1920x1080","","6773.600000023842","31","img/117/4.5/0.66667/bw/001.png","","","natural"
"","","","","","animation","312","2436182","0.0-312.0","1920x1080","","8514.399999976158","66.14","img/117/4/2/bw/001.png","","","natural"
"","","","","","html-button-response","313","2454561","0.0-313.0","1920x1080","","18377","","<div class=""intro"">You are about to view a new series of animations.<br><br></div><div class=""intro"">You will evaluate them based on a different descriptor.<br><br></div><div class=""intro"">Move the slider to indicate how <strong style=""text-transform:capitalize"">APPEALING</strong> you find each animation.<br><br></div><div class=""intro"">0 = Least Appealing<br></div><div class=""intro"">1 = Most Appealing<br><br></div><div class=""intro"">Remember to use the <strong><em>entire range</em></strong> of the slider to make your ratings.<br></div><div class=""intro"">Please <strong><em>take your time</em></strong> and carefully consider each rating you make.<br><br></div>","0","",""
"","","","","","call-function","314","2454564","0.0-314.0","1920x1080","","","","","","",""
"","","","","","animation","315","2458123","0.0-315.0","1920x1080","","3558.2999999523163","63.49","img/238/4.5/0.5/bw/001.png","","","appealing"
"","","","","","animation","316","2461173","0.0-316.0","1920x1080","","3048.300000011921","28.57","img/117/3.5/0.66667/bw/001.png","","","appealing"
"","","","","","animation","317","2463858","0.0-317.0","1920x1080","","2681.399999976158","35.05","img/314/4/0.5/bw/001.png","","","appealing"
"","","","","","animation","318","2468829","0.0-318.0","1920x1080","","4968.900000035763","56.48","img/117/4.5/0.5/bw/001.png","","","appealing"
"","","","","","animation","319","2471028","0.0-319.0","1920x1080","","2197.800000011921","27.12","img/238/3.5/1/bw/001.png","","","appealing"
"","","","","","animation","320","2474980","0.0-320.0","1920x1080","","3950.400000035763","92","img/314/5.5/1.5/bw/001.png","","","appealing"
"","","","","","animation","321","2479413","0.0-321.0","1920x1080","","4432.099999964237","40.61","img/238/4/0.5/bw/001.png","","","appealing"
"","","","","","animation","322","2483026","0.0-322.0","1920x1080","","3610.699999988079","37.17","img/314/4/0.66667/bw/001.png","","","appealing"
"","","","","","animation","323","2489925","0.0-323.0","1920x1080","","6898.400000035763","65","img/117/2.5/2/bw/001.png","","","appealing"
"","","","","","animation","324","2492918","0.0-324.0","1920x1080","","2990.800000011921","88.76","img/238/5.5/0.66667/bw/001.png","","","appealing"
"","","","","","animation","325","2497093","0.0-325.0","1920x1080","","4173.199999988079","34.66","img/238/4.5/1.5/bw/001.png","","","appealing"
"","","","","","animation","326","2501748","0.0-326.0","1920x1080","","4653.199999988079","88","img/117/5.5/1/bw/001.png","","","appealing"
"","","","","","animation","327","2505008","0.0-327.0","1920x1080","","3259","38.89","img/238/3.5/0.66667/bw/001.png","","","appealing"
"","","","","","animation","328","2512628","0.0-328.0","1920x1080","","7617.899999976158","31.35","img/117/4/1/bw/001.png","","","appealing"
"","","","","","animation","329","2514797","0.0-329.0","1920x1080","","2166.800000011921","15.08","img/238/2.5/1/bw/001.png","","","appealing"
"","","","","","animation","330","2521226","0.0-330.0","1920x1080","","6427","96","img/117/5.5/0.5/bw/001.png","","","appealing"
"","","","","","animation","331","2525174","0.0-331.0","1920x1080","","3937.600000023842","44.05","img/314/3.5/0.66667/bw/001.png","","","appealing"
"","","","","","animation","332","2527725","0.0-332.0","1920x1080","","2549.099999964237","41.80","img/238/3.5/1.5/bw/001.png","","","appealing"
"","","","","","animation","333","2529863","0.0-333.0","1920x1080","","2136.399999976158","14.68","img/238/2.5/1.5/bw/001.png","","","appealing"
"","","","","","animation","334","2532135","0.0-334.0","1920x1080","","2271.199999988079","21.43","img/238/4/2/bw/001.png","","","appealing"
"","","","","","animation","335","2534621","0.0-335.0","1920x1080","","2484.300000011921","19.71","img/314/3.5/1/bw/001.png","","","appealing"
"","","","","","animation","336","2537151","0.0-336.0","1920x1080","","2528.7000000476837","20.11","img/314/3.5/2/bw/001.png","","","appealing"
"","","","","","animation","337","2539469","0.0-337.0","1920x1080","","2316.5","11.11","img/117/2.5/1.5/bw/001.png","","","appealing"
"","","","","","animation","338","2544018","0.0-338.0","1920x1080","","4548","68","img/238/4.5/0.66667/bw/001.png","","","appealing"
"","","","","","animation","339","2546318","0.0-339.0","1920x1080","","2298.5","35.98","img/117/4/1.5/bw/001.png","","","appealing"
"","","","","","animation","340","2549389","0.0-340.0","1920x1080","","3070","27.65","img/238/3.5/0.5/bw/001.png","","","appealing"
"","","","","","animation","341","2552118","0.0-341.0","1920x1080","","2726.099999964237","25.26","img/117/3.5/0.5/bw/001.png","","","appealing"
"","","","","","animation","342","2554104","0.0-342.0","1920x1080","","1984.6000000238419","33.73","img/117/4/0.66667/bw/001.png","","","appealing"
"","","","","","animation","343","2556261","0.0-343.0","1920x1080","","2156.399999976158","9.79","img/314/2.5/1.5/bw/001.png","","","appealing"
"","","","","","animation","344","2558437","0.0-344.0","1920x1080","","2173.800000011921","6.48","img/238/2.5/2/bw/001.png","","","appealing"
"","","","","","animation","345","2560824","0.0-345.0","1920x1080","","2383.900000035763","66.80","img/314/4.5/0.5/bw/001.png","","","appealing"
"","","","","","animation","346","2565767","0.0-346.0","1920x1080","","4942.199999988079","92.72","img/314/5.5/2/bw/001.png","","","appealing"
"","","","","","animation","347","2571879","0.0-347.0","1920x1080","","6109.699999988079","35","img/238/4/0.66667/bw/001.png","","","appealing"
"","","","","","animation","348","2574518","0.0-348.0","1920x1080","","2637.300000011921","25.53","img/314/3.5/0.5/bw/001.png","","","appealing"
"","","","","","animation","349","2577791","0.0-349.0","1920x1080","","3271.7000000476837","77.25","img/117/5.5/0.66667/bw/001.png","","","appealing"
"","","","","","animation","350","2579829","0.0-350.0","1920x1080","","2037","87.57","img/117/5.5/2/bw/001.png","","","appealing"
"","","","","","animation","351","2582933","0.0-351.0","1920x1080","","3102.199999988079","65.21","img/314/4.5/2/bw/001.png","","","appealing"
"","","","","","animation","352","2586458","0.0-352.0","1920x1080","","3533.099999964237","87.30","img/314/5.5/1/bw/001.png","","","appealing"
"","","","","","animation","353","2590596","0.0-353.0","1920x1080","","4136.300000011921","40.34","img/117/3.5/1.5/bw/001.png","","","appealing"
"","","","","","animation","354","2600748","0.0-354.0","1920x1080","","10151.099999964237","37.57","img/117/4.5/2/bw/001.png","","","appealing"
"","","","","","animation","355","2603442","0.0-355.0","1920x1080","","2692.5","71.16","img/314/5.5/0.5/bw/001.png","","","appealing"
"","","","","","animation","356","2606676","0.0-356.0","1920x1080","","3232.099999964237","74.60","img/238/5.5/0.5/bw/001.png","","","appealing"
"","","","","","animation","357","2611076","0.0-357.0","1920x1080","","4398.099999964237","7.41","img/117/2.5/0.5/bw/001.png","","","appealing"
"","","","","","animation","358","2614349","0.0-358.0","1920x1080","","3271","26.72","img/238/3.5/2/bw/001.png","","","appealing"
"","","","","","animation","359","2617076","0.0-359.0","1920x1080","","2725.100000023842","12.04","img/314/2.5/1/bw/001.png","","","appealing"
"","","","","","animation","360","2619076","0.0-360.0","1920x1080","","1998.6000000238419","9.39","img/117/2.5/0.66667/bw/001.png","","","appealing"
"","","","","","animation","361","2621836","0.0-361.0","1920x1080","","2759.199999988079","-2.12","img/314/2.5/0.5/bw/001.png","","","appealing"
"","","","","","animation","362","2626561","0.0-362.0","1920x1080","","4723.099999964237","32","img/117/3.5/1/bw/001.png","","","appealing"
"","","","","","animation","363","2629276","0.0-363.0","1920x1080","","2713","64.95","img/314/4.5/1.5/bw/001.png","","","appealing"
"","","","","","animation","364","2632612","0.0-364.0","1920x1080","","3334.300000011921","10.32","img/314/2.5/2/bw/001.png","","","appealing"
"","","","","","animation","365","2636659","0.0-365.0","1920x1080","","4046","5.16","img/238/2.5/0.66667/bw/001.png","","","appealing"
"","","","","","animation","366","2640149","0.0-366.0","1920x1080","","3488.699999988079","29.76","img/117/4/0.5/bw/001.png","","","appealing"
"","","","","","animation","367","2642585","0.0-367.0","1920x1080","","2435.199999988079","71.16","img/314/5.5/0.66667/bw/001.png","","","appealing"
"","","","","","animation","368","2644950","0.0-368.0","1920x1080","","2363.199999988079","4.10","img/238/2.5/0.5/bw/001.png","","","appealing"
"","","","","","animation","369","2647677","0.0-369.0","1920x1080","","2726.5","65.08","img/314/4.5/1/bw/001.png","","","appealing"
"","","","","","animation","370","2649542","0.0-370.0","1920x1080","","1863.199999988079","38.76","img/117/4/2/bw/001.png","","","appealing"
"","","","","","animation","371","2653196","0.0-371.0","1920x1080","","3652.399999976158","47","img/117/4.5/1.5/bw/001.png","","","appealing"
"","","","","","animation","372","2657108","0.0-372.0","1920x1080","","3911.5","89.81","img/238/5.5/1/bw/001.png","","","appealing"
"","","","","","animation","373","2661259","0.0-373.0","1920x1080","","4148.899999976158","40.21","img/314/3.5/1.5/bw/001.png","","","appealing"
"","","","","","animation","374","2663686","0.0-374.0","1920x1080","","2426.300000011921","83.73","img/238/5.5/2/bw/001.png","","","appealing"
"","","","","","animation","375","2665863","0.0-375.0","1920x1080","","2175.699999988079","41.14","img/238/4.5/1/bw/001.png","","","appealing"
"","","","","","animation","376","2668292","0.0-376.0","1920x1080","","2427.599999964237","15.48","img/314/2.5/0.66667/bw/001.png","","","appealing"
"","","","","","animation","377","2672342","0.0-377.0","1920x1080","","4048.400000035763","20.90","img/238/4/1/bw/001.png","","","appealing"
"","","","","","animation","378","2675200","0.0-378.0","1920x1080","","2855.199999988079","75.40","img/117/5.5/1.5/bw/001.png","","","appealing"
"","","","","","animation","379","2688996","0.0-379.0","1920x1080","","13794.300000011921","33.33","img/314/4.5/0.66667/bw/001.png","","","appealing"
"","","","","","animation","380","2692306","0.0-380.0","1920x1080","","3309.099999964237","42.20","img/238/4/1.5/bw/001.png","","","appealing"
"","","","","","animation","381","2694958","0.0-381.0","1920x1080","","2650.900000035763","59.79","img/238/4.5/2/bw/001.png","","","appealing"
"","","","","","animation","382","2697611","0.0-382.0","1920x1080","","2651.800000011921","34.66","img/117/4.5/0.66667/bw/001.png","","","appealing"
"","","","","","animation","383","2700325","0.0-383.0","1920x1080","","2712.599999964237","85.85","img/238/5.5/1.5/bw/001.png","","","appealing"
"","","","","","animation","384","2702917","0.0-384.0","1920x1080","","2590.5","31.75","img/117/3.5/2/bw/001.png","","","appealing"
"","","","","","animation","385","2706393","0.0-385.0","1920x1080","","3477.199999988079","37.30","img/117/4.5/1/bw/001.png","","","appealing"
"","","","","","animation","386","2709473","0.0-386.0","1920x1080","","3077.599999964237","10.85","img/117/2.5/1/bw/001.png","","","appealing"
"","","","","","animation","387","2711473","0.0-387.0","1920x1080","","1998.5","24.34","img/314/4/2/bw/001.png","","","appealing"
"","","","","","animation","388","2713606","0.0-388.0","1920x1080","","2131.300000011921","19.44","img/314/4/1.5/bw/001.png","","","appealing"
"","","","","","animation","389","2716948","0.0-389.0","1920x1080","","3341","18.78","img/314/4/1/bw/001.png","","","appealing"
"","","","","","html-button-response","390","2765175","0.0-390.0","1920x1080","","48212.80000001192","","<strong>Study Debriefing</strong><br><p class=""debrief""><strong>Background:</strong> The patterns you rated are called <em>fractals</em>. The term fractal describes a class of irregular curves or shapes for which any suitably chosen part is similar in shape to a given larger or smaller part when magnified or reduced to the same size. Fractal properties are found throughout the natural and manmade world. The series of animations you saw today displayed animated fractal patterns of a varying complexity.</p><p class=""debrief""><strong>Purpose of this study:</strong> We hope to better understand how the perception of static fractals differs from the perception of animated fractals, and how the speed of the animated patterns influences people&apos;s perception of them. Fractals allow us to study the perception of aesthetic properties (e.g. the perceived level of beauty in an image) without using recognizable content, which makes them an excellent tool for studying abstract aesthetic judgement.</p><p class=""debrief""><strong>Your part:</strong> Your participation has helped us to further understand how humans perceive these patterns across different levels of speed and complexity. This research with allow us to better understand how the visual system and brain process our ever-changing visual environments.<p class=""debrief""><strong>Feedback and Further information:</strong> If you have additional questions about this study, please feel free to ask the researcher, Nathan Gonzales-Hess at nhess @ uoregon.edu. If you have any questions concerning your rights as a research participant, please contact Research Compliance Services, 5237 University of Oregon, Eugene, OR 97403, 541-346-2510, or email researchCompliance @ uoregon.edu. You can also email the Human Subjects Coordinator for psychology and linguistics research at hscoord @ uoregon.edu. ","0","",""
"","","","","","html-button-response","391","2777686","0.0-391.0","1920x1080","","12506","","Thank you for participating in this study. <br>Please click below to finish the experiment and submit your responses.<br><br>","0","",""
"true","","","","","fullscreen","392","2778702","0.0-392.0","1920x1080","11:36 10/10/2022","","","","","",""
