"success","timeout","failed_images","failed_audio","failed_video","trial_type","trial_index","time_elapsed","internal_node_id","resolution","timeStamp","rt","response","stimulus","button_pressed","value","descriptor"
"true","false","[]","[]","[]","preload","0","6971","0.0-0.0","1920x1080","","","","","","",""
"true","false","[]","[]","[]","preload","1","14037","0.0-1.0","1920x1080","","","","","","",""
"true","false","[]","[]","[]","preload","2","21035","0.0-2.0","1920x1080","","","","","","",""
"true","","","","","fullscreen","3","127653","0.0-3.0","1920x1080","10:4 3/6/2022","","","","","",""
"","","","","","survey-html-form","4","139552","0.0-4.0","1920x1080","","11895.599999904633","{""age"":""20"",""gender"":""female""}","","","",""
"","","","","","html-button-response","5","189063","0.0-5.0","1920x1080","","49510.90000009537","","<div class=""complex"">You are going to see a series of animations.<br><br></div><div class=""complex"">Move the slider to indicate how <strong style=""text-transform:capitalize"">COMPLEX</strong> you find each animation.<br><br></div><div class=""complex"">0 = Least Complex<br></div><div class=""complex"">1 = Most Complex<br><br></div><div class=""complex"">Remember to use the <strong><em>entire range</em></strong> of the slider to make your ratings.<br></div><div class=""complex"">Please <strong><em>take your time</em></strong> and carefully consider each rating you make.<br><br></div><div class=""complex"">The study has five sections and will take about 45 minutes to complete.<br><br></div>","0","",""
"","","","","","call-function","6","189064","0.0-6.0","1920x1080","","","","","","",""
"","","","","","animation","7","208055","0.0-7.0","1920x1080","","18988.299999952316","64","img/117/2.5/1.5/bw/001.png","","","complex"
"","","","","","animation","8","214175","0.0-8.0","1920x1080","","6117.900000095367","30","img/314/3.5/2/bw/001.png","","","complex"
"","","","","","animation","9","218734","0.0-9.0","1920x1080","","4556.700000047684","11.51","img/314/4.5/1/bw/001.png","","","complex"
"","","","","","animation","10","225735","0.0-10.0","1920x1080","","6998.300000190735","39.29","img/117/4/0.5/bw/001.png","","","complex"
"","","","","","animation","11","231438","0.0-11.0","1920x1080","","5702.699999809265","92.06","img/238/2.5/1/bw/001.png","","","complex"
"","","","","","animation","12","239967","0.0-12.0","1920x1080","","8527.5","27.25","img/238/4.5/0.66667/bw/001.png","","","complex"
"","","","","","animation","13","246399","0.0-13.0","1920x1080","","6431.400000095367","70","img/117/3.5/0.66667/bw/001.png","","","complex"
"","","","","","animation","14","253719","0.0-14.0","1920x1080","","7319","0","img/117/5.5/1/bw/001.png","","","complex"
"","","","","","animation","15","258895","0.0-15.0","1920x1080","","5175","58.86","img/314/3.5/0.5/bw/001.png","","","complex"
"","","","","","animation","16","269479","0.0-16.0","1920x1080","","10583.399999856949","1","img/314/5.5/1.5/bw/001.png","","","complex"
"","","","","","animation","17","275735","0.0-17.0","1920x1080","","6255.299999952316","0","img/238/5.5/1/bw/001.png","","","complex"
"","","","","","animation","18","284287","0.0-18.0","1920x1080","","8551.099999904633","10","img/238/5.5/0.5/bw/001.png","","","complex"
"","","","","","animation","19","288159","0.0-19.0","1920x1080","","3870.9000000953674","89","img/238/2.5/0.66667/bw/001.png","","","complex"
"","","","","","animation","20","295119","0.0-20.0","1920x1080","","6958.100000143051","37","img/314/4/1/bw/001.png","","","complex"
"","","","","","animation","21","306311","0.0-21.0","1920x1080","","11191","1","img/238/5.5/2/bw/001.png","","","complex"
"","","","","","animation","22","316575","0.0-22.0","1920x1080","","10263.100000143051","7","img/238/5.5/1.5/bw/001.png","","","complex"
"","","","","","animation","23","325143","0.0-23.0","1920x1080","","8567.099999904633","25","img/238/5.5/0.66667/bw/001.png","","","complex"
"","","","","","animation","24","334343","0.0-24.0","1920x1080","","9199.399999856949","45","img/117/4.5/1/bw/001.png","","","complex"
"","","","","","animation","25","351311","0.0-25.0","1920x1080","","16966.89999985695","30","img/238/4/2/bw/001.png","","","complex"
"","","","","","animation","26","361632","0.0-26.0","1920x1080","","10319.299999952316","48","img/238/4/1/bw/001.png","","","complex"
"","","","","","animation","27","369224","0.0-27.0","1920x1080","","7592.400000095367","43","img/314/4/0.66667/bw/001.png","","","complex"
"","","","","","animation","28","378559","0.0-28.0","1920x1080","","9333.799999952316","13.62","img/314/5.5/0.5/bw/001.png","","","complex"
"","","","","","animation","29","386841","0.0-29.0","1920x1080","","8280.599999904633","52.78","img/117/4/1.5/bw/001.png","","","complex"
"","","","","","animation","30","395655","0.0-30.0","1920x1080","","8813","75.93","img/117/2.5/2/bw/001.png","","","complex"
"","","","","","animation","31","403241","0.0-31.0","1920x1080","","7584.200000047684","49","img/117/4.5/0.5/bw/001.png","","","complex"
"","","","","","animation","32","408047","0.0-32.0","1920x1080","","4805.600000143051","42","img/117/4.5/0.66667/bw/001.png","","","complex"
"","","","","","animation","33","420031","0.0-33.0","1920x1080","","11982.899999856949","34.92","img/238/4.5/0.5/bw/001.png","","","complex"
"","","","","","animation","34","427057","0.0-34.0","1920x1080","","7024.700000047684","43.25","img/314/3.5/1.5/bw/001.png","","","complex"
"","","","","","animation","35","434600","0.0-35.0","1920x1080","","7541.900000095367","15.61","img/117/4.5/1.5/bw/001.png","","","complex"
"","","","","","animation","36","439241","0.0-36.0","1920x1080","","4640.799999952316","54","img/238/4/0.5/bw/001.png","","","complex"
"","","","","","animation","37","445968","0.0-37.0","1920x1080","","6725.5","68","img/314/2.5/2/bw/001.png","","","complex"
"","","","","","animation","38","454336","0.0-38.0","1920x1080","","8367.599999904633","23.94","img/314/4.5/0.5/bw/001.png","","","complex"
"","","","","","animation","39","458592","0.0-39.0","1920x1080","","4254.799999952316","70.63","img/238/2.5/0.5/bw/001.png","","","complex"
"","","","","","animation","40","465800","0.0-40.0","1920x1080","","7206.200000047684","52","img/117/3.5/0.5/bw/001.png","","","complex"
"","","","","","animation","41","469112","0.0-41.0","1920x1080","","3311.0999999046326","11","img/314/4.5/1.5/bw/001.png","","","complex"
"","","","","","animation","42","476128","0.0-42.0","1920x1080","","7015.099999904633","22.75","img/314/4/1.5/bw/001.png","","","complex"
"","","","","","animation","43","480144","0.0-43.0","1920x1080","","4014.2999999523163","57.41","img/117/3.5/1.5/bw/001.png","","","complex"
"","","","","","animation","44","486392","0.0-44.0","1920x1080","","6247","86.11","img/117/2.5/0.66667/bw/001.png","","","complex"
"","","","","","animation","45","490199","0.0-45.0","1920x1080","","3805.7999999523163","96","img/314/2.5/0.5/bw/001.png","","","complex"
"","","","","","animation","46","500319","0.0-46.0","1920x1080","","10119.200000047684","16","img/238/4.5/1/bw/001.png","","","complex"
"","","","","","animation","47","507687","0.0-47.0","1920x1080","","7367","37","img/117/3.5/2/bw/001.png","","","complex"
"","","","","","animation","48","515336","0.0-48.0","1920x1080","","7647.100000143051","42.20","img/238/3.5/0.66667/bw/001.png","","","complex"
"","","","","","animation","49","525457","0.0-49.0","1920x1080","","10120.599999904633","52.65","img/238/3.5/1.5/bw/001.png","","","complex"
"","","","","","animation","50","531000","0.0-50.0","1920x1080","","5541.700000047684","31.22","img/314/4/2/bw/001.png","","","complex"
"","","","","","animation","51","535792","0.0-51.0","1920x1080","","4791.300000190735","20.24","img/238/4.5/1.5/bw/001.png","","","complex"
"","","","","","animation","52","551675","0.0-52.0","1920x1080","","15881","25","img/117/4/2/bw/001.png","","","complex"
"","","","","","animation","53","559368","0.0-53.0","1920x1080","","7692.299999952316","46.43","img/117/4/0.66667/bw/001.png","","","complex"
"","","","","","animation","54","563000","0.0-54.0","1920x1080","","3630.5999999046326","50.66","img/117/3.5/1/bw/001.png","","","complex"
"","","","","","animation","55","566600","0.0-55.0","1920x1080","","3599.600000143051","62.83","img/238/3.5/0.5/bw/001.png","","","complex"
"","","","","","animation","56","571376","0.0-56.0","1920x1080","","4774.599999904633","59","img/314/3.5/0.66667/bw/001.png","","","complex"
"","","","","","animation","57","575688","0.0-57.0","1920x1080","","4311.400000095367","9.26","img/238/4.5/2/bw/001.png","","","complex"
"","","","","","animation","58","582459","0.0-58.0","1920x1080","","6769.400000095367","12.57","img/314/4.5/0.66667/bw/001.png","","","complex"
"","","","","","animation","59","590320","0.0-59.0","1920x1080","","7860.600000143051","12.30","img/238/4/1.5/bw/001.png","","","complex"
"","","","","","animation","60","595976","0.0-60.0","1920x1080","","5654.599999904633","12","img/117/4.5/2/bw/001.png","","","complex"
"","","","","","animation","61","599912","0.0-61.0","1920x1080","","3934.699999809265","77.51","img/117/2.5/1/bw/001.png","","","complex"
"","","","","","animation","62","605168","0.0-62.0","1920x1080","","5255.299999952316","57.01","img/238/3.5/1/bw/001.png","","","complex"
"","","","","","animation","63","610000","0.0-63.0","1920x1080","","4830.299999952316","1.19","img/314/5.5/2/bw/001.png","","","complex"
"","","","","","animation","64","615042","0.0-64.0","1920x1080","","5040.700000047684","49.21","img/314/4/0.5/bw/001.png","","","complex"
"","","","","","animation","65","621120","0.0-65.0","1920x1080","","6077.099999904633","8.20","img/314/5.5/1/bw/001.png","","","complex"
"","","","","","animation","66","625967","0.0-66.0","1920x1080","","4846","53.31","img/238/3.5/2/bw/001.png","","","complex"
"","","","","","animation","67","629290","0.0-67.0","1920x1080","","3321.7999999523163","94","img/314/2.5/1.5/bw/001.png","","","complex"
"","","","","","animation","68","635111","0.0-68.0","1920x1080","","5820.400000095367","13.76","img/117/5.5/0.66667/bw/001.png","","","complex"
"","","","","","animation","69","645127","0.0-69.0","1920x1080","","10014.899999856949","38","img/238/4/0.66667/bw/001.png","","","complex"
"","","","","","animation","70","650064","0.0-70.0","1920x1080","","4935.400000095367","86","img/314/2.5/1/bw/001.png","","","complex"
"","","","","","animation","71","654511","0.0-71.0","1920x1080","","4446.199999809265","10.58","img/117/5.5/0.5/bw/001.png","","","complex"
"","","","","","animation","72","661159","0.0-72.0","1920x1080","","6645.700000047684","73.81","img/314/2.5/0.66667/bw/001.png","","","complex"
"","","","","","animation","73","664120","0.0-73.0","1920x1080","","2957.9000000953674","66.67","img/238/2.5/2/bw/001.png","","","complex"
"","","","","","animation","74","668168","0.0-74.0","1920x1080","","4046.7999999523163","55.42","img/117/4/1/bw/001.png","","","complex"
"","","","","","animation","75","672658","0.0-75.0","1920x1080","","4489.400000095367","32.28","img/314/5.5/0.66667/bw/001.png","","","complex"
"","","","","","animation","76","676120","0.0-76.0","1920x1080","","3459.7000000476837","19.18","img/314/4.5/2/bw/001.png","","","complex"
"","","","","","animation","77","679024","0.0-77.0","1920x1080","","2903.300000190735","7","img/117/5.5/1.5/bw/001.png","","","complex"
"","","","","","animation","78","681952","0.0-78.0","1920x1080","","2926.5999999046326","79.76","img/117/2.5/0.5/bw/001.png","","","complex"
"","","","","","animation","79","684600","0.0-79.0","1920x1080","","2647.2999999523163","74.60","img/314/3.5/1/bw/001.png","","","complex"
"","","","","","animation","80","690359","0.0-80.0","1920x1080","","5758.600000143051","31","img/117/5.5/2/bw/001.png","","","complex"
"","","","","","animation","81","694192","0.0-81.0","1920x1080","","3831.2000000476837","71.69","img/238/2.5/1.5/bw/001.png","","","complex"
"","","","","","html-button-response","82","714027","0.0-82.0","1920x1080","","19833.700000047684","","<div class=""intro"">You are about to view a new series of animations.<br><br></div><div class=""intro"">You will evaluate them based on a different descriptor.<br><br></div><div class=""intro"">Move the slider to indicate how <strong style=""text-transform:capitalize"">APPEALING</strong> you find each animation.<br><br></div><div class=""intro"">0 = Least Appealing<br></div><div class=""intro"">1 = Most Appealing<br><br></div><div class=""intro"">Remember to use the <strong><em>entire range</em></strong> of the slider to make your ratings.<br></div><div class=""intro"">Please <strong><em>take your time</em></strong> and carefully consider each rating you make.<br><br></div>","0","",""
"","","","","","call-function","83","714028","0.0-83.0","1920x1080","","","","","","",""
"","","","","","animation","84","723200","0.0-84.0","1920x1080","","9171.599999904633","9.13","img/314/3.5/2/bw/001.png","","","appealing"
"","","","","","animation","85","726552","0.0-85.0","1920x1080","","3350.100000143051","0.40","img/238/2.5/2/bw/001.png","","","appealing"
"","","","","","animation","86","728416","0.0-86.0","1920x1080","","1862.7000000476837","0.53","img/238/2.5/1/bw/001.png","","","appealing"
"","","","","","animation","87","732728","0.0-87.0","1920x1080","","4310.900000095367","44.05","img/314/4.5/1/bw/001.png","","","appealing"
"","","","","","animation","88","740144","0.0-88.0","1920x1080","","7414.799999952316","37","img/314/4/2/bw/001.png","","","appealing"
"","","","","","animation","89","742424","0.0-89.0","1920x1080","","2279.4000000953674","9.66","img/314/2.5/0.66667/bw/001.png","","","appealing"
"","","","","","animation","90","750107","0.0-90.0","1920x1080","","7682.799999952316","40.34","img/314/4.5/1.5/bw/001.png","","","appealing"
"","","","","","animation","91","753200","0.0-91.0","1920x1080","","3089.9000000953674","18.39","img/117/3.5/0.5/bw/001.png","","","appealing"
"","","","","","animation","92","757496","0.0-92.0","1920x1080","","4294.899999856949","1.59","img/314/2.5/0.5/bw/001.png","","","appealing"
"","","","","","animation","93","760752","0.0-93.0","1920x1080","","3254.9000000953674","21.56","img/314/2.5/2/bw/001.png","","","appealing"
"","","","","","animation","94","764536","0.0-94.0","1920x1080","","3783.2000000476837","78.70","img/238/5.5/0.66667/bw/001.png","","","appealing"
"","","","","","animation","95","766896","0.0-95.0","1920x1080","","2359","17.33","img/314/2.5/1/bw/001.png","","","appealing"
"","","","","","animation","96","769264","0.0-96.0","1920x1080","","2366.9000000953674","10.05","img/314/2.5/1.5/bw/001.png","","","appealing"
"","","","","","animation","97","772608","0.0-97.0","1920x1080","","3343.2999999523163","50.26","img/314/4.5/0.66667/bw/001.png","","","appealing"
"","","","","","animation","98","775807","0.0-98.0","1920x1080","","3197.2999999523163","12.96","img/117/2.5/0.66667/bw/001.png","","","appealing"
"","","","","","animation","99","779544","0.0-99.0","1920x1080","","3735.399999856949","36.38","img/117/3.5/1.5/bw/001.png","","","appealing"
"","","","","","animation","100","782168","0.0-100.0","1920x1080","","2623.399999856949","31.08","img/117/3.5/0.66667/bw/001.png","","","appealing"
"","","","","","animation","101","785736","0.0-101.0","1920x1080","","3567.2000000476837","15.34","img/238/2.5/0.66667/bw/001.png","","","appealing"
"","","","","","animation","102","788292","0.0-102.0","1920x1080","","2555.2000000476837","5.03","img/117/2.5/0.5/bw/001.png","","","appealing"
"","","","","","animation","103","791064","0.0-103.0","1920x1080","","2770.600000143051","35.45","img/314/4/0.66667/bw/001.png","","","appealing"
"","","","","","animation","104","798232","0.0-104.0","1920x1080","","7167.200000047684","45","img/117/4/1.5/bw/001.png","","","appealing"
"","","","","","animation","105","800600","0.0-105.0","1920x1080","","2366.2000000476837","24.34","img/117/2.5/2/bw/001.png","","","appealing"
"","","","","","animation","106","804360","0.0-106.0","1920x1080","","3759","57.14","img/117/4/2/bw/001.png","","","appealing"
"","","","","","animation","107","810096","0.0-107.0","1920x1080","","5735.099999904633","25.40","img/314/4/0.5/bw/001.png","","","appealing"
"","","","","","animation","108","814896","0.0-108.0","1920x1080","","4798.399999856949","27","img/238/3.5/2/bw/001.png","","","appealing"
"","","","","","animation","109","819201","0.0-109.0","1920x1080","","4303.599999904633","20.50","img/314/3.5/1/bw/001.png","","","appealing"
"","","","","","animation","110","824184","0.0-110.0","1920x1080","","4982.699999809265","100","img/238/5.5/2/bw/001.png","","","appealing"
"","","","","","animation","111","830864","0.0-111.0","1920x1080","","6678.599999904633","29.50","img/117/4.5/0.66667/bw/001.png","","","appealing"
"","","","","","animation","112","835608","0.0-112.0","1920x1080","","4742.600000143051","47.62","img/238/4.5/1.5/bw/001.png","","","appealing"
"","","","","","animation","113","838475","0.0-113.0","1920x1080","","2865.0999999046326","14.42","img/117/2.5/1.5/bw/001.png","","","appealing"
"","","","","","animation","114","841600","0.0-114.0","1920x1080","","3124.7000000476837","44.97","img/238/4.5/0.66667/bw/001.png","","","appealing"
"","","","","","animation","115","845232","0.0-115.0","1920x1080","","3630.9000000953674","92.72","img/117/5.5/0.5/bw/001.png","","","appealing"
"","","","","","animation","116","848008","0.0-116.0","1920x1080","","2774.5","45.90","img/238/3.5/0.66667/bw/001.png","","","appealing"
"","","","","","animation","117","851328","0.0-117.0","1920x1080","","3319","41.40","img/117/4/0.66667/bw/001.png","","","appealing"
"","","","","","animation","118","856929","0.0-118.0","1920x1080","","5599.099999904633","89.29","img/117/5.5/2/bw/001.png","","","appealing"
"","","","","","animation","119","860265","0.0-119.0","1920x1080","","3334.600000143051","30.69","img/238/4/0.66667/bw/001.png","","","appealing"
"","","","","","animation","120","865353","0.0-120.0","1920x1080","","5086.899999856949","45.24","img/314/4.5/0.5/bw/001.png","","","appealing"
"","","","","","animation","121","870292","0.0-121.0","1920x1080","","4937.800000190735","34.13","img/117/4/1/bw/001.png","","","appealing"
"","","","","","animation","122","873842","0.0-122.0","1920x1080","","3548.100000143051","73.94","img/117/5.5/1.5/bw/001.png","","","appealing"
"","","","","","animation","123","877525","0.0-123.0","1920x1080","","3682","35.58","img/238/3.5/1.5/bw/001.png","","","appealing"
"","","","","","animation","124","881275","0.0-124.0","1920x1080","","3748.7999999523163","55.69","img/117/4.5/1.5/bw/001.png","","","appealing"
"","","","","","animation","125","884425","0.0-125.0","1920x1080","","3148.600000143051","36.90","img/238/4/1.5/bw/001.png","","","appealing"
"","","","","","animation","126","892875","0.0-126.0","1920x1080","","8449.599999904633","78.84","img/238/5.5/1.5/bw/001.png","","","appealing"
"","","","","","animation","127","897292","0.0-127.0","1920x1080","","4415.400000095367","7.67","img/117/3.5/1/bw/001.png","","","appealing"
"","","","","","animation","128","901041","0.0-128.0","1920x1080","","3748.4000000953674","28.44","img/117/4.5/0.5/bw/001.png","","","appealing"
"","","","","","animation","129","907291","0.0-129.0","1920x1080","","6245.900000095367","96","img/314/5.5/2/bw/001.png","","","appealing"
"","","","","","animation","130","911458","0.0-130.0","1920x1080","","4164.5","92","img/238/5.5/0.5/bw/001.png","","","appealing"
"","","","","","animation","131","914808","0.0-131.0","1920x1080","","3349.2000000476837","39.15","img/117/4/0.5/bw/001.png","","","appealing"
"","","","","","animation","132","918248","0.0-132.0","1920x1080","","3439.2999999523163","40.08","img/238/4/1/bw/001.png","","","appealing"
"","","","","","animation","133","921308","0.0-133.0","1920x1080","","3058.899999856949","19.05","img/314/3.5/0.5/bw/001.png","","","appealing"
"","","","","","animation","134","927384","0.0-134.0","1920x1080","","6074.599999904633","48.28","img/238/4.5/2/bw/001.png","","","appealing"
"","","","","","animation","135","934825","0.0-135.0","1920x1080","","7439.400000095367","96","img/314/5.5/0.66667/bw/001.png","","","appealing"
"","","","","","animation","136","937848","0.0-136.0","1920x1080","","3021","1","img/117/2.5/1/bw/001.png","","","appealing"
"","","","","","animation","137","940592","0.0-137.0","1920x1080","","2742.800000190735","14.95","img/314/4/1/bw/001.png","","","appealing"
"","","","","","animation","138","946748","0.0-138.0","1920x1080","","6154.200000047684","42","img/314/4.5/2/bw/001.png","","","appealing"
"","","","","","animation","139","949425","0.0-139.0","1920x1080","","2627.600000143051","44.71","img/117/4.5/2/bw/001.png","","","appealing"
"","","","","","animation","140","951408","0.0-140.0","1920x1080","","1982.0999999046326","23.81","img/117/3.5/2/bw/001.png","","","appealing"
"","","","","","animation","141","954200","0.0-141.0","1920x1080","","2791.399999856949","16.40","img/238/4/0.5/bw/001.png","","","appealing"
"","","","","","animation","142","963992","0.0-142.0","1920x1080","","9790.700000047684","86.24","img/314/5.5/1/bw/001.png","","","appealing"
"","","","","","animation","143","969728","0.0-143.0","1920x1080","","5732.799999952316","59.26","img/314/5.5/0.5/bw/001.png","","","appealing"
"","","","","","animation","144","973792","0.0-144.0","1920x1080","","4062.4000000953674","16","img/238/3.5/0.5/bw/001.png","","","appealing"
"","","","","","animation","145","976293","0.0-145.0","1920x1080","","2499.2999999523163","30.69","img/238/4.5/0.5/bw/001.png","","","appealing"
"","","","","","animation","146","982176","0.0-146.0","1920x1080","","5881.900000095367","97","img/238/5.5/1/bw/001.png","","","appealing"
"","","","","","animation","147","987880","0.0-147.0","1920x1080","","5702.399999856949","89.95","img/117/5.5/1/bw/001.png","","","appealing"
"","","","","","animation","148","990696","0.0-148.0","1920x1080","","2814","11.51","img/238/3.5/1/bw/001.png","","","appealing"
"","","","","","animation","149","993508","0.0-149.0","1920x1080","","2810.2000000476837","34.92","img/238/4.5/1/bw/001.png","","","appealing"
"","","","","","animation","150","995664","0.0-150.0","1920x1080","","2155.399999856949","25.66","img/314/3.5/0.66667/bw/001.png","","","appealing"
"","","","","","animation","151","998875","0.0-151.0","1920x1080","","3208.7999999523163","31","img/314/3.5/1.5/bw/001.png","","","appealing"
"","","","","","animation","152","1002160","0.0-152.0","1920x1080","","3284.2000000476837","52.51","img/238/4/2/bw/001.png","","","appealing"
"","","","","","animation","153","1005512","0.0-153.0","1920x1080","","3351.5","5","img/238/2.5/0.5/bw/001.png","","","appealing"
"","","","","","animation","154","1011908","0.0-154.0","1920x1080","","6394.599999904633","99","img/314/5.5/1.5/bw/001.png","","","appealing"
"","","","","","animation","155","1016064","0.0-155.0","1920x1080","","4153.700000047684","40.21","img/117/4.5/1/bw/001.png","","","appealing"
"","","","","","animation","156","1023216","0.0-156.0","1920x1080","","7151.299999952316","68","img/117/5.5/0.66667/bw/001.png","","","appealing"
"","","","","","animation","157","1025432","0.0-157.0","1920x1080","","2214.7000000476837","34.79","img/314/4/1.5/bw/001.png","","","appealing"
"","","","","","animation","158","1027776","0.0-158.0","1920x1080","","2342.4000000953674","4.23","img/238/2.5/1.5/bw/001.png","","","appealing"
"","","","","","html-button-response","159","1049785","0.0-159.0","1920x1080","","22007.700000047684","","<div class=""intro"">You are about to view a new series of animations.<br><br></div><div class=""intro"">You will evaluate them based on a different descriptor.<br><br></div><div class=""intro"">Move the slider to indicate how <strong style=""text-transform:capitalize"">RELAXING</strong> you find each animation.<br><br></div><div class=""intro"">0 = Least Relaxing<br></div><div class=""intro"">1 = Most Relaxing<br><br></div><div class=""intro"">Remember to use the <strong><em>entire range</em></strong> of the slider to make your ratings.<br></div><div class=""intro"">Please <strong><em>take your time</em></strong> and carefully consider each rating you make.<br><br></div>","0","",""
"","","","","","call-function","160","1049787","0.0-160.0","1920x1080","","","","","","",""
"","","","","","animation","161","1053725","0.0-161.0","1920x1080","","3937.5","0.93","img/314/2.5/1/bw/001.png","","","relaxing"
"","","","","","animation","162","1058464","0.0-162.0","1920x1080","","4738.300000190735","96","img/117/5.5/2/bw/001.png","","","relaxing"
"","","","","","animation","163","1060958","0.0-163.0","1920x1080","","2491.5","2.38","img/314/2.5/1.5/bw/001.png","","","relaxing"
"","","","","","animation","164","1065441","0.0-164.0","1920x1080","","4481.900000095367","81","img/238/5.5/0.66667/bw/001.png","","","relaxing"
"","","","","","animation","165","1069891","0.0-165.0","1920x1080","","4448.200000047684","3.44","img/238/2.5/1.5/bw/001.png","","","relaxing"
"","","","","","animation","166","1073603","0.0-166.0","1920x1080","","3710.699999809265","15","img/238/3.5/0.5/bw/001.png","","","relaxing"
"","","","","","animation","167","1077641","0.0-167.0","1920x1080","","4036.899999856949","11","img/238/4/0.66667/bw/001.png","","","relaxing"
"","","","","","animation","168","1080992","0.0-168.0","1920x1080","","3349.7999999523163","17.72","img/117/4.5/0.5/bw/001.png","","","relaxing"
"","","","","","animation","169","1087449","0.0-169.0","1920x1080","","6455.5","73.15","img/238/5.5/1/bw/001.png","","","relaxing"
"","","","","","animation","170","1093242","0.0-170.0","1920x1080","","5790.400000095367","2.12","img/314/2.5/0.66667/bw/001.png","","","relaxing"
"","","","","","animation","171","1098065","0.0-171.0","1920x1080","","4821.299999952316","39.42","img/117/4/1.5/bw/001.png","","","relaxing"
"","","","","","animation","172","1101626","0.0-172.0","1920x1080","","3559.0999999046326","4.76","img/238/2.5/0.66667/bw/001.png","","","relaxing"
"","","","","","animation","173","1110593","0.0-173.0","1920x1080","","8966.099999904633","75","img/117/5.5/1/bw/001.png","","","relaxing"
"","","","","","animation","174","1115426","0.0-174.0","1920x1080","","4831.599999904633","25.13","img/238/3.5/2/bw/001.png","","","relaxing"
"","","","","","animation","175","1121985","0.0-175.0","1920x1080","","6558.299999952316","43","img/314/4/1.5/bw/001.png","","","relaxing"
"","","","","","animation","176","1128865","0.0-176.0","1920x1080","","6878.899999856949","64","img/117/5.5/0.66667/bw/001.png","","","relaxing"
"","","","","","animation","177","1141033","0.0-177.0","1920x1080","","12166.700000047684","19","img/117/3.5/0.66667/bw/001.png","","","relaxing"
"","","","","","animation","178","1148125","0.0-178.0","1920x1080","","7090.600000143051","22","img/238/3.5/1.5/bw/001.png","","","relaxing"
"","","","","","animation","179","1158233","0.0-179.0","1920x1080","","10056.399999856949","23","img/238/4/0.5/bw/001.png","","","relaxing"
"","","","","","animation","180","1173128","0.0-180.0","1920x1080","","14894.5","23.02","img/314/4/0.5/bw/001.png","","","relaxing"
"","","","","","animation","181","1179408","0.0-181.0","1920x1080","","6278.799999952316","89","img/314/5.5/1/bw/001.png","","","relaxing"
"","","","","","animation","182","1189424","0.0-182.0","1920x1080","","10013.799999952316","43","img/314/4.5/1.5/bw/001.png","","","relaxing"
"","","","","","animation","183","1194313","0.0-183.0","1920x1080","","4887.299999952316","25.40","img/238/4/1.5/bw/001.png","","","relaxing"
"","","","","","animation","184","1197801","0.0-184.0","1920x1080","","3486.5999999046326","13.76","img/314/4/1/bw/001.png","","","relaxing"
"","","","","","animation","185","1208665","0.0-185.0","1920x1080","","10862.600000143051","72","img/314/5.5/1.5/bw/001.png","","","relaxing"
"","","","","","animation","186","1215681","0.0-186.0","1920x1080","","7014","16.53","img/314/3.5/0.5/bw/001.png","","","relaxing"
"","","","","","animation","187","1218025","0.0-187.0","1920x1080","","2342.9000000953674","14.29","img/117/3.5/0.5/bw/001.png","","","relaxing"
"","","","","","animation","188","1223425","0.0-188.0","1920x1080","","5398.699999809265","39.02","img/314/4.5/1/bw/001.png","","","relaxing"
"","","","","","animation","189","1226809","0.0-189.0","1920x1080","","3381.5","35.85","img/117/4.5/1/bw/001.png","","","relaxing"
"","","","","","animation","190","1229449","0.0-190.0","1920x1080","","2638.2999999523163","21.56","img/314/4/2/bw/001.png","","","relaxing"
"","","","","","animation","191","1243009","0.0-191.0","1920x1080","","13558.599999904633","88","img/238/5.5/0.5/bw/001.png","","","relaxing"
"","","","","","animation","192","1251075","0.0-192.0","1920x1080","","8064.800000190735","93.65","img/117/5.5/1.5/bw/001.png","","","relaxing"
"","","","","","animation","193","1265442","0.0-193.0","1920x1080","","14364.400000095367","48","img/238/4.5/1/bw/001.png","","","relaxing"
"","","","","","animation","194","1270526","0.0-194.0","1920x1080","","5080.599999904633","1","img/117/2.5/0.66667/bw/001.png","","","relaxing"
"","","","","","animation","195","1284297","0.0-195.0","1920x1080","","13770.599999904633","69","img/238/5.5/2/bw/001.png","","","relaxing"
"","","","","","animation","196","1294761","0.0-196.0","1920x1080","","10461.299999952316","12","img/314/4/0.66667/bw/001.png","","","relaxing"
"","","","","","animation","197","1305508","0.0-197.0","1920x1080","","10745.900000095367","82.14","img/314/5.5/0.5/bw/001.png","","","relaxing"
"","","","","","animation","198","1308529","0.0-198.0","1920x1080","","3019.7999999523163","3.70","img/117/2.5/1.5/bw/001.png","","","relaxing"
"","","","","","animation","199","1318050","0.0-199.0","1920x1080","","9518.799999952316","52.78","img/238/4.5/2/bw/001.png","","","relaxing"
"","","","","","animation","200","1322909","0.0-200.0","1920x1080","","4857.399999856949","5.16","img/117/2.5/1/bw/001.png","","","relaxing"
"","","","","","animation","201","1330225","0.0-201.0","1920x1080","","7315.300000190735","86","img/117/5.5/0.5/bw/001.png","","","relaxing"
"","","","","","animation","202","1335809","0.0-202.0","1920x1080","","5582.600000143051","6","img/314/3.5/0.66667/bw/001.png","","","relaxing"
"","","","","","animation","203","1342898","0.0-203.0","1920x1080","","7087","40","img/238/4/2/bw/001.png","","","relaxing"
"","","","","","animation","204","1352858","0.0-204.0","1920x1080","","9959.400000095367","47.88","img/314/4.5/0.5/bw/001.png","","","relaxing"
"","","","","","animation","205","1362525","0.0-205.0","1920x1080","","9665.799999952316","70","img/314/5.5/0.66667/bw/001.png","","","relaxing"
"","","","","","animation","206","1366177","0.0-206.0","1920x1080","","3650.7000000476837","7","img/238/2.5/1/bw/001.png","","","relaxing"
"","","","","","animation","207","1372875","0.0-207.0","1920x1080","","6696.099999904633","11.38","img/238/4/1/bw/001.png","","","relaxing"
"","","","","","animation","208","1376425","0.0-208.0","1920x1080","","3547.9000000953674","10.19","img/238/3.5/0.66667/bw/001.png","","","relaxing"
"","","","","","animation","209","1378850","0.0-209.0","1920x1080","","2423.399999856949","21.43","img/117/3.5/1/bw/001.png","","","relaxing"
"","","","","","animation","210","1387559","0.0-210.0","1920x1080","","8707.5","17.33","img/117/3.5/2/bw/001.png","","","relaxing"
"","","","","","animation","211","1394009","0.0-211.0","1920x1080","","6448.5","38","img/314/4.5/0.66667/bw/001.png","","","relaxing"
"","","","","","animation","212","1397130","0.0-212.0","1920x1080","","3119.5","41.53","img/117/4.5/2/bw/001.png","","","relaxing"
"","","","","","animation","213","1400130","0.0-213.0","1920x1080","","2998.7999999523163","31.75","img/117/4.5/1.5/bw/001.png","","","relaxing"
"","","","","","animation","214","1404082","0.0-214.0","1920x1080","","3950.4000000953674","46.16","img/314/4.5/2/bw/001.png","","","relaxing"
"","","","","","animation","215","1408562","0.0-215.0","1920x1080","","4478.699999809265","8","img/117/4/0.5/bw/001.png","","","relaxing"
"","","","","","animation","216","1410978","0.0-216.0","1920x1080","","2414.9000000953674","6","img/314/3.5/2/bw/001.png","","","relaxing"
"","","","","","animation","217","1413675","0.0-217.0","1920x1080","","2696.4000000953674","10.85","img/238/3.5/1/bw/001.png","","","relaxing"
"","","","","","animation","218","1419276","0.0-218.0","1920x1080","","5599.199999809265","37.30","img/238/4.5/1.5/bw/001.png","","","relaxing"
"","","","","","animation","219","1422762","0.0-219.0","1920x1080","","3484.4000000953674","11.90","img/117/4.5/0.66667/bw/001.png","","","relaxing"
"","","","","","animation","220","1426976","0.0-220.0","1920x1080","","4212.700000047684","0","img/117/2.5/2/bw/001.png","","","relaxing"
"","","","","","animation","221","1429762","0.0-221.0","1920x1080","","2784.699999809265","0","img/314/2.5/2/bw/001.png","","","relaxing"
"","","","","","animation","222","1436759","0.0-222.0","1920x1080","","6996.099999904633","91.01","img/314/5.5/2/bw/001.png","","","relaxing"
"","","","","","animation","223","1444092","0.0-223.0","1920x1080","","7328.900000095367","25.53","img/117/3.5/1.5/bw/001.png","","","relaxing"
"","","","","","animation","224","1446914","0.0-224.0","1920x1080","","2820.600000143051","13.36","img/314/3.5/1/bw/001.png","","","relaxing"
"","","","","","animation","225","1453241","0.0-225.0","1920x1080","","6326.800000190735","34.39","img/117/4/2/bw/001.png","","","relaxing"
"","","","","","animation","226","1456562","0.0-226.0","1920x1080","","3318.9000000953674","23.94","img/117/4/0.66667/bw/001.png","","","relaxing"
"","","","","","animation","227","1461642","0.0-227.0","1920x1080","","5078","1.72","img/314/2.5/0.5/bw/001.png","","","relaxing"
"","","","","","animation","228","1468558","0.0-228.0","1920x1080","","6914.299999952316","47.35","img/117/4/1/bw/001.png","","","relaxing"
"","","","","","animation","229","1470412","0.0-229.0","1920x1080","","1852.6000001430511","25.13","img/314/3.5/1.5/bw/001.png","","","relaxing"
"","","","","","animation","230","1472809","0.0-230.0","1920x1080","","2395.7999999523163","6.48","img/117/2.5/0.5/bw/001.png","","","relaxing"
"","","","","","animation","231","1477975","0.0-231.0","1920x1080","","5165","49.21","img/238/4.5/0.66667/bw/001.png","","","relaxing"
"","","","","","animation","232","1491427","0.0-232.0","1920x1080","","13450.299999952316","85","img/238/5.5/1.5/bw/001.png","","","relaxing"
"","","","","","animation","233","1495961","0.0-233.0","1920x1080","","4531.799999952316","1","img/238/2.5/0.5/bw/001.png","","","relaxing"
"","","","","","animation","234","1502849","0.0-234.0","1920x1080","","6886.800000190735","22","img/238/4.5/0.5/bw/001.png","","","relaxing"
"","","","","","animation","235","1506025","0.0-235.0","1920x1080","","3172","5","img/238/2.5/2/bw/001.png","","","relaxing"
"","","","","","html-button-response","236","1528276","0.0-236.0","1920x1080","","22248.299999952316","","<div class=""intro"">You are about to view a new series of animations.<br><br></div><div class=""intro"">You will evaluate them based on a different descriptor.<br><br></div><div class=""intro"">Move the slider to indicate how <strong style=""text-transform:capitalize"">INTERESTING</strong> you find each animation.<br><br></div><div class=""intro"">0 = Least Interesting<br></div><div class=""intro"">1 = Most Interesting<br><br></div><div class=""intro"">Remember to use the <strong><em>entire range</em></strong> of the slider to make your ratings.<br></div><div class=""intro"">Please <strong><em>take your time</em></strong> and carefully consider each rating you make.<br><br></div>","0","",""
"","","","","","call-function","237","1528278","0.0-237.0","1920x1080","","","","","","",""
"","","","","","animation","238","1536314","0.0-238.0","1920x1080","","8035.099999904633","44.18","img/238/4/1.5/bw/001.png","","","interesting"
"","","","","","animation","239","1540425","0.0-239.0","1920x1080","","4108.800000190735","26.59","img/117/3.5/0.66667/bw/001.png","","","interesting"
"","","","","","animation","240","1544009","0.0-240.0","1920x1080","","3581.9000000953674","17.59","img/314/3.5/1.5/bw/001.png","","","interesting"
"","","","","","animation","241","1547546","0.0-241.0","1920x1080","","3536.0999999046326","62.70","img/238/4.5/0.5/bw/001.png","","","interesting"
"","","","","","animation","242","1552314","0.0-242.0","1920x1080","","4766.599999904633","84","img/117/5.5/0.5/bw/001.png","","","interesting"
"","","","","","animation","243","1555776","0.0-243.0","1920x1080","","3460","52.38","img/314/4.5/2/bw/001.png","","","interesting"
"","","","","","animation","244","1561427","0.0-244.0","1920x1080","","5649.200000047684","27.51","img/117/4/0.66667/bw/001.png","","","interesting"
"","","","","","animation","245","1564578","0.0-245.0","1920x1080","","3148.5","11.77","img/314/4/2/bw/001.png","","","interesting"
"","","","","","animation","246","1575343","0.0-246.0","1920x1080","","10763.300000190735","17.72","img/238/4.5/1/bw/001.png","","","interesting"
"","","","","","animation","247","1578076","0.0-247.0","1920x1080","","2731.7999999523163","5.82","img/117/3.5/2/bw/001.png","","","interesting"
"","","","","","animation","248","1580904","0.0-248.0","1920x1080","","2827.2000000476837","0.53","img/314/2.5/0.66667/bw/001.png","","","interesting"
"","","","","","animation","249","1587064","0.0-249.0","1920x1080","","6157.600000143051","59","img/238/4.5/2/bw/001.png","","","interesting"
"","","","","","animation","250","1589309","0.0-250.0","1920x1080","","2243.2000000476837","3.84","img/238/2.5/0.66667/bw/001.png","","","interesting"
"","","","","","animation","251","1592088","0.0-251.0","1920x1080","","2777.9000000953674","3.57","img/314/2.5/1.5/bw/001.png","","","interesting"
"","","","","","animation","252","1601682","0.0-252.0","1920x1080","","9592.299999952316","85","img/314/5.5/0.66667/bw/001.png","","","interesting"
"","","","","","animation","253","1608066","0.0-253.0","1920x1080","","6380.400000095367","56.88","img/314/4.5/1/bw/001.png","","","interesting"
"","","","","","animation","254","1617453","0.0-254.0","1920x1080","","9384","81","img/238/5.5/0.5/bw/001.png","","","interesting"
"","","","","","animation","255","1621142","0.0-255.0","1920x1080","","3683.7000000476837","1.32","img/238/2.5/2/bw/001.png","","","interesting"
"","","","","","animation","256","1628599","0.0-256.0","1920x1080","","7455.900000095367","20.24","img/314/4/1/bw/001.png","","","interesting"
"","","","","","animation","257","1635866","0.0-257.0","1920x1080","","7264.900000095367","15.74","img/314/4/1.5/bw/001.png","","","interesting"
"","","","","","animation","258","1643882","0.0-258.0","1920x1080","","8014.400000095367","68.52","img/238/5.5/2/bw/001.png","","","interesting"
"","","","","","animation","259","1652066","0.0-259.0","1920x1080","","8180.900000095367","39.81","img/117/4.5/1/bw/001.png","","","interesting"
"","","","","","animation","260","1659714","0.0-260.0","1920x1080","","7646.199999809265","38.62","img/314/4.5/1.5/bw/001.png","","","interesting"
"","","","","","animation","261","1667644","0.0-261.0","1920x1080","","7927.900000095367","65.87","img/314/5.5/2/bw/001.png","","","interesting"
"","","","","","animation","262","1670567","0.0-262.0","1920x1080","","2920.100000143051","6.08","img/314/2.5/2/bw/001.png","","","interesting"
"","","","","","animation","263","1676025","0.0-263.0","1920x1080","","5457.100000143051","23.68","img/117/4/1/bw/001.png","","","interesting"
"","","","","","animation","264","1679259","0.0-264.0","1920x1080","","3232.2000000476837","12.70","img/314/2.5/1/bw/001.png","","","interesting"
"","","","","","animation","265","1683594","0.0-265.0","1920x1080","","4333.600000143051","18.52","img/314/3.5/0.5/bw/001.png","","","interesting"
"","","","","","animation","266","1694442","0.0-266.0","1920x1080","","10846.5","33.99","img/238/4/2/bw/001.png","","","interesting"
"","","","","","animation","267","1697794","0.0-267.0","1920x1080","","3349.5","8.60","img/117/3.5/0.5/bw/001.png","","","interesting"
"","","","","","animation","268","1700732","0.0-268.0","1920x1080","","2935.7999999523163","3.70","img/117/2.5/0.5/bw/001.png","","","interesting"
"","","","","","animation","269","1714699","0.0-269.0","1920x1080","","13964.899999856949","60","img/117/5.5/2/bw/001.png","","","interesting"
"","","","","","animation","270","1717759","0.0-270.0","1920x1080","","3057.0999999046326","2.65","img/117/2.5/2/bw/001.png","","","interesting"
"","","","","","animation","271","1721710","0.0-271.0","1920x1080","","3949.5","7.41","img/117/2.5/1/bw/001.png","","","interesting"
"","","","","","animation","272","1724998","0.0-272.0","1920x1080","","3284.7000000476837","6.48","img/238/2.5/1/bw/001.png","","","interesting"
"","","","","","animation","273","1732247","0.0-273.0","1920x1080","","7246.399999856949","17","img/314/3.5/1/bw/001.png","","","interesting"
"","","","","","animation","274","1734592","0.0-274.0","1920x1080","","2344","11.90","img/117/2.5/0.66667/bw/001.png","","","interesting"
"","","","","","animation","275","1739186","0.0-275.0","1920x1080","","4592.799999952316","19.71","img/117/3.5/1.5/bw/001.png","","","interesting"
"","","","","","animation","276","1742661","0.0-276.0","1920x1080","","3471.7999999523163","28.17","img/117/4/0.5/bw/001.png","","","interesting"
"","","","","","animation","277","1748309","0.0-277.0","1920x1080","","5646.399999856949","48.02","img/238/4.5/1.5/bw/001.png","","","interesting"
"","","","","","animation","278","1758546","0.0-278.0","1920x1080","","10235.200000047684","96","img/117/5.5/1/bw/001.png","","","interesting"
"","","","","","animation","279","1763175","0.0-279.0","1920x1080","","4625.5","42.72","img/117/4/2/bw/001.png","","","interesting"
"","","","","","animation","280","1777714","0.0-280.0","1920x1080","","14537.100000143051","87","img/238/5.5/1.5/bw/001.png","","","interesting"
"","","","","","animation","281","1805298","0.0-281.0","1920x1080","","27581.700000047684","48.94","img/117/4.5/1.5/bw/001.png","","","interesting"
"","","","","","animation","282","1811459","0.0-282.0","1920x1080","","6157.799999952316","68","img/117/5.5/1.5/bw/001.png","","","interesting"
"","","","","","animation","283","1818468","0.0-283.0","1920x1080","","7007","20.11","img/238/3.5/1/bw/001.png","","","interesting"
"","","","","","animation","284","1823530","0.0-284.0","1920x1080","","5056.699999809265","32.14","img/314/4.5/0.66667/bw/001.png","","","interesting"
"","","","","","animation","285","1826730","0.0-285.0","1920x1080","","3198.0999999046326","21.43","img/314/4/0.66667/bw/001.png","","","interesting"
"","","","","","animation","286","1829409","0.0-286.0","1920x1080","","2675.4000000953674","4.76","img/117/2.5/1.5/bw/001.png","","","interesting"
"","","","","","animation","287","1832146","0.0-287.0","1920x1080","","2735.899999856949","7.67","img/238/3.5/0.66667/bw/001.png","","","interesting"
"","","","","","animation","288","1834813","0.0-288.0","1920x1080","","2665.699999809265","15.08","img/117/4.5/0.66667/bw/001.png","","","interesting"
"","","","","","animation","289","1839648","0.0-289.0","1920x1080","","4833.5","4.10","img/238/3.5/2/bw/001.png","","","interesting"
"","","","","","animation","290","1848394","0.0-290.0","1920x1080","","8743.899999856949","73","img/314/5.5/1/bw/001.png","","","interesting"
"","","","","","animation","291","1852828","0.0-291.0","1920x1080","","4429.899999856949","7.94","img/314/3.5/0.66667/bw/001.png","","","interesting"
"","","","","","animation","292","1857603","0.0-292.0","1920x1080","","4772.799999952316","9","img/314/4/0.5/bw/001.png","","","interesting"
"","","","","","animation","293","1860594","0.0-293.0","1920x1080","","2988.399999856949","2.78","img/238/2.5/1.5/bw/001.png","","","interesting"
"","","","","","animation","294","1868379","0.0-294.0","1920x1080","","7783","39.55","img/314/4.5/0.5/bw/001.png","","","interesting"
"","","","","","animation","295","1872115","0.0-295.0","1920x1080","","3731.5","42.46","img/238/4.5/0.66667/bw/001.png","","","interesting"
"","","","","","animation","296","1875216","0.0-296.0","1920x1080","","3098.7000000476837","23.41","img/238/3.5/1.5/bw/001.png","","","interesting"
"","","","","","animation","297","1878369","0.0-297.0","1920x1080","","3151.2999999523163","13.23","img/238/2.5/0.5/bw/001.png","","","interesting"
"","","","","","animation","298","1885243","0.0-298.0","1920x1080","","6871.900000095367","81","img/238/5.5/0.66667/bw/001.png","","","interesting"
"","","","","","animation","299","1892326","0.0-299.0","1920x1080","","7079.799999952316","22","img/314/3.5/2/bw/001.png","","","interesting"
"","","","","","animation","300","1899609","0.0-300.0","1920x1080","","7279.599999904633","30","img/238/4/1/bw/001.png","","","interesting"
"","","","","","animation","301","1911230","0.0-301.0","1920x1080","","11618.799999952316","90.87","img/117/5.5/0.66667/bw/001.png","","","interesting"
"","","","","","animation","302","1915875","0.0-302.0","1920x1080","","4643.200000047684","30.69","img/238/4/0.5/bw/001.png","","","interesting"
"","","","","","animation","303","1919432","0.0-303.0","1920x1080","","3554.0999999046326","12.57","img/117/3.5/1/bw/001.png","","","interesting"
"","","","","","animation","304","1922957","0.0-304.0","1920x1080","","3522.7000000476837","20.37","img/117/4/1.5/bw/001.png","","","interesting"
"","","","","","animation","305","1932326","0.0-305.0","1920x1080","","9366.5","19.05","img/117/4.5/2/bw/001.png","","","interesting"
"","","","","","animation","306","1937117","0.0-306.0","1920x1080","","4789.5","11.11","img/238/4/0.66667/bw/001.png","","","interesting"
"","","","","","animation","307","1939482","0.0-307.0","1920x1080","","2363.7000000476837","20.50","img/238/3.5/0.5/bw/001.png","","","interesting"
"","","","","","animation","308","1946402","0.0-308.0","1920x1080","","6918.399999856949","76","img/314/5.5/0.5/bw/001.png","","","interesting"
"","","","","","animation","309","1950149","0.0-309.0","1920x1080","","3743.2999999523163","7.41","img/314/2.5/0.5/bw/001.png","","","interesting"
"","","","","","animation","310","1956815","0.0-310.0","1920x1080","","6664.200000047684","27","img/117/4.5/0.5/bw/001.png","","","interesting"
"","","","","","animation","311","1964543","0.0-311.0","1920x1080","","7726.299999952316","66","img/238/5.5/1/bw/001.png","","","interesting"
"","","","","","animation","312","1976602","0.0-312.0","1920x1080","","12054.5","57.14","img/314/5.5/1.5/bw/001.png","","","interesting"
"","","","","","html-button-response","313","1997036","0.0-313.0","1920x1080","","20432.300000190735","","<div class=""intro"">You are about to view a new series of animations.<br><br></div><div class=""intro"">You will evaluate them based on a different descriptor.<br><br></div><div class=""intro"">Move the slider to indicate how <strong style=""text-transform:capitalize"">NATURAL</strong> you find each animation.<br><br></div><div class=""intro"">0 = Least Natural<br></div><div class=""intro"">1 = Most Natural<br><br></div><div class=""intro"">Remember to use the <strong><em>entire range</em></strong> of the slider to make your ratings.<br></div><div class=""intro"">Please <strong><em>take your time</em></strong> and carefully consider each rating you make.<br><br></div>","0","",""
"","","","","","call-function","314","1997038","0.0-314.0","1920x1080","","","","","","",""
"","","","","","animation","315","2006411","0.0-315.0","1920x1080","","9371.700000047684","66.93","img/117/5.5/0.66667/bw/001.png","","","natural"
"","","","","","animation","316","2008700","0.0-316.0","1920x1080","","2288.2999999523163","0.13","img/117/2.5/0.5/bw/001.png","","","natural"
"","","","","","animation","317","2011425","0.0-317.0","1920x1080","","2723.7000000476837","3.04","img/238/3.5/0.5/bw/001.png","","","natural"
"","","","","","animation","318","2017877","0.0-318.0","1920x1080","","6450.5","69.18","img/117/5.5/2/bw/001.png","","","natural"
"","","","","","animation","319","2026742","0.0-319.0","1920x1080","","8862.200000047684","35","img/314/3.5/1.5/bw/001.png","","","natural"
"","","","","","animation","320","2037347","0.0-320.0","1920x1080","","10600.300000190735","46","img/238/3.5/2/bw/001.png","","","natural"
"","","","","","animation","321","2039837","0.0-321.0","1920x1080","","2486.800000190735","6.08","img/314/2.5/0.5/bw/001.png","","","natural"
"","","","","","animation","322","2043995","0.0-322.0","1920x1080","","4156.400000095367","64.29","img/238/4/1.5/bw/001.png","","","natural"
"","","","","","animation","323","2047691","0.0-323.0","1920x1080","","3694.300000190735","7.41","img/314/2.5/0.66667/bw/001.png","","","natural"
"","","","","","animation","324","2053795","0.0-324.0","1920x1080","","6101.600000143051","57.41","img/238/5.5/0.5/bw/001.png","","","natural"
"","","","","","animation","325","2057331","0.0-325.0","1920x1080","","3534","23.81","img/238/3.5/0.66667/bw/001.png","","","natural"
"","","","","","animation","326","2064150","0.0-326.0","1920x1080","","6816.399999856949","70","img/117/4/0.66667/bw/001.png","","","natural"
"","","","","","animation","327","2067995","0.0-327.0","1920x1080","","3842.300000190735","10.98","img/117/2.5/2/bw/001.png","","","natural"
"","","","","","animation","328","2075795","0.0-328.0","1920x1080","","7798.399999856949","75.00","img/314/3.5/0.5/bw/001.png","","","natural"
"","","","","","animation","329","2080275","0.0-329.0","1920x1080","","4477.800000190735","94","img/314/3.5/2/bw/001.png","","","natural"
"","","","","","animation","330","2089427","0.0-330.0","1920x1080","","9150","46","img/238/5.5/0.66667/bw/001.png","","","natural"
"","","","","","animation","331","2100662","0.0-331.0","1920x1080","","11233.099999904633","65.34","img/238/4/0.66667/bw/001.png","","","natural"
"","","","","","animation","332","2110296","0.0-332.0","1920x1080","","9633.099999904633","84.66","img/238/4.5/2/bw/001.png","","","natural"
"","","","","","animation","333","2117418","0.0-333.0","1920x1080","","7117.200000047684","50","img/314/5.5/0.66667/bw/001.png","","","natural"
"","","","","","animation","334","2121318","0.0-334.0","1920x1080","","3895.899999856949","61.24","img/117/5.5/0.5/bw/001.png","","","natural"
"","","","","","animation","335","2131108","0.0-335.0","1920x1080","","9787.799999952316","49.87","img/117/3.5/0.66667/bw/001.png","","","natural"
"","","","","","animation","336","2135426","0.0-336.0","1920x1080","","4312","69.97","img/117/4/1.5/bw/001.png","","","natural"
"","","","","","animation","337","2142326","0.0-337.0","1920x1080","","6898.299999952316","79.76","img/314/5.5/1/bw/001.png","","","natural"
"","","","","","animation","338","2146642","0.0-338.0","1920x1080","","4313.400000095367","9.26","img/314/2.5/1.5/bw/001.png","","","natural"
"","","","","","animation","339","2151979","0.0-339.0","1920x1080","","5335.200000047684","59.79","img/238/5.5/1/bw/001.png","","","natural"
"","","","","","animation","340","2160142","0.0-340.0","1920x1080","","8161","24","img/314/4/0.5/bw/001.png","","","natural"
"","","","","","animation","341","2173508","0.0-341.0","1920x1080","","13363.400000095367","74","img/238/4.5/1/bw/001.png","","","natural"
"","","","","","animation","342","2189295","0.0-342.0","1920x1080","","15784.900000095367","44.18","img/117/3.5/0.5/bw/001.png","","","natural"
"","","","","","animation","343","2201259","0.0-343.0","1920x1080","","11960","74","img/238/3.5/1.5/bw/001.png","","","natural"
"","","","","","animation","344","2211918","0.0-344.0","1920x1080","","10656.299999952316","44.97","img/117/4.5/0.5/bw/001.png","","","natural"
"","","","","","animation","345","2223309","0.0-345.0","1920x1080","","11389.099999904633","78","img/238/5.5/2/bw/001.png","","","natural"
"","","","","","animation","346","2231076","0.0-346.0","1920x1080","","7762.099999904633","1.72","img/314/2.5/2/bw/001.png","","","natural"
"","","","","","animation","347","2234518","0.0-347.0","1920x1080","","3439.7999999523163","3.84","img/238/2.5/0.5/bw/001.png","","","natural"
"","","","","","animation","348","2246038","0.0-348.0","1920x1080","","11519","52","img/117/5.5/1/bw/001.png","","","natural"
"","","","","","animation","349","2259493","0.0-349.0","1920x1080","","13453.399999856949","47.22","img/238/4/1/bw/001.png","","","natural"
"","","","","","animation","350","2268785","0.0-350.0","1920x1080","","9290.399999856949","58.60","img/314/5.5/1.5/bw/001.png","","","natural"
"","","","","","animation","351","2278476","0.0-351.0","1920x1080","","9686.400000095367","43.12","img/314/4.5/0.5/bw/001.png","","","natural"
"","","","","","animation","352","2288741","0.0-352.0","1920x1080","","10263.399999856949","36.24","img/117/4.5/2/bw/001.png","","","natural"
"","","","","","animation","353","2297196","0.0-353.0","1920x1080","","8452.700000047684","69","img/117/5.5/1.5/bw/001.png","","","natural"
"","","","","","animation","354","2302676","0.0-354.0","1920x1080","","5477.700000047684","9.52","img/238/2.5/1.5/bw/001.png","","","natural"
"","","","","","animation","355","2317211","0.0-355.0","1920x1080","","14533.100000143051","71","img/238/5.5/1.5/bw/001.png","","","natural"
"","","","","","animation","356","2323808","0.0-356.0","1920x1080","","6591.699999809265","27","img/117/3.5/1/bw/001.png","","","natural"
"","","","","","animation","357","2327408","0.0-357.0","1920x1080","","3598.4000000953674","5.03","img/117/2.5/1/bw/001.png","","","natural"
"","","","","","animation","358","2330475","0.0-358.0","1920x1080","","3064.7000000476837","2.25","img/238/2.5/0.66667/bw/001.png","","","natural"
"","","","","","animation","359","2341274","0.0-359.0","1920x1080","","10797.099999904633","44","img/117/4/0.5/bw/001.png","","","natural"
"","","","","","animation","360","2347375","0.0-360.0","1920x1080","","6099.200000047684","58","img/238/4.5/0.5/bw/001.png","","","natural"
"","","","","","animation","361","2356081","0.0-361.0","1920x1080","","8703.400000095367","75.00","img/314/5.5/0.5/bw/001.png","","","natural"
"","","","","","animation","362","2366076","0.0-362.0","1920x1080","","9990.700000047684","11","img/314/3.5/0.66667/bw/001.png","","","natural"
"","","","","","animation","363","2380775","0.0-363.0","1920x1080","","14696.799999952316","93","img/117/4/2/bw/001.png","","","natural"
"","","","","","animation","364","2389243","0.0-364.0","1920x1080","","8464.600000143051","73.81","img/314/5.5/2/bw/001.png","","","natural"
"","","","","","animation","365","2398276","0.0-365.0","1920x1080","","9029.600000143051","53","img/314/4/2/bw/001.png","","","natural"
"","","","","","animation","366","2403508","0.0-366.0","1920x1080","","5228","4.50","img/314/2.5/1/bw/001.png","","","natural"
"","","","","","animation","367","2410424","0.0-367.0","1920x1080","","6914.700000047684","5.29","img/117/2.5/0.66667/bw/001.png","","","natural"
"","","","","","animation","368","2421325","0.0-368.0","1920x1080","","10899.099999904633","28.70","img/238/4/2/bw/001.png","","","natural"
"","","","","","animation","369","2426843","0.0-369.0","1920x1080","","5514","47.88","img/238/3.5/1/bw/001.png","","","natural"
"","","","","","animation","370","2440059","0.0-370.0","1920x1080","","13213.799999952316","62.43","img/117/3.5/1.5/bw/001.png","","","natural"
"","","","","","animation","371","2444891","0.0-371.0","1920x1080","","4829.700000047684","22","img/238/4/0.5/bw/001.png","","","natural"
"","","","","","animation","372","2452184","0.0-372.0","1920x1080","","7289.900000095367","69.44","img/314/4/1.5/bw/001.png","","","natural"
"","","","","","animation","373","2459702","0.0-373.0","1920x1080","","7514","66.01","img/314/4.5/2/bw/001.png","","","natural"
"","","","","","animation","374","2465975","0.0-374.0","1920x1080","","6268.799999952316","44","img/117/4/1/bw/001.png","","","natural"
"","","","","","animation","375","2474493","0.0-375.0","1920x1080","","8514.299999952316","58.20","img/314/4.5/1/bw/001.png","","","natural"
"","","","","","animation","376","2484591","0.0-376.0","1920x1080","","10091.800000190735","43.52","img/117/4.5/1/bw/001.png","","","natural"
"","","","","","animation","377","2488676","0.0-377.0","1920x1080","","4082.4000000953674","57.41","img/314/4.5/1.5/bw/001.png","","","natural"
"","","","","","animation","378","2493542","0.0-378.0","1920x1080","","4864","32","img/238/4.5/0.66667/bw/001.png","","","natural"
"","","","","","animation","379","2507612","0.0-379.0","1920x1080","","14068.600000143051","40.34","img/238/4.5/1.5/bw/001.png","","","natural"
"","","","","","animation","380","2510941","0.0-380.0","1920x1080","","3326.7999999523163","1.32","img/238/2.5/2/bw/001.png","","","natural"
"","","","","","animation","381","2524958","0.0-381.0","1920x1080","","14014.599999904633","31","img/117/3.5/2/bw/001.png","","","natural"
"","","","","","animation","382","2527724","0.0-382.0","1920x1080","","2765.0999999046326","28.31","img/314/4/1/bw/001.png","","","natural"
"","","","","","animation","383","2531608","0.0-383.0","1920x1080","","3881.2999999523163","63.89","img/117/4.5/1.5/bw/001.png","","","natural"
"","","","","","animation","384","2536326","0.0-384.0","1920x1080","","4715.299999952316","59.92","img/117/4.5/0.66667/bw/001.png","","","natural"
"","","","","","animation","385","2539725","0.0-385.0","1920x1080","","3389.600000143051","3.44","img/117/2.5/1.5/bw/001.png","","","natural"
"","","","","","animation","386","2544524","0.0-386.0","1920x1080","","4796.799999952316","11.38","img/314/3.5/1/bw/001.png","","","natural"
"","","","","","animation","387","2551658","0.0-387.0","1920x1080","","7131.399999856949","37","img/314/4/0.66667/bw/001.png","","","natural"
"","","","","","animation","388","2554108","0.0-388.0","1920x1080","","2448.4000000953674","4.63","img/238/2.5/1/bw/001.png","","","natural"
"","","","","","animation","389","2561775","0.0-389.0","1920x1080","","7665.5","43.65","img/314/4.5/0.66667/bw/001.png","","","natural"
"","","","","","html-button-response","390","2577685","0.0-390.0","1920x1080","","15908","","<strong>Study Debriefing</strong><br><p class=""debrief""><strong>Background:</strong> The patterns you rated are called <em>fractals</em>. The term fractal describes a class of irregular curves or shapes for which any suitably chosen part is similar in shape to a given larger or smaller part when magnified or reduced to the same size. Fractal properties are found throughout the natural and manmade world. The series of animations you saw today displayed animated fractal patterns of a varying complexity.</p><p class=""debrief""><strong>Purpose of this study:</strong> We hope to better understand how the perception of static fractals differs from the perception of animated fractals, and how the speed of the animated patterns influences people&apos;s perception of them. Fractals allow us to study the perception of aesthetic properties (e.g. the perceived level of beauty in an image) without using recognizable content, which makes them an excellent tool for studying abstract aesthetic judgement.</p><p class=""debrief""><strong>Your part:</strong> Your participation has helped us to further understand how humans perceive these patterns across different levels of speed and complexity. This research with allow us to better understand how the visual system and brain process our ever-changing visual environments.<p class=""debrief""><strong>Feedback and Further information:</strong> If you have additional questions about this study, please feel free to ask the researcher, Nathan Gonzales-Hess at nhess @ uoregon.edu. If you have any questions concerning your rights as a research participant, please contact Research Compliance Services, 5237 University of Oregon, Eugene, OR 97403, 541-346-2510, or email researchCompliance @ uoregon.edu. You can also email the Human Subjects Coordinator for psychology and linguistics research at hscoord @ uoregon.edu. ","0","",""
"","","","","","html-button-response","391","2582448","0.0-391.0","1920x1080","","4759.099999904633","","Thank you for participating in this study. <br>Please click below to finish the experiment and submit your responses.<br><br>","0","",""
"true","","","","","fullscreen","392","2583463","0.0-392.0","1920x1080","10:47 3/6/2022","","","","","",""
