"success","timeout","failed_images","failed_audio","failed_video","trial_type","trial_index","time_elapsed","internal_node_id","resolution","timeStamp","rt","response","stimulus","button_pressed","value","descriptor"
"true","false","[]","[]","[]","preload","0","3811","0.0-0.0","1920x1080","","","","","","",""
"true","false","[]","[]","[]","preload","1","7608","0.0-1.0","1920x1080","","","","","","",""
"true","false","[]","[]","[]","preload","2","11173","0.0-2.0","1920x1080","","","","","","",""
"true","","","","","fullscreen","3","33032","0.0-3.0","1920x1080","11:37 20/5/2022","","","","","",""
"","","","","","survey-html-form","4","178986","0.0-4.0","1920x1080","","145950.40000000596","{""age"":""20"",""gender"":""Male""}","","","",""
"","","","","","html-button-response","5","221218","0.0-5.0","1920x1080","","42230.80000001192","","<div class=""complex"">You are going to see a series of animations.<br><br></div><div class=""complex"">Move the slider to indicate how <strong style=""text-transform:capitalize"">COMPLEX</strong> you find each animation.<br><br></div><div class=""complex"">0 = Least Complex<br></div><div class=""complex"">1 = Most Complex<br><br></div><div class=""complex"">Remember to use the <strong><em>entire range</em></strong> of the slider to make your ratings.<br></div><div class=""complex"">Please <strong><em>take your time</em></strong> and carefully consider each rating you make.<br><br></div><div class=""complex"">The study has five sections and will take about 45 minutes to complete.<br><br></div>","0","",""
"","","","","","call-function","6","221219","0.0-6.0","1920x1080","","","","","","",""
"","","","","","animation","7","237506","0.0-7.0","1920x1080","","16283.699999988079","52","img/314/4/2/bw/001.png","","","complex"
"","","","","","animation","8","245290","0.0-8.0","1920x1080","","7782.5","69.84","img/238/2.5/0.5/bw/001.png","","","complex"
"","","","","","animation","9","252410","0.0-9.0","1920x1080","","7119.199999988079","38.62","img/314/4/1/bw/001.png","","","complex"
"","","","","","animation","10","258978","0.0-10.0","1920x1080","","6567.0999999940395","54.63","img/238/3.5/1/bw/001.png","","","complex"
"","","","","","animation","11","269706","0.0-11.0","1920x1080","","10727.09999999404","58.47","img/238/3.5/0.5/bw/001.png","","","complex"
"","","","","","animation","12","280202","0.0-12.0","1920x1080","","10494.5","10.19","img/117/5.5/2/bw/001.png","","","complex"
"","","","","","animation","13","283794","0.0-13.0","1920x1080","","3590.7999999821186","70.24","img/314/3.5/0.5/bw/001.png","","","complex"
"","","","","","animation","14","293289","0.0-14.0","1920x1080","","9495.09999999404","16.27","img/314/5.5/0.66667/bw/001.png","","","complex"
"","","","","","animation","15","297986","0.0-15.0","1920x1080","","4695.5999999940395","13.49","img/314/5.5/1/bw/001.png","","","complex"
"","","","","","animation","16","301666","0.0-16.0","1920x1080","","3679.300000011921","41.14","img/314/4/0.5/bw/001.png","","","complex"
"","","","","","animation","17","308498","0.0-17.0","1920x1080","","6830.799999982119","29.76","img/238/4/1/bw/001.png","","","complex"
"","","","","","animation","18","311794","0.0-18.0","1920x1080","","3295.5","35.58","img/117/4.5/0.66667/bw/001.png","","","complex"
"","","","","","animation","19","318113","0.0-19.0","1920x1080","","6318.100000023842","27.25","img/314/4.5/1.5/bw/001.png","","","complex"
"","","","","","animation","20","322873","0.0-20.0","1920x1080","","4759.300000011921","75.53","img/238/2.5/0.66667/bw/001.png","","","complex"
"","","","","","animation","21","328666","0.0-21.0","1920x1080","","5791.300000011921","81.22","img/117/2.5/2/bw/001.png","","","complex"
"","","","","","animation","22","332578","0.0-22.0","1920x1080","","3911.199999988079","36.64","img/117/4.5/1.5/bw/001.png","","","complex"
"","","","","","animation","23","339266","0.0-23.0","1920x1080","","6687.5","83.86","img/117/2.5/0.66667/bw/001.png","","","complex"
"","","","","","animation","24","342362","0.0-24.0","1920x1080","","3094.7000000178814","41.67","img/238/4/1.5/bw/001.png","","","complex"
"","","","","","animation","25","344698","0.0-25.0","1920x1080","","2335.5999999940395","55.16","img/238/4/0.5/bw/001.png","","","complex"
"","","","","","animation","26","347562","0.0-26.0","1920x1080","","2863.5","82.67","img/314/2.5/0.5/bw/001.png","","","complex"
"","","","","","animation","27","352546","0.0-27.0","1920x1080","","4982.9000000059605","60.71","img/238/4/0.66667/bw/001.png","","","complex"
"","","","","","animation","28","356594","0.0-28.0","1920x1080","","4047.199999988079","6.75","img/117/5.5/0.66667/bw/001.png","","","complex"
"","","","","","animation","29","358866","0.0-29.0","1920x1080","","2271.0999999940395","87.30","img/314/2.5/1.5/bw/001.png","","","complex"
"","","","","","animation","30","361538","0.0-30.0","1920x1080","","2670.800000011921","36.77","img/238/4.5/1/bw/001.png","","","complex"
"","","","","","animation","31","364556","0.0-31.0","1920x1080","","3016.5999999940395","10.98","img/117/5.5/1.5/bw/001.png","","","complex"
"","","","","","animation","32","366715","0.0-32.0","1920x1080","","2158.199999988079","30.29","img/314/4.5/0.66667/bw/001.png","","","complex"
"","","","","","animation","33","368851","0.0-33.0","1920x1080","","2135.5999999940395","14.81","img/117/5.5/1/bw/001.png","","","complex"
"","","","","","animation","34","371763","0.0-34.0","1920x1080","","2911.100000023842","67.46","img/117/3.5/0.5/bw/001.png","","","complex"
"","","","","","animation","35","374315","0.0-35.0","1920x1080","","2551","80.16","img/117/3.5/1/bw/001.png","","","complex"
"","","","","","animation","36","378010","0.0-36.0","1920x1080","","3694.9000000059605","88.49","img/117/2.5/1/bw/001.png","","","complex"
"","","","","","animation","37","380467","0.0-37.0","1920x1080","","2455.199999988079","95","img/117/2.5/1.5/bw/001.png","","","complex"
"","","","","","animation","38","383835","0.0-38.0","1920x1080","","3367.5999999940395","4.10","img/117/4/1/bw/001.png","","","complex"
"","","","","","animation","39","387195","0.0-39.0","1920x1080","","3359","37.70","img/238/4.5/0.66667/bw/001.png","","","complex"
"","","","","","animation","40","393258","0.0-40.0","1920x1080","","6063","39.29","img/238/4.5/2/bw/001.png","","","complex"
"","","","","","animation","41","398956","0.0-41.0","1920x1080","","5696","45.24","img/238/4.5/1.5/bw/001.png","","","complex"
"","","","","","animation","42","402978","0.0-42.0","1920x1080","","4022","41.53","img/117/4.5/1/bw/001.png","","","complex"
"","","","","","animation","43","406115","0.0-43.0","1920x1080","","3135.2999999821186","62.70","img/117/3.5/1.5/bw/001.png","","","complex"
"","","","","","animation","44","411099","0.0-44.0","1920x1080","","4983.100000023842","16.14","img/314/5.5/2/bw/001.png","","","complex"
"","","","","","animation","45","413411","0.0-45.0","1920x1080","","2310.5999999940395","83.07","img/238/2.5/2/bw/001.png","","","complex"
"","","","","","animation","46","416691","0.0-46.0","1920x1080","","3279","24.34","img/117/5.5/0.5/bw/001.png","","","complex"
"","","","","","animation","47","419163","0.0-47.0","1920x1080","","2471.2999999821186","47.88","img/238/3.5/2/bw/001.png","","","complex"
"","","","","","animation","48","421603","0.0-48.0","1920x1080","","2439.5","41.14","img/314/3.5/1.5/bw/001.png","","","complex"
"","","","","","animation","49","424515","0.0-49.0","1920x1080","","2911","58.86","img/314/4/0.66667/bw/001.png","","","complex"
"","","","","","animation","50","426667","0.0-50.0","1920x1080","","2151.100000023842","64.68","img/238/3.5/1.5/bw/001.png","","","complex"
"","","","","","animation","51","429467","0.0-51.0","1920x1080","","2799","58.86","img/117/4/2/bw/001.png","","","complex"
"","","","","","animation","52","435091","0.0-52.0","1920x1080","","5622.800000011921","50.66","img/238/4/2/bw/001.png","","","complex"
"","","","","","animation","53","438035","0.0-53.0","1920x1080","","2943.5","35","img/314/4.5/2/bw/001.png","","","complex"
"","","","","","animation","54","440283","0.0-54.0","1920x1080","","2247.100000023842","58.99","img/117/3.5/0.66667/bw/001.png","","","complex"
"","","","","","animation","55","442883","0.0-55.0","1920x1080","","2599","84.92","img/314/2.5/2/bw/001.png","","","complex"
"","","","","","animation","56","449357","0.0-56.0","1920x1080","","6472.5999999940395","2","img/238/5.5/2/bw/001.png","","","complex"
"","","","","","animation","57","457979","0.0-57.0","1920x1080","","8620.59999999404","48.94","img/117/4/1.5/bw/001.png","","","complex"
"","","","","","animation","58","465667","0.0-58.0","1920x1080","","7687.5","60.85","img/117/4.5/0.5/bw/001.png","","","complex"
"","","","","","animation","59","475323","0.0-59.0","1920x1080","","9655.399999976158","27.51","img/314/5.5/0.5/bw/001.png","","","complex"
"","","","","","animation","60","477627","0.0-60.0","1920x1080","","2302.300000011921","88.89","img/314/2.5/0.66667/bw/001.png","","","complex"
"","","","","","animation","61","481059","0.0-61.0","1920x1080","","3431.0999999940395","73.94","img/314/3.5/1/bw/001.png","","","complex"
"","","","","","animation","62","484275","0.0-62.0","1920x1080","","3215.2000000178814","26.19","img/314/5.5/1.5/bw/001.png","","","complex"
"","","","","","animation","63","487427","0.0-63.0","1920x1080","","3151.199999988079","9.66","img/238/5.5/0.66667/bw/001.png","","","complex"
"","","","","","animation","64","490331","0.0-64.0","1920x1080","","2903.2999999821186","74.74","img/117/3.5/2/bw/001.png","","","complex"
"","","","","","animation","65","495195","0.0-65.0","1920x1080","","4862.700000017881","60.32","img/117/4/0.66667/bw/001.png","","","complex"
"","","","","","animation","66","498411","0.0-66.0","1920x1080","","3215.0999999940395","84.66","img/238/2.5/1.5/bw/001.png","","","complex"
"","","","","","animation","67","502006","0.0-67.0","1920x1080","","3594.199999988079","22.88","img/238/4.5/0.5/bw/001.png","","","complex"
"","","","","","animation","68","504747","0.0-68.0","1920x1080","","2740.300000011921","82.01","img/117/2.5/0.5/bw/001.png","","","complex"
"","","","","","animation","69","507074","0.0-69.0","1920x1080","","2326.600000023842","52.25","img/314/4.5/1/bw/001.png","","","complex"
"","","","","","animation","70","509956","0.0-70.0","1920x1080","","2881.199999988079","47","img/314/4/1.5/bw/001.png","","","complex"
"","","","","","animation","71","513179","0.0-71.0","1920x1080","","3221.4000000059605","59.39","img/314/3.5/2/bw/001.png","","","complex"
"","","","","","animation","72","515540","0.0-72.0","1920x1080","","2360.5999999940395","73.15","img/238/2.5/1/bw/001.png","","","complex"
"","","","","","animation","73","518459","0.0-73.0","1920x1080","","2917.4000000059605","21.96","img/238/5.5/1/bw/001.png","","","complex"
"","","","","","animation","74","520891","0.0-74.0","1920x1080","","2430.699999988079","90.74","img/314/2.5/1/bw/001.png","","","complex"
"","","","","","animation","75","523341","0.0-75.0","1920x1080","","2448.800000011921","75.93","img/314/3.5/0.66667/bw/001.png","","","complex"
"","","","","","animation","76","527635","0.0-76.0","1920x1080","","4293.5","76.85","img/238/3.5/0.66667/bw/001.png","","","complex"
"","","","","","animation","77","529939","0.0-77.0","1920x1080","","2303.2999999821186","21.43","img/238/5.5/1.5/bw/001.png","","","complex"
"","","","","","animation","78","537851","0.0-78.0","1920x1080","","7910.800000011921","54.23","img/314/4.5/0.5/bw/001.png","","","complex"
"","","","","","animation","79","539779","0.0-79.0","1920x1080","","1926.7999999821186","44","img/117/4.5/2/bw/001.png","","","complex"
"","","","","","animation","80","542027","0.0-80.0","1920x1080","","2247.399999976158","63.36","img/117/4/0.5/bw/001.png","","","complex"
"","","","","","animation","81","545315","0.0-81.0","1920x1080","","3287.4000000059605","21.30","img/238/5.5/0.5/bw/001.png","","","complex"
"","","","","","html-button-response","82","565036","0.0-82.0","1920x1080","","19719.20000001788","","<div class=""intro"">You are about to view a new series of animations.<br><br></div><div class=""intro"">You will evaluate them based on a different descriptor.<br><br></div><div class=""intro"">Move the slider to indicate how <strong style=""text-transform:capitalize"">INTERESTING</strong> you find each animation.<br><br></div><div class=""intro"">0 = Least Interesting<br></div><div class=""intro"">1 = Most Interesting<br><br></div><div class=""intro"">Remember to use the <strong><em>entire range</em></strong> of the slider to make your ratings.<br></div><div class=""intro"">Please <strong><em>take your time</em></strong> and carefully consider each rating you make.<br><br></div>","0","",""
"","","","","","call-function","83","565037","0.0-83.0","1920x1080","","","","","","",""
"","","","","","animation","84","586011","0.0-84.0","1920x1080","","20973.29999998212","5.42","img/117/2.5/0.5/bw/001.png","","","interesting"
"","","","","","animation","85","593290","0.0-85.0","1920x1080","","7278.700000017881","39.81","img/238/4/1/bw/001.png","","","interesting"
"","","","","","animation","86","599531","0.0-86.0","1920x1080","","6239.299999982119","13.62","img/117/2.5/2/bw/001.png","","","interesting"
"","","","","","animation","87","604242","0.0-87.0","1920x1080","","4710.800000011921","26.06","img/314/2.5/0.5/bw/001.png","","","interesting"
"","","","","","animation","88","610706","0.0-88.0","1920x1080","","6462.9000000059605","48.15","img/238/4/1.5/bw/001.png","","","interesting"
"","","","","","animation","89","617323","0.0-89.0","1920x1080","","6616.300000011921","64.55","img/314/5.5/0.66667/bw/001.png","","","interesting"
"","","","","","animation","90","622979","0.0-90.0","1920x1080","","5654.0999999940395","76.59","img/238/5.5/0.5/bw/001.png","","","interesting"
"","","","","","animation","91","628283","0.0-91.0","1920x1080","","5302.699999988079","83.33","img/117/5.5/2/bw/001.png","","","interesting"
"","","","","","animation","92","638283","0.0-92.0","1920x1080","","9998.699999988079","63.23","img/117/4/0.66667/bw/001.png","","","interesting"
"","","","","","animation","93","644422","0.0-93.0","1920x1080","","6138.0999999940395","67.99","img/238/5.5/2/bw/001.png","","","interesting"
"","","","","","animation","94","652413","0.0-94.0","1920x1080","","7988.199999988079","54.10","img/117/4.5/0.66667/bw/001.png","","","interesting"
"","","","","","animation","95","656825","0.0-95.0","1920x1080","","4411.4000000059605","78","img/238/5.5/1/bw/001.png","","","interesting"
"","","","","","animation","96","658991","0.0-96.0","1920x1080","","2165.199999988079","81","img/314/5.5/2/bw/001.png","","","interesting"
"","","","","","animation","97","662640","0.0-97.0","1920x1080","","3647.9000000059605","50.00","img/238/4.5/2/bw/001.png","","","interesting"
"","","","","","animation","98","666412","0.0-98.0","1920x1080","","3771.7000000178814","56.88","img/117/5.5/1.5/bw/001.png","","","interesting"
"","","","","","animation","99","670940","0.0-99.0","1920x1080","","4526.199999988079","26.72","img/314/2.5/2/bw/001.png","","","interesting"
"","","","","","animation","100","676429","0.0-100.0","1920x1080","","5487.5","57.67","img/117/4/2/bw/001.png","","","interesting"
"","","","","","animation","101","680692","0.0-101.0","1920x1080","","4262.800000011921","54.10","img/117/4.5/1/bw/001.png","","","interesting"
"","","","","","animation","102","683823","0.0-102.0","1920x1080","","3130.2000000178814","33.86","img/238/2.5/0.66667/bw/001.png","","","interesting"
"","","","","","animation","103","686244","0.0-103.0","1920x1080","","2420.4000000059605","57.01","img/314/4.5/0.5/bw/001.png","","","interesting"
"","","","","","animation","104","688641","0.0-104.0","1920x1080","","2395.4000000059605","57.01","img/314/4.5/0.66667/bw/001.png","","","interesting"
"","","","","","animation","105","691624","0.0-105.0","1920x1080","","2982.199999988079","15.61","img/314/2.5/1/bw/001.png","","","interesting"
"","","","","","animation","106","694158","0.0-106.0","1920x1080","","2533.0999999940395","56.61","img/314/4/1/bw/001.png","","","interesting"
"","","","","","animation","107","696812","0.0-107.0","1920x1080","","2653.5","67.33","img/238/5.5/1.5/bw/001.png","","","interesting"
"","","","","","animation","108","699644","0.0-108.0","1920x1080","","2830.5999999940395","74.21","img/117/5.5/1/bw/001.png","","","interesting"
"","","","","","animation","109","702117","0.0-109.0","1920x1080","","2470.9000000059605","40.34","img/314/3.5/1/bw/001.png","","","interesting"
"","","","","","animation","110","706607","0.0-110.0","1920x1080","","4489.4000000059605","51.72","img/117/4/1/bw/001.png","","","interesting"
"","","","","","animation","111","709997","0.0-111.0","1920x1080","","3389","12.57","img/238/2.5/0.5/bw/001.png","","","interesting"
"","","","","","animation","112","714224","0.0-112.0","1920x1080","","4226.100000023842","50","img/117/3.5/1.5/bw/001.png","","","interesting"
"","","","","","animation","113","718445","0.0-113.0","1920x1080","","4220","37.83","img/238/2.5/1/bw/001.png","","","interesting"
"","","","","","animation","114","722276","0.0-114.0","1920x1080","","3830.7000000178814","69.18","img/117/4.5/2/bw/001.png","","","interesting"
"","","","","","animation","115","725765","0.0-115.0","1920x1080","","3487.7000000178814","26.06","img/117/2.5/1/bw/001.png","","","interesting"
"","","","","","animation","116","729701","0.0-116.0","1920x1080","","3934.899999976158","54","img/314/4/0.66667/bw/001.png","","","interesting"
"","","","","","animation","117","732157","0.0-117.0","1920x1080","","2455.300000011921","54.63","img/238/4.5/0.5/bw/001.png","","","interesting"
"","","","","","animation","118","736061","0.0-118.0","1920x1080","","3902.600000023842","66.67","img/117/5.5/0.66667/bw/001.png","","","interesting"
"","","","","","animation","119","775425","0.0-119.0","1920x1080","","39362.30000001192","51.98","img/238/4.5/0.66667/bw/001.png","","","interesting"
"","","","","","animation","120","782878","0.0-120.0","1920x1080","","7452","46.30","img/117/3.5/2/bw/001.png","","","interesting"
"","","","","","animation","121","815446","0.0-121.0","1920x1080","","32567.40000000596","40.34","img/314/4/1.5/bw/001.png","","","interesting"
"","","","","","animation","122","818350","0.0-122.0","1920x1080","","2903","25","img/314/2.5/1.5/bw/001.png","","","interesting"
"","","","","","animation","123","821046","0.0-123.0","1920x1080","","2695","13","img/314/2.5/0.66667/bw/001.png","","","interesting"
"","","","","","animation","124","823642","0.0-124.0","1920x1080","","2595.300000011921","29.76","img/314/3.5/0.66667/bw/001.png","","","interesting"
"","","","","","animation","125","830927","0.0-125.0","1920x1080","","7282.799999982119","60.85","img/314/5.5/0.5/bw/001.png","","","interesting"
"","","","","","animation","126","833903","0.0-126.0","1920x1080","","2974.9000000059605","51.85","img/117/4.5/0.5/bw/001.png","","","interesting"
"","","","","","animation","127","836809","0.0-127.0","1920x1080","","2905.4000000059605","28.97","img/117/2.5/1.5/bw/001.png","","","interesting"
"","","","","","animation","128","839743","0.0-128.0","1920x1080","","2932.199999988079","53.84","img/314/4.5/1.5/bw/001.png","","","interesting"
"","","","","","animation","129","842479","0.0-129.0","1920x1080","","2735.300000011921","39","img/238/3.5/0.5/bw/001.png","","","interesting"
"","","","","","animation","130","845679","0.0-130.0","1920x1080","","3199.0999999940395","71","img/314/5.5/1/bw/001.png","","","interesting"
"","","","","","animation","131","850703","0.0-131.0","1920x1080","","5023.4000000059605","18","img/117/2.5/0.66667/bw/001.png","","","interesting"
"","","","","","animation","132","854703","0.0-132.0","1920x1080","","3999","6.08","img/238/2.5/1.5/bw/001.png","","","interesting"
"","","","","","animation","133","858793","0.0-133.0","1920x1080","","4088.699999988079","28","img/117/4/0.5/bw/001.png","","","interesting"
"","","","","","animation","134","862415","0.0-134.0","1920x1080","","3621.4000000059605","40.61","img/117/3.5/0.5/bw/001.png","","","interesting"
"","","","","","animation","135","865476","0.0-135.0","1920x1080","","3059.4000000059605","24","img/238/3.5/0.66667/bw/001.png","","","interesting"
"","","","","","animation","136","879983","0.0-136.0","1920x1080","","14506.200000017881","20.24","img/314/4.5/2/bw/001.png","","","interesting"
"","","","","","animation","137","883059","0.0-137.0","1920x1080","","3075.5","75","img/314/5.5/1.5/bw/001.png","","","interesting"
"","","","","","animation","138","886167","0.0-138.0","1920x1080","","3106.5999999940395","40.61","img/238/3.5/1.5/bw/001.png","","","interesting"
"","","","","","animation","139","889848","0.0-139.0","1920x1080","","3678.9000000059605","60.85","img/238/4.5/1/bw/001.png","","","interesting"
"","","","","","animation","140","892704","0.0-140.0","1920x1080","","2855.2999999821186","33.47","img/314/4.5/1/bw/001.png","","","interesting"
"","","","","","animation","141","897810","0.0-141.0","1920x1080","","5104.9000000059605","33.86","img/117/4.5/1.5/bw/001.png","","","interesting"
"","","","","","animation","142","902880","0.0-142.0","1920x1080","","5069","42","img/238/4/0.66667/bw/001.png","","","interesting"
"","","","","","animation","143","905536","0.0-143.0","1920x1080","","2655.4000000059605","30.42","img/314/4/0.5/bw/001.png","","","interesting"
"","","","","","animation","144","907810","0.0-144.0","1920x1080","","2273.5","32.41","img/314/3.5/0.5/bw/001.png","","","interesting"
"","","","","","animation","145","910010","0.0-145.0","1920x1080","","2199.0999999940395","41.93","img/314/4/2/bw/001.png","","","interesting"
"","","","","","animation","146","912360","0.0-146.0","1920x1080","","2348.5999999940395","43.52","img/117/3.5/1/bw/001.png","","","interesting"
"","","","","","animation","147","914904","0.0-147.0","1920x1080","","2543.0999999940395","34","img/117/3.5/0.66667/bw/001.png","","","interesting"
"","","","","","animation","148","917200","0.0-148.0","1920x1080","","2294.9000000059605","36","img/238/3.5/2/bw/001.png","","","interesting"
"","","","","","animation","149","920448","0.0-149.0","1920x1080","","3246.7999999821186","59.79","img/238/4.5/1.5/bw/001.png","","","interesting"
"","","","","","animation","150","922777","0.0-150.0","1920x1080","","2327.5999999940395","72.49","img/117/5.5/0.5/bw/001.png","","","interesting"
"","","","","","animation","151","925044","0.0-151.0","1920x1080","","2265.699999988079","48.68","img/314/3.5/1.5/bw/001.png","","","interesting"
"","","","","","animation","152","927660","0.0-152.0","1920x1080","","2615.7000000178814","48.68","img/314/3.5/2/bw/001.png","","","interesting"
"","","","","","animation","153","929848","0.0-153.0","1920x1080","","2186.9000000059605","46.43","img/117/4/1.5/bw/001.png","","","interesting"
"","","","","","animation","154","932664","0.0-154.0","1920x1080","","2815.0999999940395","74","img/238/5.5/0.66667/bw/001.png","","","interesting"
"","","","","","animation","155","935584","0.0-155.0","1920x1080","","2919","65.08","img/238/4/2/bw/001.png","","","interesting"
"","","","","","animation","156","937848","0.0-156.0","1920x1080","","2262.5999999940395","42.72","img/238/4/0.5/bw/001.png","","","interesting"
"","","","","","animation","157","940393","0.0-157.0","1920x1080","","2544.7999999821186","47","img/238/3.5/1/bw/001.png","","","interesting"
"","","","","","animation","158","944643","0.0-158.0","1920x1080","","4249.0999999940395","16","img/238/2.5/2/bw/001.png","","","interesting"
"","","","","","html-button-response","159","991601","0.0-159.0","1920x1080","","46955.69999998808","","<div class=""intro"">You are about to view a new series of animations.<br><br></div><div class=""intro"">You will evaluate them based on a different descriptor.<br><br></div><div class=""intro"">Move the slider to indicate how <strong style=""text-transform:capitalize"">NATURAL</strong> you find each animation.<br><br></div><div class=""intro"">0 = Least Natural<br></div><div class=""intro"">1 = Most Natural<br><br></div><div class=""intro"">Remember to use the <strong><em>entire range</em></strong> of the slider to make your ratings.<br></div><div class=""intro"">Please <strong><em>take your time</em></strong> and carefully consider each rating you make.<br><br></div>","0","",""
"","","","","","call-function","160","991605","0.0-160.0","1920x1080","","","","","","",""
"","","","","","animation","161","1004877","0.0-161.0","1920x1080","","13270.5","61.24","img/314/3.5/2/bw/001.png","","","natural"
"","","","","","animation","162","1013611","0.0-162.0","1920x1080","","8732.799999982119","87.30","img/314/5.5/0.5/bw/001.png","","","natural"
"","","","","","animation","163","1019794","0.0-163.0","1920x1080","","6180.300000011921","81","img/117/5.5/1/bw/001.png","","","natural"
"","","","","","animation","164","1039694","0.0-164.0","1920x1080","","19899.40000000596","52.51","img/314/4.5/2/bw/001.png","","","natural"
"","","","","","animation","165","1045111","0.0-165.0","1920x1080","","5415.199999988079","33","img/238/4/1/bw/001.png","","","natural"
"","","","","","animation","166","1053217","0.0-166.0","1920x1080","","8105.5","26","img/238/4/1.5/bw/001.png","","","natural"
"","","","","","animation","167","1062017","0.0-167.0","1920x1080","","8798.799999982119","69","img/314/4/2/bw/001.png","","","natural"
"","","","","","animation","168","1069153","0.0-168.0","1920x1080","","7135.199999988079","55.56","img/117/5.5/0.5/bw/001.png","","","natural"
"","","","","","animation","169","1076145","0.0-169.0","1920x1080","","6990.299999982119","12.17","img/314/2.5/1.5/bw/001.png","","","natural"
"","","","","","animation","170","1092261","0.0-170.0","1920x1080","","16114.5","2","img/314/2.5/0.66667/bw/001.png","","","natural"
"","","","","","animation","171","1097321","0.0-171.0","1920x1080","","5058.200000017881","88","img/314/5.5/0.66667/bw/001.png","","","natural"
"","","","","","animation","172","1100801","0.0-172.0","1920x1080","","3478.5999999940395","31","img/117/4/2/bw/001.png","","","natural"
"","","","","","animation","173","1104677","0.0-173.0","1920x1080","","3874.0999999940395","19.44","img/314/3.5/1/bw/001.png","","","natural"
"","","","","","animation","174","1110529","0.0-174.0","1920x1080","","5850.299999982119","84","img/314/5.5/1.5/bw/001.png","","","natural"
"","","","","","animation","175","1122337","0.0-175.0","1920x1080","","11807.40000000596","59.52","img/238/5.5/1/bw/001.png","","","natural"
"","","","","","animation","176","1134081","0.0-176.0","1920x1080","","11742","60","img/314/5.5/1/bw/001.png","","","natural"
"","","","","","animation","177","1139354","0.0-177.0","1920x1080","","5270.5999999940395","25.26","img/117/3.5/2/bw/001.png","","","natural"
"","","","","","animation","178","1142297","0.0-178.0","1920x1080","","2942.2999999821186","23.28","img/238/4.5/0.66667/bw/001.png","","","natural"
"","","","","","animation","179","1146185","0.0-179.0","1920x1080","","3886.7999999821186","24.60","img/238/3.5/2/bw/001.png","","","natural"
"","","","","","animation","180","1149370","0.0-180.0","1920x1080","","3183.0999999940395","10.45","img/117/3.5/0.5/bw/001.png","","","natural"
"","","","","","animation","181","1152170","0.0-181.0","1920x1080","","2798.7999999821186","3.97","img/117/2.5/1.5/bw/001.png","","","natural"
"","","","","","animation","182","1157850","0.0-182.0","1920x1080","","5678.699999988079","19.84","img/117/4.5/0.66667/bw/001.png","","","natural"
"","","","","","animation","183","1251347","0.0-183.0","1920x1080","","93495.09999999404","66","img/238/5.5/0.66667/bw/001.png","","","natural"
"","","","","","animation","184","1254051","0.0-184.0","1920x1080","","2701.9000000059605","33.33","img/314/4.5/1.5/bw/001.png","","","natural"
"","","","","","animation","185","1257366","0.0-185.0","1920x1080","","3314.5","20.11","img/314/4/1.5/bw/001.png","","","natural"
"","","","","","animation","186","1260311","0.0-186.0","1920x1080","","2943.800000011921","9.26","img/314/4/0.5/bw/001.png","","","natural"
"","","","","","animation","187","1262628","0.0-187.0","1920x1080","","2315.7999999821186","11.24","img/238/2.5/1/bw/001.png","","","natural"
"","","","","","animation","188","1264955","0.0-188.0","1920x1080","","2325.699999988079","12","img/117/3.5/0.66667/bw/001.png","","","natural"
"","","","","","animation","189","1269483","0.0-189.0","1920x1080","","4526.300000011921","69.18","img/238/5.5/2/bw/001.png","","","natural"
"","","","","","animation","190","1272562","0.0-190.0","1920x1080","","3078.5","37","img/117/4.5/0.5/bw/001.png","","","natural"
"","","","","","animation","191","1275787","0.0-191.0","1920x1080","","3223.0999999940395","30.82","img/238/4/0.5/bw/001.png","","","natural"
"","","","","","animation","192","1284763","0.0-192.0","1920x1080","","8974.5","52.78","img/117/4.5/2/bw/001.png","","","natural"
"","","","","","animation","193","1300587","0.0-193.0","1920x1080","","15823.09999999404","69","img/117/5.5/1.5/bw/001.png","","","natural"
"","","","","","animation","194","1303612","0.0-194.0","1920x1080","","3023.600000023842","31.61","img/238/3.5/1.5/bw/001.png","","","natural"
"","","","","","animation","195","1306099","0.0-195.0","1920x1080","","2485.7999999821186","8.73","img/314/2.5/1/bw/001.png","","","natural"
"","","","","","animation","196","1309115","0.0-196.0","1920x1080","","3015","9.26","img/238/2.5/1.5/bw/001.png","","","natural"
"","","","","","animation","197","1312603","0.0-197.0","1920x1080","","3486.9000000059605","3.84","img/314/2.5/0.5/bw/001.png","","","natural"
"","","","","","animation","198","1336235","0.0-198.0","1920x1080","","23630.5","45.11","img/238/4/2/bw/001.png","","","natural"
"","","","","","animation","199","1343987","0.0-199.0","1920x1080","","7750.800000011921","24.21","img/314/4.5/1/bw/001.png","","","natural"
"","","","","","animation","200","1346879","0.0-200.0","1920x1080","","2890.5","17.59","img/238/2.5/2/bw/001.png","","","natural"
"","","","","","animation","201","1349147","0.0-201.0","1920x1080","","2267.0999999940395","24.34","img/117/4.5/1/bw/001.png","","","natural"
"","","","","","animation","202","1352045","0.0-202.0","1920x1080","","2897.4000000059605","17.59","img/117/3.5/1/bw/001.png","","","natural"
"","","","","","animation","203","1354703","0.0-203.0","1920x1080","","2656.5","14.81","img/117/4/0.5/bw/001.png","","","natural"
"","","","","","animation","204","1357115","0.0-204.0","1920x1080","","2410.399999976158","22.75","img/117/4/1/bw/001.png","","","natural"
"","","","","","animation","205","1360163","0.0-205.0","1920x1080","","3047.2000000178814","25.53","img/238/4.5/2/bw/001.png","","","natural"
"","","","","","animation","206","1363267","0.0-206.0","1920x1080","","3102.800000011921","3","img/238/2.5/0.5/bw/001.png","","","natural"
"","","","","","animation","207","1367987","0.0-207.0","1920x1080","","4718.799999982119","75.26","img/238/5.5/1.5/bw/001.png","","","natural"
"","","","","","animation","208","1370635","0.0-208.0","1920x1080","","2646.5","89.81","img/314/5.5/2/bw/001.png","","","natural"
"","","","","","animation","209","1373445","0.0-209.0","1920x1080","","2808.899999976158","20.11","img/238/3.5/0.66667/bw/001.png","","","natural"
"","","","","","animation","210","1376035","0.0-210.0","1920x1080","","2588.699999988079","13.76","img/314/4/1/bw/001.png","","","natural"
"","","","","","animation","211","1379387","0.0-211.0","1920x1080","","3350.9000000059605","10","img/314/4/0.66667/bw/001.png","","","natural"
"","","","","","animation","212","1382946","0.0-212.0","1920x1080","","3557.4000000059605","14.55","img/238/4.5/0.5/bw/001.png","","","natural"
"","","","","","animation","213","1385161","0.0-213.0","1920x1080","","2213.4000000059605","15.08","img/314/4.5/0.5/bw/001.png","","","natural"
"","","","","","animation","214","1391645","0.0-214.0","1920x1080","","6482.4000000059605","53","img/238/4.5/1/bw/001.png","","","natural"
"","","","","","animation","215","1394095","0.0-215.0","1920x1080","","2448.9000000059605","8.99","img/117/2.5/1/bw/001.png","","","natural"
"","","","","","animation","216","1399611","0.0-216.0","1920x1080","","5515.5999999940395","35","img/238/4.5/1.5/bw/001.png","","","natural"
"","","","","","animation","217","1406118","0.0-217.0","1920x1080","","6505.4000000059605","69.71","img/117/5.5/2/bw/001.png","","","natural"
"","","","","","animation","218","1479464","0.0-218.0","1920x1080","","73343.29999998212","25.13","img/314/3.5/0.5/bw/001.png","","","natural"
"","","","","","animation","219","1484235","0.0-219.0","1920x1080","","4770.4000000059605","15.08","img/117/2.5/2/bw/001.png","","","natural"
"","","","","","animation","220","1487435","0.0-220.0","1920x1080","","3198.800000011921","34.66","img/314/4.5/0.66667/bw/001.png","","","natural"
"","","","","","animation","221","1494561","0.0-221.0","1920x1080","","7124.399999976158","50","img/117/4/1.5/bw/001.png","","","natural"
"","","","","","animation","222","1497429","0.0-222.0","1920x1080","","2866","38.23","img/238/3.5/1/bw/001.png","","","natural"
"","","","","","animation","223","1499795","0.0-223.0","1920x1080","","2365.2000000178814","19.71","img/314/2.5/2/bw/001.png","","","natural"
"","","","","","animation","224","1502095","0.0-224.0","1920x1080","","2299.0999999940395","14.81","img/117/3.5/1.5/bw/001.png","","","natural"
"","","","","","animation","225","1504763","0.0-225.0","1920x1080","","2666.7999999821186","59.79","img/117/5.5/0.66667/bw/001.png","","","natural"
"","","","","","animation","226","1506845","0.0-226.0","1920x1080","","2080.199999988079","46.69","img/238/4/0.66667/bw/001.png","","","natural"
"","","","","","animation","227","1508963","0.0-227.0","1920x1080","","2116.9000000059605","42.33","img/117/4/0.66667/bw/001.png","","","natural"
"","","","","","animation","228","1511068","0.0-228.0","1920x1080","","2103.4000000059605","34.79","img/314/3.5/1.5/bw/001.png","","","natural"
"","","","","","animation","229","1513420","0.0-229.0","1920x1080","","2351","18.92","img/117/2.5/0.5/bw/001.png","","","natural"
"","","","","","animation","230","1515563","0.0-230.0","1920x1080","","2141.7000000178814","16.40","img/238/2.5/0.66667/bw/001.png","","","natural"
"","","","","","animation","231","1517654","0.0-231.0","1920x1080","","2090.300000011921","10.98","img/117/2.5/0.66667/bw/001.png","","","natural"
"","","","","","animation","232","1521595","0.0-232.0","1920x1080","","3939.0999999940395","41.67","img/117/4.5/1.5/bw/001.png","","","natural"
"","","","","","animation","233","1537862","0.0-233.0","1920x1080","","16265","70","img/238/5.5/0.5/bw/001.png","","","natural"
"","","","","","animation","234","1544467","0.0-234.0","1920x1080","","6603.700000017881","23.41","img/314/3.5/0.66667/bw/001.png","","","natural"
"","","","","","animation","235","1553212","0.0-235.0","1920x1080","","8744","35.32","img/238/3.5/0.5/bw/001.png","","","natural"
"","","","","","html-button-response","236","1571815","0.0-236.0","1920x1080","","18600.399999976158","","<div class=""intro"">You are about to view a new series of animations.<br><br></div><div class=""intro"">You will evaluate them based on a different descriptor.<br><br></div><div class=""intro"">Move the slider to indicate how <strong style=""text-transform:capitalize"">APPEALING</strong> you find each animation.<br><br></div><div class=""intro"">0 = Least Appealing<br></div><div class=""intro"">1 = Most Appealing<br><br></div><div class=""intro"">Remember to use the <strong><em>entire range</em></strong> of the slider to make your ratings.<br></div><div class=""intro"">Please <strong><em>take your time</em></strong> and carefully consider each rating you make.<br><br></div>","0","",""
"","","","","","call-function","237","1571815","0.0-237.0","1920x1080","","","","","","",""
"","","","","","animation","238","1577345","0.0-238.0","1920x1080","","5529.5","17.20","img/314/3.5/0.5/bw/001.png","","","appealing"
"","","","","","animation","239","1580236","0.0-239.0","1920x1080","","2889.4000000059605","7.94","img/238/2.5/1/bw/001.png","","","appealing"
"","","","","","animation","240","1583428","0.0-240.0","1920x1080","","3191.399999976158","71.96","img/117/5.5/1/bw/001.png","","","appealing"
"","","","","","animation","241","1585636","0.0-241.0","1920x1080","","2206","46.16","img/117/4.5/0.66667/bw/001.png","","","appealing"
"","","","","","animation","242","1587811","0.0-242.0","1920x1080","","2174.800000011921","34.52","img/238/3.5/0.66667/bw/001.png","","","appealing"
"","","","","","animation","243","1591252","0.0-243.0","1920x1080","","3439.199999988079","38.10","img/117/4.5/1/bw/001.png","","","appealing"
"","","","","","animation","244","1594446","0.0-244.0","1920x1080","","3192.7999999821186","80.42","img/238/5.5/0.5/bw/001.png","","","appealing"
"","","","","","animation","245","1596731","0.0-245.0","1920x1080","","2284.4000000059605","32.54","img/117/4/1/bw/001.png","","","appealing"
"","","","","","animation","246","1600212","0.0-246.0","1920x1080","","3479.199999988079","9.13","img/117/2.5/0.5/bw/001.png","","","appealing"
"","","","","","animation","247","1604900","0.0-247.0","1920x1080","","4687.0999999940395","55.16","img/314/4.5/1/bw/001.png","","","appealing"
"","","","","","animation","248","1607013","0.0-248.0","1920x1080","","2110.9000000059605","52.12","img/314/4/1.5/bw/001.png","","","appealing"
"","","","","","animation","249","1640699","0.0-249.0","1920x1080","","33686.09999999404","39","img/314/4/0.66667/bw/001.png","","","appealing"
"","","","","","animation","250","1643295","0.0-250.0","1920x1080","","2593.5999999940395","54.23","img/314/4.5/0.66667/bw/001.png","","","appealing"
"","","","","","animation","251","1645795","0.0-251.0","1920x1080","","2498.5999999940395","35.58","img/238/3.5/1.5/bw/001.png","","","appealing"
"","","","","","animation","252","1650211","0.0-252.0","1920x1080","","4415.199999988079","77","img/314/5.5/0.5/bw/001.png","","","appealing"
"","","","","","animation","253","1653267","0.0-253.0","1920x1080","","3054.800000011921","60","img/314/4.5/0.5/bw/001.png","","","appealing"
"","","","","","animation","254","1657883","0.0-254.0","1920x1080","","4614.200000017881","50.66","img/238/4/0.66667/bw/001.png","","","appealing"
"","","","","","animation","255","1662436","0.0-255.0","1920x1080","","4551.4000000059605","4.50","img/238/2.5/2/bw/001.png","","","appealing"
"","","","","","animation","256","1667428","0.0-256.0","1920x1080","","4990.199999988079","72","img/314/5.5/2/bw/001.png","","","appealing"
"","","","","","animation","257","1670561","0.0-257.0","1920x1080","","3131","9.92","img/314/2.5/1/bw/001.png","","","appealing"
"","","","","","animation","258","1674012","0.0-258.0","1920x1080","","3450","17.33","img/117/3.5/1.5/bw/001.png","","","appealing"
"","","","","","animation","259","1677022","0.0-259.0","1920x1080","","3007.9000000059605","73.94","img/117/5.5/1.5/bw/001.png","","","appealing"
"","","","","","animation","260","1679635","0.0-260.0","1920x1080","","2611.5999999940395","8.20","img/238/2.5/0.66667/bw/001.png","","","appealing"
"","","","","","animation","261","1687965","0.0-261.0","1920x1080","","8329","53.04","img/238/4.5/1.5/bw/001.png","","","appealing"
"","","","","","animation","262","1699068","0.0-262.0","1920x1080","","11100.699999988079","80.29","img/238/5.5/1/bw/001.png","","","appealing"
"","","","","","animation","263","1714483","0.0-263.0","1920x1080","","15412.90000000596","76.32","img/238/5.5/2/bw/001.png","","","appealing"
"","","","","","animation","264","1717345","0.0-264.0","1920x1080","","2859.7000000178814","43.65","img/314/3.5/1/bw/001.png","","","appealing"
"","","","","","animation","265","1719365","0.0-265.0","1920x1080","","2019.5999999940395","32.94","img/117/3.5/1/bw/001.png","","","appealing"
"","","","","","animation","266","1722628","0.0-266.0","1920x1080","","3261","40.61","img/314/4.5/1.5/bw/001.png","","","appealing"
"","","","","","animation","267","1725164","0.0-267.0","1920x1080","","2534.9000000059605","15.08","img/117/2.5/0.66667/bw/001.png","","","appealing"
"","","","","","animation","268","1728533","0.0-268.0","1920x1080","","3366.5","12.04","img/314/2.5/1.5/bw/001.png","","","appealing"
"","","","","","animation","269","1731253","0.0-269.0","1920x1080","","2719","24.34","img/314/3.5/1.5/bw/001.png","","","appealing"
"","","","","","animation","270","1734106","0.0-270.0","1920x1080","","2850.800000011921","17.20","img/117/4/2/bw/001.png","","","appealing"
"","","","","","animation","271","1736517","0.0-271.0","1920x1080","","2410","28.84","img/314/3.5/0.66667/bw/001.png","","","appealing"
"","","","","","animation","272","1739453","0.0-272.0","1920x1080","","2934.0999999940395","36.38","img/238/3.5/2/bw/001.png","","","appealing"
"","","","","","animation","273","1751853","0.0-273.0","1920x1080","","12398.200000017881","46.56","img/314/4/2/bw/001.png","","","appealing"
"","","","","","animation","274","1755197","0.0-274.0","1920x1080","","3342.300000011921","14.95","img/117/2.5/1.5/bw/001.png","","","appealing"
"","","","","","animation","275","1759502","0.0-275.0","1920x1080","","4302.300000011921","32.41","img/314/4/1/bw/001.png","","","appealing"
"","","","","","animation","276","1766246","0.0-276.0","1920x1080","","6742.300000011921","38","img/238/4/1.5/bw/001.png","","","appealing"
"","","","","","animation","277","1768580","0.0-277.0","1920x1080","","2332.199999988079","42.72","img/238/3.5/1/bw/001.png","","","appealing"
"","","","","","animation","278","1772185","0.0-278.0","1920x1080","","3604.399999976158","65.48","img/117/5.5/0.5/bw/001.png","","","appealing"
"","","","","","animation","279","1776853","0.0-279.0","1920x1080","","4666","54.50","img/117/4.5/0.5/bw/001.png","","","appealing"
"","","","","","animation","280","1779317","0.0-280.0","1920x1080","","2462","5","img/314/2.5/0.5/bw/001.png","","","appealing"
"","","","","","animation","281","1781685","0.0-281.0","1920x1080","","2367.4000000059605","3.84","img/117/2.5/1/bw/001.png","","","appealing"
"","","","","","animation","282","1786880","0.0-282.0","1920x1080","","5192.799999982119","70.37","img/314/5.5/1.5/bw/001.png","","","appealing"
"","","","","","animation","283","1789580","0.0-283.0","1920x1080","","2698","60.98","img/314/4/0.5/bw/001.png","","","appealing"
"","","","","","animation","284","1793163","0.0-284.0","1920x1080","","3582","17.99","img/117/2.5/2/bw/001.png","","","appealing"
"","","","","","animation","285","1795565","0.0-285.0","1920x1080","","2400.5","28.31","img/314/3.5/2/bw/001.png","","","appealing"
"","","","","","animation","286","1797837","0.0-286.0","1920x1080","","2270.5999999940395","24.34","img/238/2.5/0.5/bw/001.png","","","appealing"
"","","","","","animation","287","1801967","0.0-287.0","1920x1080","","4128.0999999940395","71.83","img/117/5.5/2/bw/001.png","","","appealing"
"","","","","","animation","288","1804446","0.0-288.0","1920x1080","","2477.800000011921","63.10","img/238/4.5/0.66667/bw/001.png","","","appealing"
"","","","","","animation","289","1806815","0.0-289.0","1920x1080","","2367.5","26.59","img/314/2.5/2/bw/001.png","","","appealing"
"","","","","","animation","290","1808918","0.0-290.0","1920x1080","","2101","32.41","img/238/4.5/0.5/bw/001.png","","","appealing"
"","","","","","animation","291","1813438","0.0-291.0","1920x1080","","4518.800000011921","54.50","img/117/4/1.5/bw/001.png","","","appealing"
"","","","","","animation","292","1815470","0.0-292.0","1920x1080","","2030.1000000238419","51.46","img/117/4.5/1.5/bw/001.png","","","appealing"
"","","","","","animation","293","1817742","0.0-293.0","1920x1080","","2271.4000000059605","66.40","img/314/5.5/1/bw/001.png","","","appealing"
"","","","","","animation","294","1820197","0.0-294.0","1920x1080","","2451.0999999940395","56","img/238/4/0.5/bw/001.png","","","appealing"
"","","","","","animation","295","1825197","0.0-295.0","1920x1080","","4998.800000011921","75.40","img/238/5.5/0.66667/bw/001.png","","","appealing"
"","","","","","animation","296","1829237","0.0-296.0","1920x1080","","4038.5","12","img/238/2.5/1.5/bw/001.png","","","appealing"
"","","","","","animation","297","1832413","0.0-297.0","1920x1080","","3174.199999988079","48.02","img/117/4.5/2/bw/001.png","","","appealing"
"","","","","","animation","298","1835886","0.0-298.0","1920x1080","","3470.7999999821186","52.51","img/314/4.5/2/bw/001.png","","","appealing"
"","","","","","animation","299","1841252","0.0-299.0","1920x1080","","5365","76.85","img/238/5.5/1.5/bw/001.png","","","appealing"
"","","","","","animation","300","1846200","0.0-300.0","1920x1080","","4946.5999999940395","67.06","img/314/5.5/0.66667/bw/001.png","","","appealing"
"","","","","","animation","301","1849349","0.0-301.0","1920x1080","","3145.699999988079","17.33","img/314/2.5/0.66667/bw/001.png","","","appealing"
"","","","","","animation","302","1858224","0.0-302.0","1920x1080","","8872.90000000596","59.13","img/238/4.5/2/bw/001.png","","","appealing"
"","","","","","animation","303","1862032","0.0-303.0","1920x1080","","3807","44.84","img/117/3.5/2/bw/001.png","","","appealing"
"","","","","","animation","304","1922770","0.0-304.0","1920x1080","","60735.69999998808","63.23","img/117/5.5/0.66667/bw/001.png","","","appealing"
"","","","","","animation","305","1926120","0.0-305.0","1920x1080","","3348.9000000059605","29.76","img/238/3.5/0.5/bw/001.png","","","appealing"
"","","","","","animation","306","1929331","0.0-306.0","1920x1080","","3209.4000000059605","28.84","img/238/4.5/1/bw/001.png","","","appealing"
"","","","","","animation","307","1931752","0.0-307.0","1920x1080","","2419","34.13","img/117/4/0.66667/bw/001.png","","","appealing"
"","","","","","animation","308","1935648","0.0-308.0","1920x1080","","3893.699999988079","21.43","img/117/4/0.5/bw/001.png","","","appealing"
"","","","","","animation","309","1941214","0.0-309.0","1920x1080","","5565","35","img/117/3.5/0.66667/bw/001.png","","","appealing"
"","","","","","animation","310","1943664","0.0-310.0","1920x1080","","2447.5999999940395","43.52","img/238/4/1/bw/001.png","","","appealing"
"","","","","","animation","311","1948369","0.0-311.0","1920x1080","","4704.299999982119","27.25","img/117/3.5/0.5/bw/001.png","","","appealing"
"","","","","","animation","312","1957917","0.0-312.0","1920x1080","","9545.09999999404","48","img/238/4/2/bw/001.png","","","appealing"
"","","","","","html-button-response","313","1976903","0.0-313.0","1920x1080","","18979.69999998808","","<div class=""intro"">You are about to view a new series of animations.<br><br></div><div class=""intro"">You will evaluate them based on a different descriptor.<br><br></div><div class=""intro"">Move the slider to indicate how <strong style=""text-transform:capitalize"">RELAXING</strong> you find each animation.<br><br></div><div class=""intro"">0 = Least Relaxing<br></div><div class=""intro"">1 = Most Relaxing<br><br></div><div class=""intro"">Remember to use the <strong><em>entire range</em></strong> of the slider to make your ratings.<br></div><div class=""intro"">Please <strong><em>take your time</em></strong> and carefully consider each rating you make.<br><br></div>","0","",""
"","","","","","call-function","314","1976904","0.0-314.0","1920x1080","","","","","","",""
"","","","","","animation","315","1982583","0.0-315.0","1920x1080","","5678.5","21.83","img/238/4/1/bw/001.png","","","relaxing"
"","","","","","animation","316","1987713","0.0-316.0","1920x1080","","5128.5999999940395","3.04","img/117/2.5/2/bw/001.png","","","relaxing"
"","","","","","animation","317","1992716","0.0-317.0","1920x1080","","5000.800000011921","36.90","img/314/4.5/1/bw/001.png","","","relaxing"
"","","","","","animation","318","1998305","0.0-318.0","1920x1080","","5587.4000000059605","75.66","img/314/5.5/1.5/bw/001.png","","","relaxing"
"","","","","","animation","319","2002471","0.0-319.0","1920x1080","","4164.699999988079","49.60","img/314/5.5/0.5/bw/001.png","","","relaxing"
"","","","","","animation","320","2007172","0.0-320.0","1920x1080","","4699.0999999940395","6.88","img/238/3.5/1/bw/001.png","","","relaxing"
"","","","","","animation","321","2011983","0.0-321.0","1920x1080","","4809","7.14","img/314/3.5/1/bw/001.png","","","relaxing"
"","","","","","animation","322","2015001","0.0-322.0","1920x1080","","3016.7999999821186","20.50","img/314/4/1.5/bw/001.png","","","relaxing"
"","","","","","animation","323","2018287","0.0-323.0","1920x1080","","3283.300000011921","9.52","img/238/2.5/1.5/bw/001.png","","","relaxing"
"","","","","","animation","324","2021197","0.0-324.0","1920x1080","","2908.699999988079","28.17","img/314/4/2/bw/001.png","","","relaxing"
"","","","","","animation","325","2025622","0.0-325.0","1920x1080","","4423.200000017881","24.60","img/117/4/1.5/bw/001.png","","","relaxing"
"","","","","","animation","326","2029692","0.0-326.0","1920x1080","","4068.300000011921","0.93","img/238/2.5/0.66667/bw/001.png","","","relaxing"
"","","","","","animation","327","2035687","0.0-327.0","1920x1080","","5993.0999999940395","56.61","img/117/5.5/0.66667/bw/001.png","","","relaxing"
"","","","","","animation","328","2039343","0.0-328.0","1920x1080","","3654.800000011921","14.29","img/117/4/2/bw/001.png","","","relaxing"
"","","","","","animation","329","2042398","0.0-329.0","1920x1080","","3052.300000011921","62","img/117/5.5/1/bw/001.png","","","relaxing"
"","","","","","animation","330","2047934","0.0-330.0","1920x1080","","5535.5","81","img/117/5.5/2/bw/001.png","","","relaxing"
"","","","","","animation","331","2050819","0.0-331.0","1920x1080","","2882.9000000059605","54.76","img/238/4.5/1.5/bw/001.png","","","relaxing"
"","","","","","animation","332","2054330","0.0-332.0","1920x1080","","3510","49.21","img/117/4.5/1.5/bw/001.png","","","relaxing"
"","","","","","animation","333","2057187","0.0-333.0","1920x1080","","2854.9000000059605","60.32","img/314/5.5/1/bw/001.png","","","relaxing"
"","","","","","animation","334","2059956","0.0-334.0","1920x1080","","2767.9000000059605","41.40","img/117/4/1/bw/001.png","","","relaxing"
"","","","","","animation","335","2064872","0.0-335.0","1920x1080","","4915.200000017881","63","img/238/5.5/1/bw/001.png","","","relaxing"
"","","","","","animation","336","2070287","0.0-336.0","1920x1080","","5412.199999988079","7","img/238/4.5/0.5/bw/001.png","","","relaxing"
"","","","","","animation","337","2075147","0.0-337.0","1920x1080","","4858","17.46","img/238/3.5/1.5/bw/001.png","","","relaxing"
"","","","","","animation","338","2081558","0.0-338.0","1920x1080","","6408.5999999940395","3.04","img/117/2.5/0.66667/bw/001.png","","","relaxing"
"","","","","","animation","339","2085733","0.0-339.0","1920x1080","","4173.199999988079","60.98","img/314/5.5/0.66667/bw/001.png","","","relaxing"
"","","","","","animation","340","2087990","0.0-340.0","1920x1080","","2256.0999999940395","31.61","img/238/3.5/2/bw/001.png","","","relaxing"
"","","","","","animation","341","2090603","0.0-341.0","1920x1080","","2611","27.65","img/238/4/1.5/bw/001.png","","","relaxing"
"","","","","","animation","342","2093363","0.0-342.0","1920x1080","","2758.899999976158","23","img/314/3.5/0.66667/bw/001.png","","","relaxing"
"","","","","","animation","343","2098598","0.0-343.0","1920x1080","","5232.799999982119","35.58","img/117/3.5/1/bw/001.png","","","relaxing"
"","","","","","animation","344","2105704","0.0-344.0","1920x1080","","7104.0999999940395","20.90","img/314/3.5/2/bw/001.png","","","relaxing"
"","","","","","animation","345","2108763","0.0-345.0","1920x1080","","3057.5","70","img/238/5.5/0.66667/bw/001.png","","","relaxing"
"","","","","","animation","346","2110831","0.0-346.0","1920x1080","","2066.5999999940395","16.40","img/117/4/0.5/bw/001.png","","","relaxing"
"","","","","","animation","347","2113770","0.0-347.0","1920x1080","","2937.7999999821186","29.23","img/314/4/1/bw/001.png","","","relaxing"
"","","","","","animation","348","2115918","0.0-348.0","1920x1080","","2146","19.71","img/238/4/0.5/bw/001.png","","","relaxing"
"","","","","","animation","349","2121902","0.0-349.0","1920x1080","","5980","44","img/117/4.5/1/bw/001.png","","","relaxing"
"","","","","","animation","350","2144134","0.0-350.0","1920x1080","","22230.5","11.64","img/117/3.5/0.5/bw/001.png","","","relaxing"
"","","","","","animation","351","2150782","0.0-351.0","1920x1080","","6645","8.73","img/117/2.5/1.5/bw/001.png","","","relaxing"
"","","","","","animation","352","2154184","0.0-352.0","1920x1080","","3400.4000000059605","2.91","img/238/2.5/1/bw/001.png","","","relaxing"
"","","","","","animation","353","2157333","0.0-353.0","1920x1080","","3146.7999999821186","65.61","img/238/5.5/0.5/bw/001.png","","","relaxing"
"","","","","","animation","354","2159998","0.0-354.0","1920x1080","","2662.699999988079","27.51","img/238/3.5/0.5/bw/001.png","","","relaxing"
"","","","","","animation","355","2163067","0.0-355.0","1920x1080","","3067.5999999940395","16.80","img/238/3.5/0.66667/bw/001.png","","","relaxing"
"","","","","","animation","356","2173731","0.0-356.0","1920x1080","","10662.09999999404","54","img/238/4.5/2/bw/001.png","","","relaxing"
"","","","","","animation","357","2176734","0.0-357.0","1920x1080","","3001.9000000059605","12.43","img/314/2.5/2/bw/001.png","","","relaxing"
"","","","","","animation","358","2179272","0.0-358.0","1920x1080","","2535.9000000059605","19.31","img/117/3.5/2/bw/001.png","","","relaxing"
"","","","","","animation","359","2181958","0.0-359.0","1920x1080","","2683.5999999940395","7.94","img/117/2.5/1/bw/001.png","","","relaxing"
"","","","","","animation","360","2184080","0.0-360.0","1920x1080","","2120.300000011921","8.60","img/117/3.5/0.66667/bw/001.png","","","relaxing"
"","","","","","animation","361","2186448","0.0-361.0","1920x1080","","2367","16.80","img/314/4/0.66667/bw/001.png","","","relaxing"
"","","","","","animation","362","2189263","0.0-362.0","1920x1080","","2810","15.74","img/314/3.5/0.5/bw/001.png","","","relaxing"
"","","","","","animation","363","2192285","0.0-363.0","1920x1080","","3020","75.40","img/314/5.5/2/bw/001.png","","","relaxing"
"","","","","","animation","364","2195098","0.0-364.0","1920x1080","","2811.7000000178814","56.08","img/314/4.5/2/bw/001.png","","","relaxing"
"","","","","","animation","365","2204423","0.0-365.0","1920x1080","","9321.5","22.49","img/238/4/0.66667/bw/001.png","","","relaxing"
"","","","","","animation","366","2208935","0.0-366.0","1920x1080","","4509.699999988079","20","img/117/4.5/0.5/bw/001.png","","","relaxing"
"","","","","","animation","367","2212149","0.0-367.0","1920x1080","","3212.199999988079","21.96","img/117/4.5/0.66667/bw/001.png","","","relaxing"
"","","","","","animation","368","2221640","0.0-368.0","1920x1080","","9486.09999999404","28.57","img/314/4.5/0.5/bw/001.png","","","relaxing"
"","","","","","animation","369","2224490","0.0-369.0","1920x1080","","2848.0999999940395","73.28","img/238/5.5/1.5/bw/001.png","","","relaxing"
"","","","","","animation","370","2230751","0.0-370.0","1920x1080","","6259.0999999940395","19.84","img/314/4/0.5/bw/001.png","","","relaxing"
"","","","","","animation","371","2233586","0.0-371.0","1920x1080","","2833.4000000059605","15.61","img/117/2.5/0.5/bw/001.png","","","relaxing"
"","","","","","animation","372","2238214","0.0-372.0","1920x1080","","4626.9000000059605","15.87","img/117/4/0.66667/bw/001.png","","","relaxing"
"","","","","","animation","373","2268783","0.0-373.0","1920x1080","","30566.30000001192","22.09","img/314/4.5/0.66667/bw/001.png","","","relaxing"
"","","","","","animation","374","2271331","0.0-374.0","1920x1080","","2547","29.37","img/238/4.5/0.66667/bw/001.png","","","relaxing"
"","","","","","animation","375","2273630","0.0-375.0","1920x1080","","2296.0999999940395","3.31","img/314/2.5/1/bw/001.png","","","relaxing"
"","","","","","animation","376","2277109","0.0-376.0","1920x1080","","3476.9000000059605","2","img/314/2.5/0.66667/bw/001.png","","","relaxing"
"","","","","","animation","377","2281697","0.0-377.0","1920x1080","","4586.799999982119","81.75","img/117/5.5/1.5/bw/001.png","","","relaxing"
"","","","","","animation","378","2286264","0.0-378.0","1920x1080","","4564.300000011921","82","img/238/5.5/2/bw/001.png","","","relaxing"
"","","","","","animation","379","2291841","0.0-379.0","1920x1080","","5575","28.70","img/314/4.5/1.5/bw/001.png","","","relaxing"
"","","","","","animation","380","2300958","0.0-380.0","1920x1080","","9115.40000000596","51","img/117/5.5/0.5/bw/001.png","","","relaxing"
"","","","","","animation","381","2306409","0.0-381.0","1920x1080","","5449.0999999940395","4","img/314/2.5/0.5/bw/001.png","","","relaxing"
"","","","","","animation","382","2310665","0.0-382.0","1920x1080","","4254.200000017881","4.89","img/238/2.5/2/bw/001.png","","","relaxing"
"","","","","","animation","383","2316465","0.0-383.0","1920x1080","","5797.4000000059605","59.13","img/117/4.5/2/bw/001.png","","","relaxing"
"","","","","","animation","384","2338748","0.0-384.0","1920x1080","","22282.09999999404","26","img/238/4.5/1/bw/001.png","","","relaxing"
"","","","","","animation","385","2341008","0.0-385.0","1920x1080","","2258.2000000178814","30.56","img/238/4/2/bw/001.png","","","relaxing"
"","","","","","animation","386","2342751","0.0-386.0","1920x1080","","1740.5","21.83","img/117/3.5/1.5/bw/001.png","","","relaxing"
"","","","","","animation","387","2345381","0.0-387.0","1920x1080","","2628.800000011921","22.62","img/314/3.5/1.5/bw/001.png","","","relaxing"
"","","","","","animation","388","2348898","0.0-388.0","1920x1080","","3515.300000011921","4.23","img/314/2.5/1.5/bw/001.png","","","relaxing"
"","","","","","animation","389","2352167","0.0-389.0","1920x1080","","3267.199999988079","1.32","img/238/2.5/0.5/bw/001.png","","","relaxing"
"","","","","","html-button-response","390","2402952","0.0-390.0","1920x1080","","50782.09999999404","","<strong>Study Debriefing</strong><br><p class=""debrief""><strong>Background:</strong> The patterns you rated are called <em>fractals</em>. The term fractal describes a class of irregular curves or shapes for which any suitably chosen part is similar in shape to a given larger or smaller part when magnified or reduced to the same size. Fractal properties are found throughout the natural and manmade world. The series of animations you saw today displayed animated fractal patterns of a varying complexity.</p><p class=""debrief""><strong>Purpose of this study:</strong> We hope to better understand how the perception of static fractals differs from the perception of animated fractals, and how the speed of the animated patterns influences people&apos;s perception of them. Fractals allow us to study the perception of aesthetic properties (e.g. the perceived level of beauty in an image) without using recognizable content, which makes them an excellent tool for studying abstract aesthetic judgement.</p><p class=""debrief""><strong>Your part:</strong> Your participation has helped us to further understand how humans perceive these patterns across different levels of speed and complexity. This research with allow us to better understand how the visual system and brain process our ever-changing visual environments.<p class=""debrief""><strong>Feedback and Further information:</strong> If you have additional questions about this study, please feel free to ask the researcher, Nathan Gonzales-Hess at nhess @ uoregon.edu. If you have any questions concerning your rights as a research participant, please contact Research Compliance Services, 5237 University of Oregon, Eugene, OR 97403, 541-346-2510, or email researchCompliance @ uoregon.edu. You can also email the Human Subjects Coordinator for psychology and linguistics research at hscoord @ uoregon.edu. ","0","",""
"","","","","","html-button-response","391","2408753","0.0-391.0","1920x1080","","5796.199999988079","","Thank you for participating in this study. <br>Please click below to finish the experiment and submit your responses.<br><br>","0","",""
"true","","","","","fullscreen","392","2409760","0.0-392.0","1920x1080","12:17 20/5/2022","","","","","",""
