"success","timeout","failed_images","failed_audio","failed_video","trial_type","trial_index","time_elapsed","internal_node_id","resolution","timeStamp","rt","response","stimulus","button_pressed","value","descriptor"
"true","false","[]","[]","[]","preload","0","5860","0.0-0.0","1920x1080","","","","","","",""
"true","false","[]","[]","[]","preload","1","11938","0.0-1.0","1920x1080","","","","","","",""
"true","false","[]","[]","[]","preload","2","18029","0.0-2.0","1920x1080","","","","","","",""
"true","","","","","fullscreen","3","129494","0.0-3.0","1920x1080","9:59 7/10/2022","","","","","",""
"","","","","","survey-html-form","4","136540","0.0-4.0","1920x1080","","7042.4000000059605","{""age"":""20"",""gender"":""woman""}","","","",""
"","","","","","html-button-response","5","183645","0.0-5.0","1920x1080","","47104.40000000596","","<div class=""complex"">You are going to see a series of animations.<br><br></div><div class=""complex"">Move the slider to indicate how <strong style=""text-transform:capitalize"">COMPLEX</strong> you find each animation.<br><br></div><div class=""complex"">0 = Least Complex<br></div><div class=""complex"">1 = Most Complex<br><br></div><div class=""complex"">Remember to use the <strong><em>entire range</em></strong> of the slider to make your ratings.<br></div><div class=""complex"">Please <strong><em>take your time</em></strong> and carefully consider each rating you make.<br><br></div><div class=""complex"">The study has five sections and will take about 45 minutes to complete.<br><br></div>","0","",""
"","","","","","call-function","6","183646","0.0-6.0","1920x1080","","","","","","",""
"","","","","","animation","7","221829","0.0-7.0","1920x1080","","38181.90000000596","21","img/314/4/1/bw/001.png","","","complex"
"","","","","","animation","8","236741","0.0-8.0","1920x1080","","14910.40000000596","44.58","img/238/3.5/1/bw/001.png","","","complex"
"","","","","","animation","9","250668","0.0-9.0","1920x1080","","13926.90000000596","53.97","img/314/5.5/1.5/bw/001.png","","","complex"
"","","","","","animation","10","260844","0.0-10.0","1920x1080","","10175.40000000596","39.02","img/314/4/0.5/bw/001.png","","","complex"
"","","","","","animation","11","277444","0.0-11.0","1920x1080","","16598.59999999404","21.83","img/238/4.5/0.66667/bw/001.png","","","complex"
"","","","","","animation","12","289084","0.0-12.0","1920x1080","","11639.200000017881","26.98","img/238/3.5/1.5/bw/001.png","","","complex"
"","","","","","animation","13","297284","0.0-13.0","1920x1080","","8199.40000000596","17.46","img/117/2.5/0.5/bw/001.png","","","complex"
"","","","","","animation","14","307471","0.0-14.0","1920x1080","","10175.5","62.70","img/117/5.5/1/bw/001.png","","","complex"
"","","","","","animation","15","327016","0.0-15.0","1920x1080","","19543.59999999404","44.84","img/238/4.5/1/bw/001.png","","","complex"
"","","","","","animation","16","333224","0.0-16.0","1920x1080","","6207.5999999940395","16.93","img/238/2.5/0.5/bw/001.png","","","complex"
"","","","","","animation","17","348368","0.0-17.0","1920x1080","","15143.40000000596","50.00","img/117/4/0.5/bw/001.png","","","complex"
"","","","","","animation","18","372987","0.0-18.0","1920x1080","","24591","49.74","img/314/4/1.5/bw/001.png","","","complex"
"","","","","","animation","19","386315","0.0-19.0","1920x1080","","13327.59999999404","37.70","img/117/3.5/1/bw/001.png","","","complex"
"","","","","","animation","20","398955","0.0-20.0","1920x1080","","12638.899999976158","53.57","img/117/3.5/2/bw/001.png","","","complex"
"","","","","","animation","21","411219","0.0-21.0","1920x1080","","12263.299999982119","69.31","img/117/4.5/0.5/bw/001.png","","","complex"
"","","","","","animation","22","426155","0.0-22.0","1920x1080","","14935.399999976158","49.74","img/238/5.5/0.5/bw/001.png","","","complex"
"","","","","","animation","23","440846","0.0-23.0","1920x1080","","14671.40000000596","85.45","img/314/5.5/0.66667/bw/001.png","","","complex"
"","","","","","animation","24","457142","0.0-24.0","1920x1080","","16295.200000017881","23.15","img/117/3.5/1.5/bw/001.png","","","complex"
"","","","","","animation","25","464622","0.0-25.0","1920x1080","","7479.300000011921","37","img/238/3.5/0.5/bw/001.png","","","complex"
"","","","","","animation","26","490992","0.0-26.0","1920x1080","","26335.5","49.47","img/314/3.5/0.66667/bw/001.png","","","complex"
"","","","","","animation","27","500370","0.0-27.0","1920x1080","","9376.59999999404","19.84","img/238/4/2/bw/001.png","","","complex"
"","","","","","animation","28","515296","0.0-28.0","1920x1080","","14925.59999999404","10.85","img/117/2.5/2/bw/001.png","","","complex"
"","","","","","animation","29","525600","0.0-29.0","1920x1080","","10303.5","40.74","img/314/3.5/1/bw/001.png","","","complex"
"","","","","","animation","30","539648","0.0-30.0","1920x1080","","14046.800000011921","46.43","img/117/4.5/2/bw/001.png","","","complex"
"","","","","","animation","31","553617","0.0-31.0","1920x1080","","13943.100000023842","84","img/117/5.5/0.66667/bw/001.png","","","complex"
"","","","","","animation","32","560473","0.0-32.0","1920x1080","","6855.199999988079","47.22","img/238/3.5/0.66667/bw/001.png","","","complex"
"","","","","","animation","33","584153","0.0-33.0","1920x1080","","23678.90000000596","68.12","img/314/4.5/0.5/bw/001.png","","","complex"
"","","","","","animation","34","587769","0.0-34.0","1920x1080","","3615.5","11.38","img/314/2.5/0.66667/bw/001.png","","","complex"
"","","","","","animation","35","595641","0.0-35.0","1920x1080","","7871.0999999940395","62.70","img/314/4/2/bw/001.png","","","complex"
"","","","","","animation","36","599297","0.0-36.0","1920x1080","","3655","5.69","img/117/2.5/0.66667/bw/001.png","","","complex"
"","","","","","animation","37","613434","0.0-37.0","1920x1080","","14127.700000017881","93","img/117/5.5/1.5/bw/001.png","","","complex"
"","","","","","animation","38","622145","0.0-38.0","1920x1080","","8710.699999988079","59.26","img/314/4.5/1/bw/001.png","","","complex"
"","","","","","animation","39","640545","0.0-39.0","1920x1080","","18398.59999999404","53.57","img/238/4.5/1.5/bw/001.png","","","complex"
"","","","","","animation","40","643657","0.0-40.0","1920x1080","","3111.100000023842","5.42","img/238/2.5/1/bw/001.png","","","complex"
"","","","","","animation","41","655457","0.0-41.0","1920x1080","","11799","90","img/117/5.5/2/bw/001.png","","","complex"
"","","","","","animation","42","666650","0.0-42.0","1920x1080","","11191.59999999404","96","img/117/5.5/0.5/bw/001.png","","","complex"
"","","","","","animation","43","672842","0.0-43.0","1920x1080","","6185","62.17","img/314/4.5/1.5/bw/001.png","","","complex"
"","","","","","animation","44","680080","0.0-44.0","1920x1080","","7236.5","57.28","img/117/4/1.5/bw/001.png","","","complex"
"","","","","","animation","45","696936","0.0-45.0","1920x1080","","16855.09999999404","82.80","img/238/5.5/1/bw/001.png","","","complex"
"","","","","","animation","46","707544","0.0-46.0","1920x1080","","10607.700000017881","57.67","img/238/4/0.66667/bw/001.png","","","complex"
"","","","","","animation","47","723944","0.0-47.0","1920x1080","","16398.5","51.46","img/238/4.5/0.5/bw/001.png","","","complex"
"","","","","","animation","48","748101","0.0-48.0","1920x1080","","24159.69999998808","96","img/238/5.5/1.5/bw/001.png","","","complex"
"","","","","","animation","49","754748","0.0-49.0","1920x1080","","6646.5999999940395","20.90","img/314/3.5/1.5/bw/001.png","","","complex"
"","","","","","animation","50","759669","0.0-50.0","1920x1080","","4919.5","1.59","img/238/2.5/2/bw/001.png","","","complex"
"","","","","","animation","51","773454","0.0-51.0","1920x1080","","13783.200000017881","87.83","img/314/5.5/2/bw/001.png","","","complex"
"","","","","","animation","52","780948","0.0-52.0","1920x1080","","7493.0999999940395","41.14","img/117/4/2/bw/001.png","","","complex"
"","","","","","animation","53","788207","0.0-53.0","1920x1080","","7256.5","48.02","img/117/4.5/0.66667/bw/001.png","","","complex"
"","","","","","animation","54","794262","0.0-54.0","1920x1080","","6053.9000000059605","27.65","img/314/3.5/2/bw/001.png","","","complex"
"","","","","","animation","55","804478","0.0-55.0","1920x1080","","10215","88.89","img/238/5.5/2/bw/001.png","","","complex"
"","","","","","animation","56","829535","0.0-56.0","1920x1080","","25055.29999998212","35.05","img/117/4.5/1/bw/001.png","","","complex"
"","","","","","animation","57","833262","0.0-57.0","1920x1080","","3726.4000000059605","23.94","img/238/3.5/2/bw/001.png","","","complex"
"","","","","","animation","58","836406","0.0-58.0","1920x1080","","3143.2000000178814","1.32","img/117/2.5/1.5/bw/001.png","","","complex"
"","","","","","animation","59","855236","0.0-59.0","1920x1080","","18833","32","img/238/4/1.5/bw/001.png","","","complex"
"","","","","","animation","60","859882","0.0-60.0","1920x1080","","4645.5999999940395","2.91","img/238/2.5/1.5/bw/001.png","","","complex"
"","","","","","animation","61","868187","0.0-61.0","1920x1080","","8303.09999999404","50.13","img/117/3.5/0.5/bw/001.png","","","complex"
"","","","","","animation","62","887069","0.0-62.0","1920x1080","","18881.5","98","img/314/5.5/0.5/bw/001.png","","","complex"
"","","","","","animation","63","898842","0.0-63.0","1920x1080","","11771.90000000596","4","img/314/2.5/2/bw/001.png","","","complex"
"","","","","","animation","64","910505","0.0-64.0","1920x1080","","11663.100000023842","50.13","img/314/4.5/0.66667/bw/001.png","","","complex"
"","","","","","animation","65","922457","0.0-65.0","1920x1080","","11951","59.92","img/117/4.5/1.5/bw/001.png","","","complex"
"","","","","","animation","66","941105","0.0-66.0","1920x1080","","18647","97","img/314/5.5/1/bw/001.png","","","complex"
"","","","","","animation","67","956361","0.0-67.0","1920x1080","","15255.09999999404","48.02","img/314/4/0.66667/bw/001.png","","","complex"
"","","","","","animation","68","962834","0.0-68.0","1920x1080","","6472.0999999940395","48.81","img/117/4/1/bw/001.png","","","complex"
"","","","","","animation","69","965817","0.0-69.0","1920x1080","","2982.199999988079","4.10","img/117/2.5/1/bw/001.png","","","complex"
"","","","","","animation","70","972862","0.0-70.0","1920x1080","","7039.100000023842","5.42","img/314/2.5/1/bw/001.png","","","complex"
"","","","","","animation","71","983534","0.0-71.0","1920x1080","","10671.09999999404","49.74","img/117/4/0.66667/bw/001.png","","","complex"
"","","","","","animation","72","991814","0.0-72.0","1920x1080","","8279.59999999404","55.03","img/238/4/1/bw/001.png","","","complex"
"","","","","","animation","73","997774","0.0-73.0","1920x1080","","5958.9000000059605","62.17","img/238/4.5/2/bw/001.png","","","complex"
"","","","","","animation","74","1001983","0.0-74.0","1920x1080","","4207.299999982119","16.40","img/314/3.5/0.5/bw/001.png","","","complex"
"","","","","","animation","75","1009751","0.0-75.0","1920x1080","","7767","50.40","img/238/4/0.5/bw/001.png","","","complex"
"","","","","","animation","76","1027495","0.0-76.0","1920x1080","","17742.90000000596","45.90","img/117/3.5/0.66667/bw/001.png","","","complex"
"","","","","","animation","77","1032615","0.0-77.0","1920x1080","","5119.200000017881","2.25","img/314/2.5/1.5/bw/001.png","","","complex"
"","","","","","animation","78","1039006","0.0-78.0","1920x1080","","6390","3.57","img/314/2.5/0.5/bw/001.png","","","complex"
"","","","","","animation","79","1053422","0.0-79.0","1920x1080","","14415","91.80","img/238/5.5/0.66667/bw/001.png","","","complex"
"","","","","","animation","80","1057095","0.0-80.0","1920x1080","","3671.5","6.75","img/238/2.5/0.66667/bw/001.png","","","complex"
"","","","","","animation","81","1068215","0.0-81.0","1920x1080","","11118.59999999404","71","img/314/4.5/2/bw/001.png","","","complex"
"","","","","","html-button-response","82","1095166","0.0-82.0","1920x1080","","26942.80000001192","","<div class=""intro"">You are about to view a new series of animations.<br><br></div><div class=""intro"">You will evaluate them based on a different descriptor.<br><br></div><div class=""intro"">Move the slider to indicate how <strong style=""text-transform:capitalize"">RELAXING</strong> you find each animation.<br><br></div><div class=""intro"">0 = Least Relaxing<br></div><div class=""intro"">1 = Most Relaxing<br><br></div><div class=""intro"">Remember to use the <strong><em>entire range</em></strong> of the slider to make your ratings.<br></div><div class=""intro"">Please <strong><em>take your time</em></strong> and carefully consider each rating you make.<br><br></div>","0","",""
"","","","","","call-function","83","1095169","0.0-83.0","1920x1080","","","","","","",""
"","","","","","animation","84","1098774","0.0-84.0","1920x1080","","3604","0.13","img/117/2.5/0.5/bw/001.png","","","relaxing"
"","","","","","animation","85","1107757","0.0-85.0","1920x1080","","8983","42.72","img/117/3.5/1.5/bw/001.png","","","relaxing"
"","","","","","animation","86","1112038","0.0-86.0","1920x1080","","4279.299999982119","28.97","img/314/3.5/1/bw/001.png","","","relaxing"
"","","","","","animation","87","1115390","0.0-87.0","1920x1080","","3351","0.13","img/314/2.5/0.5/bw/001.png","","","relaxing"
"","","","","","animation","88","1123558","0.0-88.0","1920x1080","","8167","31","img/117/3.5/0.66667/bw/001.png","","","relaxing"
"","","","","","animation","89","1128870","0.0-89.0","1920x1080","","5311.0999999940395","0","img/238/2.5/0.66667/bw/001.png","","","relaxing"
"","","","","","animation","90","1139422","0.0-90.0","1920x1080","","10551.200000017881","38.10","img/238/4.5/0.5/bw/001.png","","","relaxing"
"","","","","","animation","91","1150278","0.0-91.0","1920x1080","","10856.699999988079","49.60","img/238/3.5/1/bw/001.png","","","relaxing"
"","","","","","animation","92","1157332","0.0-92.0","1920x1080","","7052.700000017881","100","img/238/5.5/1/bw/001.png","","","relaxing"
"","","","","","animation","93","1164644","0.0-93.0","1920x1080","","7310.800000011921","56.08","img/314/5.5/0.5/bw/001.png","","","relaxing"
"","","","","","animation","94","1169712","0.0-94.0","1920x1080","","5066.799999982119","0.13","img/238/2.5/2/bw/001.png","","","relaxing"
"","","","","","animation","95","1182468","0.0-95.0","1920x1080","","12755.399999976158","54.37","img/117/4.5/2/bw/001.png","","","relaxing"
"","","","","","animation","96","1196964","0.0-96.0","1920x1080","","14494.800000011921","80.03","img/238/5.5/0.5/bw/001.png","","","relaxing"
"","","","","","animation","97","1199836","0.0-97.0","1920x1080","","2870.7999999821186","0","img/117/2.5/2/bw/001.png","","","relaxing"
"","","","","","animation","98","1206528","0.0-98.0","1920x1080","","6691.0999999940395","7.41","img/238/3.5/0.66667/bw/001.png","","","relaxing"
"","","","","","animation","99","1222614","0.0-99.0","1920x1080","","16082.800000011921","33.20","img/117/4.5/0.66667/bw/001.png","","","relaxing"
"","","","","","animation","100","1232175","0.0-100.0","1920x1080","","9559.100000023842","53.31","img/238/4/1.5/bw/001.png","","","relaxing"
"","","","","","animation","101","1235150","0.0-101.0","1920x1080","","2974.5999999940395","0","img/314/2.5/2/bw/001.png","","","relaxing"
"","","","","","animation","102","1240414","0.0-102.0","1920x1080","","5262.800000011921","15.08","img/314/3.5/1.5/bw/001.png","","","relaxing"
"","","","","","animation","103","1251102","0.0-103.0","1920x1080","","10687","100","img/117/5.5/1.5/bw/001.png","","","relaxing"
"","","","","","animation","104","1259671","0.0-104.0","1920x1080","","8566.59999999404","5.29","img/238/4/1/bw/001.png","","","relaxing"
"","","","","","animation","105","1266030","0.0-105.0","1920x1080","","6358.5","6.22","img/238/4/0.5/bw/001.png","","","relaxing"
"","","","","","animation","106","1274597","0.0-106.0","1920x1080","","8559.5","93.39","img/314/5.5/1/bw/001.png","","","relaxing"
"","","","","","animation","107","1287396","0.0-107.0","1920x1080","","12798","55","img/238/3.5/2/bw/001.png","","","relaxing"
"","","","","","animation","108","1298720","0.0-108.0","1920x1080","","11322.300000011921","48.41","img/238/4.5/1/bw/001.png","","","relaxing"
"","","","","","animation","109","1303736","0.0-109.0","1920x1080","","5014.800000011921","16.93","img/238/4.5/0.66667/bw/001.png","","","relaxing"
"","","","","","animation","110","1317572","0.0-110.0","1920x1080","","13835.59999999404","100","img/238/5.5/1.5/bw/001.png","","","relaxing"
"","","","","","animation","111","1329952","0.0-111.0","1920x1080","","12380","37.57","img/314/4/1/bw/001.png","","","relaxing"
"","","","","","animation","112","1333875","0.0-112.0","1920x1080","","3922","0","img/238/2.5/1.5/bw/001.png","","","relaxing"
"","","","","","animation","113","1349603","0.0-113.0","1920x1080","","15726.700000017881","49","img/117/4.5/1/bw/001.png","","","relaxing"
"","","","","","animation","114","1355684","0.0-114.0","1920x1080","","6079.5999999940395","53.44","img/117/4.5/1.5/bw/001.png","","","relaxing"
"","","","","","animation","115","1359300","0.0-115.0","1920x1080","","3615.4000000059605","15.34","img/117/3.5/2/bw/001.png","","","relaxing"
"","","","","","animation","116","1381740","0.0-116.0","1920x1080","","22438.399999976158","100","img/238/5.5/2/bw/001.png","","","relaxing"
"","","","","","animation","117","1395804","0.0-117.0","1920x1080","","14062.59999999404","50.53","img/314/5.5/0.66667/bw/001.png","","","relaxing"
"","","","","","animation","118","1416100","0.0-118.0","1920x1080","","20295.40000000596","21.83","img/314/4.5/0.5/bw/001.png","","","relaxing"
"","","","","","animation","119","1419540","0.0-119.0","1920x1080","","3438.7999999821186","0.00","img/314/2.5/1.5/bw/001.png","","","relaxing"
"","","","","","animation","120","1429568","0.0-120.0","1920x1080","","10026.59999999404","16.53","img/314/4/0.5/bw/001.png","","","relaxing"
"","","","","","animation","121","1438852","0.0-121.0","1920x1080","","9283","49.74","img/314/4/2/bw/001.png","","","relaxing"
"","","","","","animation","122","1446534","0.0-122.0","1920x1080","","7681.5","41.93","img/117/4/1/bw/001.png","","","relaxing"
"","","","","","animation","123","1449558","0.0-123.0","1920x1080","","3021","16.14","img/238/4/0.66667/bw/001.png","","","relaxing"
"","","","","","animation","124","1456336","0.0-124.0","1920x1080","","6776.699999988079","8.07","img/117/4/0.5/bw/001.png","","","relaxing"
"","","","","","animation","125","1460369","0.0-125.0","1920x1080","","4031.699999988079","0","img/314/2.5/0.66667/bw/001.png","","","relaxing"
"","","","","","animation","126","1469786","0.0-126.0","1920x1080","","9415.699999988079","21.03","img/314/4.5/1/bw/001.png","","","relaxing"
"","","","","","animation","127","1484662","0.0-127.0","1920x1080","","14875.59999999404","24.34","img/238/4.5/2/bw/001.png","","","relaxing"
"","","","","","animation","128","1502142","0.0-128.0","1920x1080","","17478.80000001192","42.06","img/314/4.5/1.5/bw/001.png","","","relaxing"
"","","","","","animation","129","1567037","0.0-129.0","1920x1080","","64894.30000001192","60.45","img/117/4/2/bw/001.png","","","relaxing"
"","","","","","animation","130","1569645","0.0-130.0","1920x1080","","2607.300000011921","0","img/314/2.5/1/bw/001.png","","","relaxing"
"","","","","","animation","131","1630150","0.0-131.0","1920x1080","","60504.70000001788","55.16","img/117/4/1.5/bw/001.png","","","relaxing"
"","","","","","animation","132","1635404","0.0-132.0","1920x1080","","5252.300000011921","17.33","img/314/3.5/0.66667/bw/001.png","","","relaxing"
"","","","","","animation","133","1638600","0.0-133.0","1920x1080","","3195","0","img/117/2.5/0.66667/bw/001.png","","","relaxing"
"","","","","","animation","134","1645708","0.0-134.0","1920x1080","","7106.9000000059605","100","img/314/5.5/2/bw/001.png","","","relaxing"
"","","","","","animation","135","1654420","0.0-135.0","1920x1080","","8710.59999999404","73.41","img/238/4/2/bw/001.png","","","relaxing"
"","","","","","animation","136","1664216","0.0-136.0","1920x1080","","9795.100000023842","6.35","img/117/4.5/0.5/bw/001.png","","","relaxing"
"","","","","","animation","137","1666832","0.0-137.0","1920x1080","","2615.2000000178814","0","img/238/2.5/0.5/bw/001.png","","","relaxing"
"","","","","","animation","138","1669820","0.0-138.0","1920x1080","","2986.899999976158","0","img/117/2.5/1/bw/001.png","","","relaxing"
"","","","","","animation","139","1675749","0.0-139.0","1920x1080","","5928.5","96","img/314/5.5/1.5/bw/001.png","","","relaxing"
"","","","","","animation","140","1680708","0.0-140.0","1920x1080","","4957.700000017881","0.53","img/238/2.5/1/bw/001.png","","","relaxing"
"","","","","","animation","141","1704799","0.0-141.0","1920x1080","","24091.90000000596","78.44","img/238/3.5/1.5/bw/001.png","","","relaxing"
"","","","","","animation","142","1710014","0.0-142.0","1920x1080","","5212.800000011921","4.50","img/238/3.5/0.5/bw/001.png","","","relaxing"
"","","","","","animation","143","1714939","0.0-143.0","1920x1080","","4923.600000023842","100","img/117/5.5/2/bw/001.png","","","relaxing"
"","","","","","animation","144","1727107","0.0-144.0","1920x1080","","12167.200000017881","68.39","img/117/5.5/0.66667/bw/001.png","","","relaxing"
"","","","","","animation","145","1747454","0.0-145.0","1920x1080","","20342.30000001192","89.02","img/238/5.5/0.66667/bw/001.png","","","relaxing"
"","","","","","animation","146","1756767","0.0-146.0","1920x1080","","9312.800000011921","0","img/314/3.5/0.5/bw/001.png","","","relaxing"
"","","","","","animation","147","1762390","0.0-147.0","1920x1080","","5621.9000000059605","9.39","img/117/4/0.66667/bw/001.png","","","relaxing"
"","","","","","animation","148","1777768","0.0-148.0","1920x1080","","15376.5","62.43","img/117/5.5/1/bw/001.png","","","relaxing"
"","","","","","animation","149","1791817","0.0-149.0","1920x1080","","14048.5","66.67","img/314/3.5/2/bw/001.png","","","relaxing"
"","","","","","animation","150","1809083","0.0-150.0","1920x1080","","17267.59999999404","51.19","img/314/4/1.5/bw/001.png","","","relaxing"
"","","","","","animation","151","1814715","0.0-151.0","1920x1080","","5630.9000000059605","35.05","img/314/4.5/0.66667/bw/001.png","","","relaxing"
"","","","","","animation","152","1822764","0.0-152.0","1920x1080","","8048.5","11.24","img/117/3.5/1/bw/001.png","","","relaxing"
"","","","","","animation","153","1830267","0.0-153.0","1920x1080","","7501.800000011921","51.85","img/117/5.5/0.5/bw/001.png","","","relaxing"
"","","","","","animation","154","1837731","0.0-154.0","1920x1080","","7463.200000017881","23.81","img/314/4/0.66667/bw/001.png","","","relaxing"
"","","","","","animation","155","1844587","0.0-155.0","1920x1080","","6855.5","0.40","img/117/3.5/0.5/bw/001.png","","","relaxing"
"","","","","","animation","156","1847631","0.0-156.0","1920x1080","","3042.4000000059605","0","img/117/2.5/1.5/bw/001.png","","","relaxing"
"","","","","","animation","157","1873795","0.0-157.0","1920x1080","","26166","62.57","img/314/4.5/2/bw/001.png","","","relaxing"
"","","","","","animation","158","1886696","0.0-158.0","1920x1080","","12898.59999999404","43.25","img/238/4.5/1.5/bw/001.png","","","relaxing"
"","","","","","html-button-response","159","1905401","0.0-159.0","1920x1080","","18703.20000001788","","<div class=""intro"">You are about to view a new series of animations.<br><br></div><div class=""intro"">You will evaluate them based on a different descriptor.<br><br></div><div class=""intro"">Move the slider to indicate how <strong style=""text-transform:capitalize"">APPEALING</strong> you find each animation.<br><br></div><div class=""intro"">0 = Least Appealing<br></div><div class=""intro"">1 = Most Appealing<br><br></div><div class=""intro"">Remember to use the <strong><em>entire range</em></strong> of the slider to make your ratings.<br></div><div class=""intro"">Please <strong><em>take your time</em></strong> and carefully consider each rating you make.<br><br></div>","0","",""
"","","","","","call-function","160","1905402","0.0-160.0","1920x1080","","","","","","",""
"","","","","","animation","161","1919228","0.0-161.0","1920x1080","","13825.40000000596","80.03","img/314/5.5/0.66667/bw/001.png","","","appealing"
"","","","","","animation","162","1934653","0.0-162.0","1920x1080","","15419.40000000596","50.66","img/117/4/2/bw/001.png","","","appealing"
"","","","","","animation","163","1955917","0.0-163.0","1920x1080","","21262.59999999404","41","img/117/4.5/0.66667/bw/001.png","","","appealing"
"","","","","","animation","164","1971166","0.0-164.0","1920x1080","","15248.299999982119","62.04","img/238/4/2/bw/001.png","","","appealing"
"","","","","","animation","165","1975082","0.0-165.0","1920x1080","","3914.9000000059605","0","img/238/2.5/0.66667/bw/001.png","","","appealing"
"","","","","","animation","166","2005380","0.0-166.0","1920x1080","","30299.5","48.94","img/238/4.5/0.66667/bw/001.png","","","appealing"
"","","","","","animation","167","2016651","0.0-167.0","1920x1080","","11269.700000017881","88.36","img/314/5.5/1/bw/001.png","","","appealing"
"","","","","","animation","168","2020364","0.0-168.0","1920x1080","","3711.300000011921","0.93","img/314/2.5/0.5/bw/001.png","","","appealing"
"","","","","","animation","169","2025355","0.0-169.0","1920x1080","","4989.299999982119","3.97","img/117/2.5/1/bw/001.png","","","appealing"
"","","","","","animation","170","2040531","0.0-170.0","1920x1080","","15174.5","50.93","img/238/4/1.5/bw/001.png","","","appealing"
"","","","","","animation","171","2061382","0.0-171.0","1920x1080","","20847.40000000596","85.45","img/117/5.5/0.5/bw/001.png","","","appealing"
"","","","","","animation","172","2066633","0.0-172.0","1920x1080","","5247.0999999940395","23.54","img/117/4/1/bw/001.png","","","appealing"
"","","","","","animation","173","2076806","0.0-173.0","1920x1080","","10172.300000011921","95","img/117/5.5/1/bw/001.png","","","appealing"
"","","","","","animation","174","2082150","0.0-174.0","1920x1080","","5341.800000011921","10.98","img/314/4/0.66667/bw/001.png","","","appealing"
"","","","","","animation","175","2095567","0.0-175.0","1920x1080","","13416.199999988079","86.11","img/314/5.5/0.5/bw/001.png","","","appealing"
"","","","","","animation","176","2099616","0.0-176.0","1920x1080","","4047.699999988079","0","img/314/2.5/1.5/bw/001.png","","","appealing"
"","","","","","animation","177","2110383","0.0-177.0","1920x1080","","10765.300000011921","98","img/238/5.5/0.66667/bw/001.png","","","appealing"
"","","","","","animation","178","2114267","0.0-178.0","1920x1080","","3882.600000023842","0","img/314/2.5/1/bw/001.png","","","appealing"
"","","","","","animation","179","2122319","0.0-179.0","1920x1080","","8050.9000000059605","50.13","img/238/3.5/0.5/bw/001.png","","","appealing"
"","","","","","animation","180","2128450","0.0-180.0","1920x1080","","6130.200000017881","7.01","img/238/2.5/2/bw/001.png","","","appealing"
"","","","","","animation","181","2152535","0.0-181.0","1920x1080","","24083.80000001192","54.50","img/117/3.5/1/bw/001.png","","","appealing"
"","","","","","animation","182","2170144","0.0-182.0","1920x1080","","17607.40000000596","79.50","img/314/4.5/2/bw/001.png","","","appealing"
"","","","","","animation","183","2177104","0.0-183.0","1920x1080","","6958","0.00","img/238/2.5/1/bw/001.png","","","appealing"
"","","","","","animation","184","2196917","0.0-184.0","1920x1080","","19812.59999999404","75.00","img/314/5.5/2/bw/001.png","","","appealing"
"","","","","","animation","185","2215088","0.0-185.0","1920x1080","","18169.5","84.66","img/238/5.5/1/bw/001.png","","","appealing"
"","","","","","animation","186","2259474","0.0-186.0","1920x1080","","44382.70000001788","83.07","img/238/5.5/0.5/bw/001.png","","","appealing"
"","","","","","animation","187","2271721","0.0-187.0","1920x1080","","12246.40000000596","92.06","img/238/5.5/1.5/bw/001.png","","","appealing"
"","","","","","animation","188","2275486","0.0-188.0","1920x1080","","3763.300000011921","0.93","img/117/2.5/0.5/bw/001.png","","","appealing"
"","","","","","animation","189","2278441","0.0-189.0","1920x1080","","2954.5999999940395","0.40","img/117/2.5/0.66667/bw/001.png","","","appealing"
"","","","","","animation","190","2287674","0.0-190.0","1920x1080","","9231.40000000596","39.15","img/238/3.5/0.66667/bw/001.png","","","appealing"
"","","","","","animation","191","2291036","0.0-191.0","1920x1080","","3360.4000000059605","6.48","img/117/2.5/1.5/bw/001.png","","","appealing"
"","","","","","animation","192","2307936","0.0-192.0","1920x1080","","16898.90000000596","54.76","img/238/4/0.66667/bw/001.png","","","appealing"
"","","","","","animation","193","2315074","0.0-193.0","1920x1080","","7137.4000000059605","27.78","img/238/4/0.5/bw/001.png","","","appealing"
"","","","","","animation","194","2319003","0.0-194.0","1920x1080","","3926.800000011921","38.10","img/117/3.5/1.5/bw/001.png","","","appealing"
"","","","","","animation","195","2325106","0.0-195.0","1920x1080","","6103","28.97","img/314/4/1/bw/001.png","","","appealing"
"","","","","","animation","196","2332922","0.0-196.0","1920x1080","","7814.699999988079","56.61","img/117/4/1.5/bw/001.png","","","appealing"
"","","","","","animation","197","2341136","0.0-197.0","1920x1080","","8212.59999999404","44.31","img/314/3.5/1/bw/001.png","","","appealing"
"","","","","","animation","198","2348047","0.0-198.0","1920x1080","","6905.5999999940395","65.74","img/314/4.5/1.5/bw/001.png","","","appealing"
"","","","","","animation","199","2352457","0.0-199.0","1920x1080","","4408.399999976158","0.53","img/238/2.5/1.5/bw/001.png","","","appealing"
"","","","","","animation","200","2367415","0.0-200.0","1920x1080","","14956.800000011921","91","img/117/5.5/1.5/bw/001.png","","","appealing"
"","","","","","animation","201","2380690","0.0-201.0","1920x1080","","13273.700000017881","35.45","img/238/3.5/1/bw/001.png","","","appealing"
"","","","","","animation","202","2388140","0.0-202.0","1920x1080","","7449","49.87","img/238/3.5/2/bw/001.png","","","appealing"
"","","","","","animation","203","2391056","0.0-203.0","1920x1080","","2915.5999999940395","0.13","img/314/2.5/0.66667/bw/001.png","","","appealing"
"","","","","","animation","204","2412525","0.0-204.0","1920x1080","","21469.20000001788","57.67","img/238/4.5/2/bw/001.png","","","appealing"
"","","","","","animation","205","2423021","0.0-205.0","1920x1080","","10494.800000011921","69.97","img/314/4/1.5/bw/001.png","","","appealing"
"","","","","","animation","206","2436277","0.0-206.0","1920x1080","","13254.40000000596","43.25","img/314/3.5/2/bw/001.png","","","appealing"
"","","","","","animation","207","2460004","0.0-207.0","1920x1080","","23726.59999999404","28.84","img/314/4.5/0.5/bw/001.png","","","appealing"
"","","","","","animation","208","2466481","0.0-208.0","1920x1080","","6475.299999982119","61.90","img/117/4.5/1.5/bw/001.png","","","appealing"
"","","","","","animation","209","2482755","0.0-209.0","1920x1080","","16241.90000000596","46.69","img/238/4.5/1/bw/001.png","","","appealing"
"","","","","","animation","210","2493435","0.0-210.0","1920x1080","","10679.200000017881","73.28","img/238/4.5/1.5/bw/001.png","","","appealing"
"","","","","","animation","211","2502219","0.0-211.0","1920x1080","","8782.799999982119","61.64","img/314/4/2/bw/001.png","","","appealing"
"","","","","","animation","212","2513724","0.0-212.0","1920x1080","","11503.40000000596","84.66","img/117/5.5/0.66667/bw/001.png","","","appealing"
"","","","","","animation","213","2521536","0.0-213.0","1920x1080","","7811.100000023842","25.93","img/117/4.5/0.5/bw/001.png","","","appealing"
"","","","","","animation","214","2534574","0.0-214.0","1920x1080","","13034.300000011921","89.02","img/314/4.5/1/bw/001.png","","","appealing"
"","","","","","animation","215","2538266","0.0-215.0","1920x1080","","3690.199999988079","0.00","img/117/3.5/0.5/bw/001.png","","","appealing"
"","","","","","animation","216","2547463","0.0-216.0","1920x1080","","9193.699999988079","100","img/117/5.5/2/bw/001.png","","","appealing"
"","","","","","animation","217","2554123","0.0-217.0","1920x1080","","6658.699999988079","5.16","img/117/4/0.5/bw/001.png","","","appealing"
"","","","","","animation","218","2563575","0.0-218.0","1920x1080","","9450.199999988079","86","img/117/4.5/2/bw/001.png","","","appealing"
"","","","","","animation","219","2577540","0.0-219.0","1920x1080","","13964","17.06","img/117/3.5/0.66667/bw/001.png","","","appealing"
"","","","","","animation","220","2582575","0.0-220.0","1920x1080","","5033.199999988079","7.14","img/314/3.5/0.5/bw/001.png","","","appealing"
"","","","","","animation","221","2588878","0.0-221.0","1920x1080","","6303.199999988079","32.67","img/314/4/0.5/bw/001.png","","","appealing"
"","","","","","animation","222","2595157","0.0-222.0","1920x1080","","6278.5999999940395","24.21","img/314/3.5/0.66667/bw/001.png","","","appealing"
"","","","","","animation","223","2605510","0.0-223.0","1920x1080","","10351.5","60.05","img/117/4/0.66667/bw/001.png","","","appealing"
"","","","","","animation","224","2613430","0.0-224.0","1920x1080","","7918.700000017881","6.75","img/238/3.5/1.5/bw/001.png","","","appealing"
"","","","","","animation","225","2624605","0.0-225.0","1920x1080","","11172.5","33.99","img/314/3.5/1.5/bw/001.png","","","appealing"
"","","","","","animation","226","2628121","0.0-226.0","1920x1080","","3514.4000000059605","0","img/238/2.5/0.5/bw/001.png","","","appealing"
"","","","","","animation","227","2637587","0.0-227.0","1920x1080","","9465.199999988079","99","img/238/5.5/2/bw/001.png","","","appealing"
"","","","","","animation","228","2645094","0.0-228.0","1920x1080","","7504.699999988079","100","img/314/5.5/1.5/bw/001.png","","","appealing"
"","","","","","animation","229","2655069","0.0-229.0","1920x1080","","9975.59999999404","31.88","img/238/4.5/0.5/bw/001.png","","","appealing"
"","","","","","animation","230","2680508","0.0-230.0","1920x1080","","25437.90000000596","67.06","img/238/4/1/bw/001.png","","","appealing"
"","","","","","animation","231","2683885","0.0-231.0","1920x1080","","3375.4000000059605","0","img/117/2.5/2/bw/001.png","","","appealing"
"","","","","","animation","232","2687835","0.0-232.0","1920x1080","","3948.699999988079","0","img/314/2.5/2/bw/001.png","","","appealing"
"","","","","","animation","233","2695540","0.0-233.0","1920x1080","","7703.5999999940395","17.46","img/117/3.5/2/bw/001.png","","","appealing"
"","","","","","animation","234","2708390","0.0-234.0","1920x1080","","12846.5","54.50","img/117/4.5/1/bw/001.png","","","appealing"
"","","","","","animation","235","2717662","0.0-235.0","1920x1080","","9271.09999999404","44.18","img/314/4.5/0.66667/bw/001.png","","","appealing"
"","","","","","html-button-response","236","2736871","0.0-236.0","1920x1080","","19207.29999998212","","<div class=""intro"">You are about to view a new series of animations.<br><br></div><div class=""intro"">You will evaluate them based on a different descriptor.<br><br></div><div class=""intro"">Move the slider to indicate how <strong style=""text-transform:capitalize"">INTERESTING</strong> you find each animation.<br><br></div><div class=""intro"">0 = Least Interesting<br></div><div class=""intro"">1 = Most Interesting<br><br></div><div class=""intro"">Remember to use the <strong><em>entire range</em></strong> of the slider to make your ratings.<br></div><div class=""intro"">Please <strong><em>take your time</em></strong> and carefully consider each rating you make.<br><br></div>","0","",""
"","","","","","call-function","237","2736872","0.0-237.0","1920x1080","","","","","","",""
"","","","","","animation","238","2750238","0.0-238.0","1920x1080","","13365.59999999404","67.86","img/314/4/0.66667/bw/001.png","","","interesting"
"","","","","","animation","239","2759471","0.0-239.0","1920x1080","","9231.59999999404","24.74","img/238/3.5/0.5/bw/001.png","","","interesting"
"","","","","","animation","240","2774218","0.0-240.0","1920x1080","","14748.800000011921","61.90","img/117/4.5/2/bw/001.png","","","interesting"
"","","","","","animation","241","2784269","0.0-241.0","1920x1080","","10048.800000011921","83.20","img/314/4/1/bw/001.png","","","interesting"
"","","","","","animation","242","2794852","0.0-242.0","1920x1080","","10582.199999988079","49.87","img/314/5.5/1.5/bw/001.png","","","interesting"
"","","","","","animation","243","2807819","0.0-243.0","1920x1080","","12966.09999999404","39","img/314/5.5/1/bw/001.png","","","interesting"
"","","","","","animation","244","2816573","0.0-244.0","1920x1080","","8752.09999999404","0","img/314/2.5/1/bw/001.png","","","interesting"
"","","","","","animation","245","2830270","0.0-245.0","1920x1080","","13691.90000000596","69.97","img/238/3.5/2/bw/001.png","","","interesting"
"","","","","","animation","246","2841678","0.0-246.0","1920x1080","","11406.90000000596","0.93","img/117/2.5/1/bw/001.png","","","interesting"
"","","","","","animation","247","2853070","0.0-247.0","1920x1080","","11390.40000000596","59.52","img/238/5.5/0.66667/bw/001.png","","","interesting"
"","","","","","animation","248","2873254","0.0-248.0","1920x1080","","20182.79999998212","51.46","img/238/3.5/1.5/bw/001.png","","","interesting"
"","","","","","animation","249","2885069","0.0-249.0","1920x1080","","11814.40000000596","12.43","img/238/5.5/1/bw/001.png","","","interesting"
"","","","","","animation","250","2897685","0.0-250.0","1920x1080","","12616.40000000596","61.64","img/238/3.5/1/bw/001.png","","","interesting"
"","","","","","animation","251","2907324","0.0-251.0","1920x1080","","9637.90000000596","7.01","img/117/3.5/1.5/bw/001.png","","","interesting"
"","","","","","animation","252","2914417","0.0-252.0","1920x1080","","7091.9000000059605","5.42","img/117/3.5/2/bw/001.png","","","interesting"
"","","","","","animation","253","2919451","0.0-253.0","1920x1080","","5032.899999976158","62.57","img/117/4/1.5/bw/001.png","","","interesting"
"","","","","","animation","254","2924803","0.0-254.0","1920x1080","","5350.899999976158","79.10","img/238/4/0.66667/bw/001.png","","","interesting"
"","","","","","animation","255","2928901","0.0-255.0","1920x1080","","4093.4000000059605","0","img/238/2.5/1.5/bw/001.png","","","interesting"
"","","","","","animation","256","2937068","0.0-256.0","1920x1080","","8165.899999976158","44.18","img/117/4.5/1/bw/001.png","","","interesting"
"","","","","","animation","257","2944908","0.0-257.0","1920x1080","","7833.799999982119","84","img/117/5.5/0.5/bw/001.png","","","interesting"
"","","","","","animation","258","2950936","0.0-258.0","1920x1080","","6024.9000000059605","51.06","img/117/4/2/bw/001.png","","","interesting"
"","","","","","animation","259","2958421","0.0-259.0","1920x1080","","7484.200000017881","8.99","img/314/5.5/2/bw/001.png","","","interesting"
"","","","","","animation","260","2962253","0.0-260.0","1920x1080","","3830.5999999940395","5.03","img/117/5.5/2/bw/001.png","","","interesting"
"","","","","","animation","261","2968703","0.0-261.0","1920x1080","","6448.199999988079","53","img/117/5.5/1/bw/001.png","","","interesting"
"","","","","","animation","262","2973769","0.0-262.0","1920x1080","","5065.199999988079","15.21","img/314/3.5/2/bw/001.png","","","interesting"
"","","","","","animation","263","2986221","0.0-263.0","1920x1080","","12451.200000017881","33.20","img/314/4/1.5/bw/001.png","","","interesting"
"","","","","","animation","264","2989819","0.0-264.0","1920x1080","","3596.4000000059605","0.53","img/238/2.5/0.5/bw/001.png","","","interesting"
"","","","","","animation","265","2994358","0.0-265.0","1920x1080","","4537.5","8.86","img/117/3.5/0.5/bw/001.png","","","interesting"
"","","","","","animation","266","3004237","0.0-266.0","1920x1080","","9878.5","52.38","img/314/4/0.5/bw/001.png","","","interesting"
"","","","","","animation","267","3009017","0.0-267.0","1920x1080","","4780.4000000059605","39.02","img/117/4.5/0.66667/bw/001.png","","","interesting"
"","","","","","animation","268","3013150","0.0-268.0","1920x1080","","4132.100000023842","6.35","img/117/3.5/0.66667/bw/001.png","","","interesting"
"","","","","","animation","269","3017291","0.0-269.0","1920x1080","","4140.0999999940395","54.23","img/117/5.5/0.66667/bw/001.png","","","interesting"
"","","","","","animation","270","3029372","0.0-270.0","1920x1080","","12079.399999976158","22.09","img/314/4.5/1.5/bw/001.png","","","interesting"
"","","","","","animation","271","3049667","0.0-271.0","1920x1080","","20292.79999998212","19.58","img/314/4.5/2/bw/001.png","","","interesting"
"","","","","","animation","272","3068154","0.0-272.0","1920x1080","","18487.5","56","img/314/3.5/1/bw/001.png","","","interesting"
"","","","","","animation","273","3071938","0.0-273.0","1920x1080","","3782.699999988079","0.40","img/117/2.5/0.66667/bw/001.png","","","interesting"
"","","","","","animation","274","3086586","0.0-274.0","1920x1080","","14646.799999982119","17.72","img/238/3.5/0.66667/bw/001.png","","","interesting"
"","","","","","animation","275","3113848","0.0-275.0","1920x1080","","27261","61","img/238/4/0.5/bw/001.png","","","interesting"
"","","","","","animation","276","3142099","0.0-276.0","1920x1080","","28248.69999998808","54.63","img/117/4/0.66667/bw/001.png","","","interesting"
"","","","","","animation","277","3170939","0.0-277.0","1920x1080","","28838.79999998212","19.71","img/238/4/2/bw/001.png","","","interesting"
"","","","","","animation","278","3181349","0.0-278.0","1920x1080","","10408.40000000596","59.92","img/117/4.5/1.5/bw/001.png","","","interesting"
"","","","","","animation","279","3186566","0.0-279.0","1920x1080","","5215.5","37.96","img/238/5.5/2/bw/001.png","","","interesting"
"","","","","","animation","280","3192968","0.0-280.0","1920x1080","","6404.799999982119","55.56","img/238/4.5/0.5/bw/001.png","","","interesting"
"","","","","","animation","281","3196520","0.0-281.0","1920x1080","","3551.100000023842","36.24","img/314/3.5/1.5/bw/001.png","","","interesting"
"","","","","","animation","282","3210184","0.0-282.0","1920x1080","","13662.59999999404","54.89","img/238/5.5/1.5/bw/001.png","","","interesting"
"","","","","","animation","283","3227136","0.0-283.0","1920x1080","","16950.899999976158","27.12","img/238/4.5/0.66667/bw/001.png","","","interesting"
"","","","","","animation","284","3229768","0.0-284.0","1920x1080","","2630","0.53","img/117/2.5/1.5/bw/001.png","","","interesting"
"","","","","","animation","285","3248879","0.0-285.0","1920x1080","","19109.69999998808","66.27","img/117/4.5/0.5/bw/001.png","","","interesting"
"","","","","","animation","286","3251478","0.0-286.0","1920x1080","","2598.2000000178814","0","img/238/2.5/0.66667/bw/001.png","","","interesting"
"","","","","","animation","287","3255045","0.0-287.0","1920x1080","","3565.800000011921","0.13","img/238/2.5/1/bw/001.png","","","interesting"
"","","","","","animation","288","3259463","0.0-288.0","1920x1080","","4416.699999988079","0","img/117/2.5/2/bw/001.png","","","interesting"
"","","","","","animation","289","3267368","0.0-289.0","1920x1080","","7902.5999999940395","42.06","img/117/3.5/1/bw/001.png","","","interesting"
"","","","","","animation","290","3272678","0.0-290.0","1920x1080","","5308.9000000059605","56.48","img/314/4.5/0.66667/bw/001.png","","","interesting"
"","","","","","animation","291","3281345","0.0-291.0","1920x1080","","8666.09999999404","23.02","img/238/4/1/bw/001.png","","","interesting"
"","","","","","animation","292","3286936","0.0-292.0","1920x1080","","5588.5999999940395","12.17","img/238/4.5/1/bw/001.png","","","interesting"
"","","","","","animation","293","3289496","0.0-293.0","1920x1080","","2558.5","0.53","img/314/2.5/0.5/bw/001.png","","","interesting"
"","","","","","animation","294","3321394","0.0-294.0","1920x1080","","31900.70000001788","31.88","img/314/4.5/1/bw/001.png","","","interesting"
"","","","","","animation","295","3325525","0.0-295.0","1920x1080","","4129.700000017881","59.39","img/314/3.5/0.5/bw/001.png","","","interesting"
"","","","","","animation","296","3363799","0.0-296.0","1920x1080","","38272.90000000596","70.37","img/117/4/1/bw/001.png","","","interesting"
"","","","","","animation","297","3366460","0.0-297.0","1920x1080","","2659.199999988079","0","img/314/2.5/0.66667/bw/001.png","","","interesting"
"","","","","","animation","298","3389851","0.0-298.0","1920x1080","","23382.70000001788","31.75","img/314/4/2/bw/001.png","","","interesting"
"","","","","","animation","299","3392748","0.0-299.0","1920x1080","","2894.899999976158","60.71","img/314/4.5/0.5/bw/001.png","","","interesting"
"","","","","","animation","300","3397331","0.0-300.0","1920x1080","","4582.4000000059605","67.86","img/117/4/0.5/bw/001.png","","","interesting"
"","","","","","animation","301","3407603","0.0-301.0","1920x1080","","10270.699999988079","26.06","img/238/4.5/1.5/bw/001.png","","","interesting"
"","","","","","animation","302","3422898","0.0-302.0","1920x1080","","15293.40000000596","60.05","img/314/3.5/0.66667/bw/001.png","","","interesting"
"","","","","","animation","303","3427702","0.0-303.0","1920x1080","","4815.800000011921","34.26","img/238/4/1.5/bw/001.png","","","interesting"
"","","","","","animation","304","3431118","0.0-304.0","1920x1080","","3415.199999988079","67.99","img/314/5.5/0.5/bw/001.png","","","interesting"
"","","","","","animation","305","3439422","0.0-305.0","1920x1080","","8302.799999982119","21.69","img/238/5.5/0.5/bw/001.png","","","interesting"
"","","","","","animation","306","3449469","0.0-306.0","1920x1080","","10045.199999988079","68.12","img/117/5.5/1.5/bw/001.png","","","interesting"
"","","","","","animation","307","3452051","0.0-307.0","1920x1080","","2580.7000000178814","0.13","img/117/2.5/0.5/bw/001.png","","","interesting"
"","","","","","animation","308","3457267","0.0-308.0","1920x1080","","5214.699999988079","42.20","img/238/4.5/2/bw/001.png","","","interesting"
"","","","","","animation","309","3459935","0.0-309.0","1920x1080","","2665.899999976158","0.93","img/238/2.5/2/bw/001.png","","","interesting"
"","","","","","animation","310","3464335","0.0-310.0","1920x1080","","4398.699999988079","0","img/314/2.5/1.5/bw/001.png","","","interesting"
"","","","","","animation","311","3467301","0.0-311.0","1920x1080","","2965","0","img/314/2.5/2/bw/001.png","","","interesting"
"","","","","","animation","312","3471878","0.0-312.0","1920x1080","","4576.100000023842","80.03","img/314/5.5/0.66667/bw/001.png","","","interesting"
"","","","","","html-button-response","313","3490399","0.0-313.0","1920x1080","","18504","","<div class=""intro"">You are about to view a new series of animations.<br><br></div><div class=""intro"">You will evaluate them based on a different descriptor.<br><br></div><div class=""intro"">Move the slider to indicate how <strong style=""text-transform:capitalize"">NATURAL</strong> you find each animation.<br><br></div><div class=""intro"">0 = Least Natural<br></div><div class=""intro"">1 = Most Natural<br><br></div><div class=""intro"">Remember to use the <strong><em>entire range</em></strong> of the slider to make your ratings.<br></div><div class=""intro"">Please <strong><em>take your time</em></strong> and carefully consider each rating you make.<br><br></div>","0","",""
"","","","","","call-function","314","3490401","0.0-314.0","1920x1080","","","","","","",""
"","","","","","animation","315","3495716","0.0-315.0","1920x1080","","5314.399999976158","100","img/238/5.5/1.5/bw/001.png","","","natural"
"","","","","","animation","316","3498668","0.0-316.0","1920x1080","","2950.4000000059605","86.90","img/314/5.5/0.66667/bw/001.png","","","natural"
"","","","","","animation","317","3504332","0.0-317.0","1920x1080","","5662.5","52.38","img/117/2.5/0.66667/bw/001.png","","","natural"
"","","","","","animation","318","3514233","0.0-318.0","1920x1080","","9899.5","65.87","img/314/3.5/1.5/bw/001.png","","","natural"
"","","","","","animation","319","3522710","0.0-319.0","1920x1080","","8475.699999988079","75.79","img/314/3.5/0.66667/bw/001.png","","","natural"
"","","","","","animation","320","3528649","0.0-320.0","1920x1080","","5934.699999988079","89.15","img/238/4.5/1.5/bw/001.png","","","natural"
"","","","","","animation","321","3532389","0.0-321.0","1920x1080","","3738.899999976158","39.55","img/117/3.5/1/bw/001.png","","","natural"
"","","","","","animation","322","3537566","0.0-322.0","1920x1080","","5175.5","91.01","img/238/5.5/1/bw/001.png","","","natural"
"","","","","","animation","323","3542805","0.0-323.0","1920x1080","","5237.699999988079","40.61","img/314/3.5/1/bw/001.png","","","natural"
"","","","","","animation","324","3548018","0.0-324.0","1920x1080","","5226.5999999940395","20.37","img/238/3.5/1.5/bw/001.png","","","natural"
"","","","","","animation","325","3554318","0.0-325.0","1920x1080","","6298.700000017881","40.74","img/238/5.5/0.5/bw/001.png","","","natural"
"","","","","","animation","326","3559038","0.0-326.0","1920x1080","","4718.600000023842","67.20","img/238/2.5/1.5/bw/001.png","","","natural"
"","","","","","animation","327","3565974","0.0-327.0","1920x1080","","6935","5.03","img/238/4/0.5/bw/001.png","","","natural"
"","","","","","animation","328","3568768","0.0-328.0","1920x1080","","2791.800000011921","71.83","img/238/2.5/1/bw/001.png","","","natural"
"","","","","","animation","329","3577418","0.0-329.0","1920x1080","","8649.5","1.19","img/117/5.5/2/bw/001.png","","","natural"
"","","","","","animation","330","3582410","0.0-330.0","1920x1080","","4990","7.28","img/238/4/1.5/bw/001.png","","","natural"
"","","","","","animation","331","3588807","0.0-331.0","1920x1080","","6395.5","8.99","img/117/4.5/1/bw/001.png","","","natural"
"","","","","","animation","332","3605167","0.0-332.0","1920x1080","","16359.100000023842","1.98","img/238/4.5/0.5/bw/001.png","","","natural"
"","","","","","animation","333","3610420","0.0-333.0","1920x1080","","5248.5","7.80","img/238/4/0.66667/bw/001.png","","","natural"
"","","","","","animation","334","3614921","0.0-334.0","1920x1080","","4499.0999999940395","53.70","img/314/4/2/bw/001.png","","","natural"
"","","","","","animation","335","3622755","0.0-335.0","1920x1080","","7832.5999999940395","21.83","img/238/4.5/1/bw/001.png","","","natural"
"","","","","","animation","336","3625410","0.0-336.0","1920x1080","","2653.800000011921","84.39","img/314/2.5/0.5/bw/001.png","","","natural"
"","","","","","animation","337","3628815","0.0-337.0","1920x1080","","3403.5999999940395","89.68","img/314/2.5/2/bw/001.png","","","natural"
"","","","","","animation","338","3634676","0.0-338.0","1920x1080","","5860.0999999940395","10.58","img/314/4.5/0.66667/bw/001.png","","","natural"
"","","","","","animation","339","3637764","0.0-339.0","1920x1080","","3086.4000000059605","48.15","img/238/4.5/2/bw/001.png","","","natural"
"","","","","","animation","340","3644721","0.0-340.0","1920x1080","","6956.200000017881","7.54","img/238/3.5/2/bw/001.png","","","natural"
"","","","","","animation","341","3649603","0.0-341.0","1920x1080","","4880.5999999940395","71.69","img/314/4.5/0.5/bw/001.png","","","natural"
"","","","","","animation","342","3655423","0.0-342.0","1920x1080","","5818.0999999940395","100","img/238/5.5/2/bw/001.png","","","natural"
"","","","","","animation","343","3658573","0.0-343.0","1920x1080","","3147.9000000059605","97","img/238/2.5/0.66667/bw/001.png","","","natural"
"","","","","","animation","344","3661438","0.0-344.0","1920x1080","","2863","90.34","img/117/2.5/2/bw/001.png","","","natural"
"","","","","","animation","345","3668358","0.0-345.0","1920x1080","","6917.5999999940395","64.02","img/314/3.5/0.5/bw/001.png","","","natural"
"","","","","","animation","346","3698156","0.0-346.0","1920x1080","","29796.80000001192","25","img/238/4.5/0.66667/bw/001.png","","","natural"
"","","","","","animation","347","3700196","0.0-347.0","1920x1080","","2038.0999999940395","64.68","img/314/4.5/1.5/bw/001.png","","","natural"
"","","","","","animation","348","3704693","0.0-348.0","1920x1080","","4494.5999999940395","78.17","img/117/4/0.5/bw/001.png","","","natural"
"","","","","","animation","349","3710875","0.0-349.0","1920x1080","","6180.5999999940395","55.16","img/117/4.5/1.5/bw/001.png","","","natural"
"","","","","","animation","350","3712733","0.0-350.0","1920x1080","","1856.7999999821186","88.62","img/238/2.5/2/bw/001.png","","","natural"
"","","","","","animation","351","3729847","0.0-351.0","1920x1080","","17103.100000023842","80.03","img/117/4/1/bw/001.png","","","natural"
"","","","","","animation","352","3734048","0.0-352.0","1920x1080","","4199.200000017881","42.33","img/117/3.5/1.5/bw/001.png","","","natural"
"","","","","","animation","353","3737675","0.0-353.0","1920x1080","","3625.2000000178814","7.94","img/314/4/0.66667/bw/001.png","","","natural"
"","","","","","animation","354","3740198","0.0-354.0","1920x1080","","2521.5999999940395","62.57","img/117/4.5/2/bw/001.png","","","natural"
"","","","","","animation","355","3745069","0.0-355.0","1920x1080","","4869.5","51.72","img/238/3.5/0.66667/bw/001.png","","","natural"
"","","","","","animation","356","3749648","0.0-356.0","1920x1080","","4577.9000000059605","29.63","img/117/4.5/0.5/bw/001.png","","","natural"
"","","","","","animation","357","3752853","0.0-357.0","1920x1080","","3203.199999988079","67.20","img/314/4/1.5/bw/001.png","","","natural"
"","","","","","animation","358","3755248","0.0-358.0","1920x1080","","2393.399999976158","74.34","img/117/4/1.5/bw/001.png","","","natural"
"","","","","","animation","359","3758016","0.0-359.0","1920x1080","","2766.5999999940395","83.47","img/314/4.5/2/bw/001.png","","","natural"
"","","","","","animation","360","3761623","0.0-360.0","1920x1080","","3605.5999999940395","83","img/238/4/2/bw/001.png","","","natural"
"","","","","","animation","361","3765799","0.0-361.0","1920x1080","","4175.4000000059605","61.24","img/314/5.5/1/bw/001.png","","","natural"
"","","","","","animation","362","3769749","0.0-362.0","1920x1080","","3947.800000011921","7.28","img/314/5.5/1.5/bw/001.png","","","natural"
"","","","","","animation","363","3772609","0.0-363.0","1920x1080","","2858.5","37.30","img/314/4/0.5/bw/001.png","","","natural"
"","","","","","animation","364","3775408","0.0-364.0","1920x1080","","2798.2999999821186","23.54","img/238/5.5/0.66667/bw/001.png","","","natural"
"","","","","","animation","365","3778518","0.0-365.0","1920x1080","","3108.199999988079","34.92","img/117/5.5/1/bw/001.png","","","natural"
"","","","","","animation","366","3786373","0.0-366.0","1920x1080","","7853.9000000059605","11.24","img/117/5.5/1.5/bw/001.png","","","natural"
"","","","","","animation","367","3789148","0.0-367.0","1920x1080","","2773.2999999821186","90.21","img/314/2.5/1/bw/001.png","","","natural"
"","","","","","animation","368","3791448","0.0-368.0","1920x1080","","2299","98","img/238/2.5/0.5/bw/001.png","","","natural"
"","","","","","animation","369","3793965","0.0-369.0","1920x1080","","2515.600000023842","84.39","img/117/2.5/1.5/bw/001.png","","","natural"
"","","","","","animation","370","3800175","0.0-370.0","1920x1080","","6209.5","45","img/314/5.5/0.5/bw/001.png","","","natural"
"","","","","","animation","371","3806147","0.0-371.0","1920x1080","","5970.300000011921","60.58","img/117/3.5/0.66667/bw/001.png","","","natural"
"","","","","","animation","372","3816331","0.0-372.0","1920x1080","","10182.300000011921","61.24","img/117/5.5/0.66667/bw/001.png","","","natural"
"","","","","","animation","373","3818820","0.0-373.0","1920x1080","","2488.2000000178814","55.03","img/314/3.5/2/bw/001.png","","","natural"
"","","","","","animation","374","3825916","0.0-374.0","1920x1080","","7094.800000011921","42.33","img/238/4/1/bw/001.png","","","natural"
"","","","","","animation","375","3829332","0.0-375.0","1920x1080","","3414.800000011921","91.14","img/314/2.5/0.66667/bw/001.png","","","natural"
"","","","","","animation","376","3835632","0.0-376.0","1920x1080","","6298.100000023842","12.04","img/238/3.5/0.5/bw/001.png","","","natural"
"","","","","","animation","377","3838864","0.0-377.0","1920x1080","","3231.2000000178814","66.53","img/117/3.5/2/bw/001.png","","","natural"
"","","","","","animation","378","3841564","0.0-378.0","1920x1080","","2698.300000011921","70.77","img/117/4/2/bw/001.png","","","natural"
"","","","","","animation","379","3844498","0.0-379.0","1920x1080","","2932.4000000059605","55.95","img/314/4.5/1/bw/001.png","","","natural"
"","","","","","animation","380","3847151","0.0-380.0","1920x1080","","2651.600000023842","43.92","img/314/4/1/bw/001.png","","","natural"
"","","","","","animation","381","3849782","0.0-381.0","1920x1080","","2628.7999999821186","95","img/314/2.5/1.5/bw/001.png","","","natural"
"","","","","","animation","382","3853234","0.0-382.0","1920x1080","","3451.199999988079","37.96","img/117/4/0.66667/bw/001.png","","","natural"
"","","","","","animation","383","3858524","0.0-383.0","1920x1080","","5288.299999982119","32.28","img/117/4.5/0.66667/bw/001.png","","","natural"
"","","","","","animation","384","3863781","0.0-384.0","1920x1080","","5255.0999999940395","23.54","img/117/5.5/0.5/bw/001.png","","","natural"
"","","","","","animation","385","3866632","0.0-385.0","1920x1080","","2849.399999976158","42.86","img/117/3.5/0.5/bw/001.png","","","natural"
"","","","","","animation","386","3868815","0.0-386.0","1920x1080","","2181.9000000059605","82.80","img/117/2.5/1/bw/001.png","","","natural"
"","","","","","animation","387","3873692","0.0-387.0","1920x1080","","4874.899999976158","11.64","img/314/5.5/2/bw/001.png","","","natural"
"","","","","","animation","388","3885460","0.0-388.0","1920x1080","","11766.09999999404","56.22","img/238/3.5/1/bw/001.png","","","natural"
"","","","","","animation","389","3888053","0.0-389.0","1920x1080","","2591.800000011921","91.40","img/117/2.5/0.5/bw/001.png","","","natural"
"","","","","","html-button-response","390","3929623","0.0-390.0","1920x1080","","41568.20000001788","","<strong>Study Debriefing</strong><br><p class=""debrief""><strong>Background:</strong> The patterns you rated are called <em>fractals</em>. The term fractal describes a class of irregular curves or shapes for which any suitably chosen part is similar in shape to a given larger or smaller part when magnified or reduced to the same size. Fractal properties are found throughout the natural and manmade world. The series of animations you saw today displayed animated fractal patterns of a varying complexity.</p><p class=""debrief""><strong>Purpose of this study:</strong> We hope to better understand how the perception of static fractals differs from the perception of animated fractals, and how the speed of the animated patterns influences people&apos;s perception of them. Fractals allow us to study the perception of aesthetic properties (e.g. the perceived level of beauty in an image) without using recognizable content, which makes them an excellent tool for studying abstract aesthetic judgement.</p><p class=""debrief""><strong>Your part:</strong> Your participation has helped us to further understand how humans perceive these patterns across different levels of speed and complexity. This research with allow us to better understand how the visual system and brain process our ever-changing visual environments.<p class=""debrief""><strong>Feedback and Further information:</strong> If you have additional questions about this study, please feel free to ask the researcher, Nathan Gonzales-Hess at nhess @ uoregon.edu. If you have any questions concerning your rights as a research participant, please contact Research Compliance Services, 5237 University of Oregon, Eugene, OR 97403, 541-346-2510, or email researchCompliance @ uoregon.edu. You can also email the Human Subjects Coordinator for psychology and linguistics research at hscoord @ uoregon.edu. ","0","",""
"","","","","","html-button-response","391","3931250","0.0-391.0","1920x1080","","1622.2999999821186","","Thank you for participating in this study. <br>Please click below to finish the experiment and submit your responses.<br><br>","0","",""
"true","","","","","fullscreen","392","3932255","0.0-392.0","1920x1080","11:4 7/10/2022","","","","","",""
