"success","timeout","failed_images","failed_audio","failed_video","trial_type","trial_index","time_elapsed","internal_node_id","resolution","timeStamp","rt","response","stimulus","button_pressed","value","descriptor"
"true","false","[]","[]","[]","preload","0","5970","0.0-0.0","1920x1080","","","","","","",""
"true","false","[]","[]","[]","preload","1","12157","0.0-1.0","1920x1080","","","","","","",""
"true","false","[]","[]","[]","preload","2","18335","0.0-2.0","1920x1080","","","","","","",""
"true","","","","","fullscreen","3","53033","0.0-3.0","1920x1080","15:45 26/10/2022","","","","","",""
"","","","","","survey-html-form","4","61684","0.0-4.0","1920x1080","","8647.699999999255","{""age"":""21"",""gender"":""male""}","","","",""
"","","","","","html-button-response","5","94091","0.0-5.0","1920x1080","","32406.699999999255","","<div class=""complex"">You are going to see a series of animations.<br><br></div><div class=""complex"">Move the slider to indicate how <strong style=""text-transform:capitalize"">COMPLEX</strong> you find each animation.<br><br></div><div class=""complex"">0 = Least Complex<br></div><div class=""complex"">1 = Most Complex<br><br></div><div class=""complex"">Remember to use the <strong><em>entire range</em></strong> of the slider to make your ratings.<br></div><div class=""complex"">Please <strong><em>take your time</em></strong> and carefully consider each rating you make.<br><br></div><div class=""complex"">The study has five sections and will take about 45 minutes to complete.<br><br></div>","0","",""
"","","","","","call-function","6","94092","0.0-6.0","1920x1080","","","","","","",""
"","","","","","animation","7","110027","0.0-7.0","1920x1080","","15934.20000000298","25","img/314/5.5/1/bw/001.png","","","complex"
"","","","","","animation","8","119236","0.0-8.0","1920x1080","","9207.099999997765","75","img/117/3.5/2/bw/001.png","","","complex"
"","","","","","animation","9","127947","0.0-9.0","1920x1080","","8710.89999999851","20","img/238/5.5/0.66667/bw/001.png","","","complex"
"","","","","","animation","10","143315","0.0-10.0","1920x1080","","15366.5","10","img/238/5.5/2/bw/001.png","","","complex"
"","","","","","animation","11","150443","0.0-11.0","1920x1080","","7127","49.74","img/238/4/1.5/bw/001.png","","","complex"
"","","","","","animation","12","163595","0.0-12.0","1920x1080","","13151.099999997765","25.26","img/117/5.5/2/bw/001.png","","","complex"
"","","","","","animation","13","170203","0.0-13.0","1920x1080","","6607.199999999255","67.99","img/314/4/0.5/bw/001.png","","","complex"
"","","","","","animation","14","175986","0.0-14.0","1920x1080","","5782.699999999255","81.48","img/238/3.5/2/bw/001.png","","","complex"
"","","","","","animation","15","184819","0.0-15.0","1920x1080","","8832","83.99","img/314/4/1/bw/001.png","","","complex"
"","","","","","animation","16","198451","0.0-16.0","1920x1080","","13630.79999999702","71","img/238/3.5/1/bw/001.png","","","complex"
"","","","","","animation","17","203467","0.0-17.0","1920x1080","","5015","20.37","img/314/5.5/0.5/bw/001.png","","","complex"
"","","","","","animation","18","208131","0.0-18.0","1920x1080","","4663.199999999255","92.06","img/314/2.5/0.66667/bw/001.png","","","complex"
"","","","","","animation","19","213594","0.0-19.0","1920x1080","","5463.10000000149","61.11","img/238/4.5/0.66667/bw/001.png","","","complex"
"","","","","","animation","20","218298","0.0-20.0","1920x1080","","4703.199999999255","75.93","img/314/3.5/0.66667/bw/001.png","","","complex"
"","","","","","animation","21","223203","0.0-21.0","1920x1080","","4903.5","33.33","img/117/4.5/2/bw/001.png","","","complex"
"","","","","","animation","22","227554","0.0-22.0","1920x1080","","4350.79999999702","78.57","img/117/3.5/0.66667/bw/001.png","","","complex"
"","","","","","animation","23","233910","0.0-23.0","1920x1080","","6359.5","81.61","img/314/3.5/2/bw/001.png","","","complex"
"","","","","","animation","24","241686","0.0-24.0","1920x1080","","7774.699999999255","74.74","img/117/3.5/1.5/bw/001.png","","","complex"
"","","","","","animation","25","251334","0.0-25.0","1920x1080","","9646.800000000745","50.79","img/238/4.5/2/bw/001.png","","","complex"
"","","","","","animation","26","259662","0.0-26.0","1920x1080","","8327.5","24.60","img/117/5.5/0.66667/bw/001.png","","","complex"
"","","","","","animation","27","269902","0.0-27.0","1920x1080","","10238.699999999255","34.66","img/314/3.5/1/bw/001.png","","","complex"
"","","","","","animation","28","278622","0.0-28.0","1920x1080","","8719.10000000149","36","img/238/4.5/1/bw/001.png","","","complex"
"","","","","","animation","29","285606","0.0-29.0","1920x1080","","6983.300000000745","5.16","img/238/5.5/1/bw/001.png","","","complex"
"","","","","","animation","30","302458","0.0-30.0","1920x1080","","16847.199999999255","68","img/238/3.5/0.5/bw/001.png","","","complex"
"","","","","","animation","31","308331","0.0-31.0","1920x1080","","5871.60000000149","55","img/117/4/1/bw/001.png","","","complex"
"","","","","","animation","32","314779","0.0-32.0","1920x1080","","6447.10000000149","77","img/117/4/0.5/bw/001.png","","","complex"
"","","","","","animation","33","319836","0.0-33.0","1920x1080","","5055.5","67.59","img/117/4/2/bw/001.png","","","complex"
"","","","","","animation","34","325115","0.0-34.0","1920x1080","","5278","69.58","img/238/4.5/0.5/bw/001.png","","","complex"
"","","","","","animation","35","329842","0.0-35.0","1920x1080","","4726.699999999255","93.78","img/314/2.5/0.5/bw/001.png","","","complex"
"","","","","","animation","36","334578","0.0-36.0","1920x1080","","4735.10000000149","87.70","img/117/2.5/2/bw/001.png","","","complex"
"","","","","","animation","37","339147","0.0-37.0","1920x1080","","4567.199999999255","95","img/238/2.5/0.66667/bw/001.png","","","complex"
"","","","","","animation","38","344226","0.0-38.0","1920x1080","","5078.599999997765","55.42","img/238/4/2/bw/001.png","","","complex"
"","","","","","animation","39","350899","0.0-39.0","1920x1080","","6671.60000000149","13.23","img/238/5.5/0.5/bw/001.png","","","complex"
"","","","","","animation","40","360035","0.0-40.0","1920x1080","","9133.89999999851","88.49","img/117/2.5/0.66667/bw/001.png","","","complex"
"","","","","","animation","41","367193","0.0-41.0","1920x1080","","7156.699999999255","77","img/314/4/1.5/bw/001.png","","","complex"
"","","","","","animation","42","372667","0.0-42.0","1920x1080","","5472.900000002235","25.40","img/117/4.5/0.66667/bw/001.png","","","complex"
"","","","","","animation","43","377169","0.0-43.0","1920x1080","","4500.60000000149","45.50","img/117/4/0.66667/bw/001.png","","","complex"
"","","","","","animation","44","382953","0.0-44.0","1920x1080","","5782.89999999851","78.84","img/238/2.5/1/bw/001.png","","","complex"
"","","","","","animation","45","389577","0.0-45.0","1920x1080","","6623.699999999255","38","img/314/4.5/0.5/bw/001.png","","","complex"
"","","","","","animation","46","393569","0.0-46.0","1920x1080","","3990.800000000745","34.39","img/314/4.5/0.66667/bw/001.png","","","complex"
"","","","","","animation","47","398418","0.0-47.0","1920x1080","","4848.10000000149","71.96","img/238/3.5/0.66667/bw/001.png","","","complex"
"","","","","","animation","48","402385","0.0-48.0","1920x1080","","3965.89999999851","95","img/117/2.5/0.5/bw/001.png","","","complex"
"","","","","","animation","49","407769","0.0-49.0","1920x1080","","5383.10000000149","73.94","img/314/3.5/0.5/bw/001.png","","","complex"
"","","","","","animation","50","414510","0.0-50.0","1920x1080","","6743.5","97","img/238/2.5/1.5/bw/001.png","","","complex"
"","","","","","animation","51","421150","0.0-51.0","1920x1080","","6637.699999999255","10.45","img/238/5.5/1.5/bw/001.png","","","complex"
"","","","","","animation","52","429806","0.0-52.0","1920x1080","","8655.10000000149","61","img/238/3.5/1.5/bw/001.png","","","complex"
"","","","","","animation","53","435686","0.0-53.0","1920x1080","","5878.89999999851","74.34","img/238/4/0.5/bw/001.png","","","complex"
"","","","","","animation","54","447726","0.0-54.0","1920x1080","","12038.900000002235","48","img/238/4.5/1.5/bw/001.png","","","complex"
"","","","","","animation","55","462248","0.0-55.0","1920x1080","","14521.10000000149","35","img/314/4.5/1.5/bw/001.png","","","complex"
"","","","","","animation","56","467254","0.0-56.0","1920x1080","","5004.39999999851","82.94","img/117/2.5/1.5/bw/001.png","","","complex"
"","","","","","animation","57","476676","0.0-57.0","1920x1080","","9426.20000000298","64","img/238/4/0.66667/bw/001.png","","","complex"
"","","","","","animation","58","481475","0.0-58.0","1920x1080","","4798.29999999702","5.82","img/314/5.5/2/bw/001.png","","","complex"
"","","","","","animation","59","485681","0.0-59.0","1920x1080","","4204.900000002235","15.08","img/117/5.5/1.5/bw/001.png","","","complex"
"","","","","","animation","60","493929","0.0-60.0","1920x1080","","8246.599999997765","39.42","img/117/4.5/1/bw/001.png","","","complex"
"","","","","","animation","61","499129","0.0-61.0","1920x1080","","5199","89","img/314/2.5/1/bw/001.png","","","complex"
"","","","","","animation","62","504585","0.0-62.0","1920x1080","","5455.599999997765","16.93","img/117/5.5/1/bw/001.png","","","complex"
"","","","","","animation","63","512794","0.0-63.0","1920x1080","","8208","31.61","img/117/4/1.5/bw/001.png","","","complex"
"","","","","","animation","64","516865","0.0-64.0","1920x1080","","4069.5","6.88","img/314/5.5/0.66667/bw/001.png","","","complex"
"","","","","","animation","65","524476","0.0-65.0","1920x1080","","7610","55.56","img/314/4/2/bw/001.png","","","complex"
"","","","","","animation","66","530276","0.0-66.0","1920x1080","","5799.10000000149","64.95","img/314/3.5/1.5/bw/001.png","","","complex"
"","","","","","animation","67","537529","0.0-67.0","1920x1080","","7244","94","img/117/2.5/1/bw/001.png","","","complex"
"","","","","","animation","68","542041","0.0-68.0","1920x1080","","4510.60000000149","93.39","img/314/2.5/1.5/bw/001.png","","","complex"
"","","","","","animation","69","550369","0.0-69.0","1920x1080","","8326.79999999702","57.41","img/117/4.5/0.5/bw/001.png","","","complex"
"","","","","","animation","70","556104","0.0-70.0","1920x1080","","5734.199999999255","4.89","img/314/5.5/1.5/bw/001.png","","","complex"
"","","","","","animation","71","562176","0.0-71.0","1920x1080","","6070.300000000745","92.06","img/314/2.5/2/bw/001.png","","","complex"
"","","","","","animation","72","568304","0.0-72.0","1920x1080","","6126.800000000745","94","img/238/2.5/2/bw/001.png","","","complex"
"","","","","","animation","73","575272","0.0-73.0","1920x1080","","6966.39999999851","60.19","img/238/4/1/bw/001.png","","","complex"
"","","","","","animation","74","580417","0.0-74.0","1920x1080","","5143.099999997765","58.07","img/117/4.5/1.5/bw/001.png","","","complex"
"","","","","","animation","75","585545","0.0-75.0","1920x1080","","5126.39999999851","71.69","img/117/3.5/1/bw/001.png","","","complex"
"","","","","","animation","76","593335","0.0-76.0","1920x1080","","7790.300000000745","85.45","img/117/3.5/0.5/bw/001.png","","","complex"
"","","","","","animation","77","608383","0.0-77.0","1920x1080","","15047.5","61.90","img/314/4/0.66667/bw/001.png","","","complex"
"","","","","","animation","78","613417","0.0-78.0","1920x1080","","5032.60000000149","23.02","img/117/5.5/0.5/bw/001.png","","","complex"
"","","","","","animation","79","619639","0.0-79.0","1920x1080","","6221.300000000745","95","img/238/2.5/0.5/bw/001.png","","","complex"
"","","","","","animation","80","624849","0.0-80.0","1920x1080","","5207.400000002235","64.68","img/314/4.5/1/bw/001.png","","","complex"
"","","","","","animation","81","629151","0.0-81.0","1920x1080","","4300.5","56.22","img/314/4.5/2/bw/001.png","","","complex"
"","","","","","html-button-response","82","649383","0.0-82.0","1920x1080","","20230.5","","<div class=""intro"">You are about to view a new series of animations.<br><br></div><div class=""intro"">You will evaluate them based on a different descriptor.<br><br></div><div class=""intro"">Move the slider to indicate how <strong style=""text-transform:capitalize"">APPEALING</strong> you find each animation.<br><br></div><div class=""intro"">0 = Least Appealing<br></div><div class=""intro"">1 = Most Appealing<br><br></div><div class=""intro"">Remember to use the <strong><em>entire range</em></strong> of the slider to make your ratings.<br></div><div class=""intro"">Please <strong><em>take your time</em></strong> and carefully consider each rating you make.<br><br></div>","0","",""
"","","","","","call-function","83","649384","0.0-83.0","1920x1080","","","","","","",""
"","","","","","animation","84","661259","0.0-84.0","1920x1080","","11870.199999999255","67.46","img/117/4.5/1/bw/001.png","","","appealing"
"","","","","","animation","85","669795","0.0-85.0","1920x1080","","8535.199999999255","82.80","img/117/5.5/0.5/bw/001.png","","","appealing"
"","","","","","animation","86","675836","0.0-86.0","1920x1080","","6038.900000002235","35.05","img/314/2.5/2/bw/001.png","","","appealing"
"","","","","","animation","87","684611","0.0-87.0","1920x1080","","8773.599999997765","16.14","img/238/4.5/2/bw/001.png","","","appealing"
"","","","","","animation","88","698803","0.0-88.0","1920x1080","","14190.10000000149","20","img/314/4.5/1.5/bw/001.png","","","appealing"
"","","","","","animation","89","713115","0.0-89.0","1920x1080","","14318.10000000149","35.85","img/238/2.5/1.5/bw/001.png","","","appealing"
"","","","","","animation","90","728660","0.0-90.0","1920x1080","","15540.60000000149","28.04","img/117/4/1.5/bw/001.png","","","appealing"
"","","","","","animation","91","735179","0.0-91.0","1920x1080","","6517.800000000745","22.88","img/314/3.5/0.66667/bw/001.png","","","appealing"
"","","","","","animation","92","746861","0.0-92.0","1920x1080","","11681","78.70","img/314/5.5/1.5/bw/001.png","","","appealing"
"","","","","","animation","93","754883","0.0-93.0","1920x1080","","8020.29999999702","56","img/314/4.5/2/bw/001.png","","","appealing"
"","","","","","animation","94","768587","0.0-94.0","1920x1080","","13702.199999999255","15.34","img/238/4.5/0.66667/bw/001.png","","","appealing"
"","","","","","animation","95","779931","0.0-95.0","1920x1080","","11338.699999999255","89.29","img/117/5.5/0.66667/bw/001.png","","","appealing"
"","","","","","animation","96","790015","0.0-96.0","1920x1080","","10081.79999999702","70.24","img/238/2.5/2/bw/001.png","","","appealing"
"","","","","","animation","97","812967","0.0-97.0","1920x1080","","22950.599999997765","39.02","img/238/3.5/1/bw/001.png","","","appealing"
"","","","","","animation","98","827935","0.0-98.0","1920x1080","","14966.60000000149","79.50","img/238/5.5/1.5/bw/001.png","","","appealing"
"","","","","","animation","99","841966","0.0-99.0","1920x1080","","14030.699999999255","37.17","img/238/4/0.66667/bw/001.png","","","appealing"
"","","","","","animation","100","860263","0.0-100.0","1920x1080","","18295.800000000745","91.93","img/238/5.5/0.5/bw/001.png","","","appealing"
"","","","","","animation","101","875947","0.0-101.0","1920x1080","","15682.099999997765","53.04","img/314/2.5/1.5/bw/001.png","","","appealing"
"","","","","","animation","102","890518","0.0-102.0","1920x1080","","14569.5","34.39","img/238/3.5/0.66667/bw/001.png","","","appealing"
"","","","","","animation","103","903196","0.0-103.0","1920x1080","","12677.39999999851","49","img/117/4.5/0.66667/bw/001.png","","","appealing"
"","","","","","animation","104","909884","0.0-104.0","1920x1080","","6687","69.84","img/314/5.5/0.5/bw/001.png","","","appealing"
"","","","","","animation","105","918828","0.0-105.0","1920x1080","","8941.699999999255","79.50","img/314/5.5/2/bw/001.png","","","appealing"
"","","","","","animation","106","945700","0.0-106.0","1920x1080","","26871.300000000745","62.83","img/238/3.5/1.5/bw/001.png","","","appealing"
"","","","","","animation","107","951992","0.0-107.0","1920x1080","","6287","90.21","img/117/5.5/2/bw/001.png","","","appealing"
"","","","","","animation","108","957199","0.0-108.0","1920x1080","","5206.300000000745","38.62","img/117/2.5/1/bw/001.png","","","appealing"
"","","","","","animation","109","970583","0.0-109.0","1920x1080","","13382.39999999851","44.44","img/117/3.5/0.5/bw/001.png","","","appealing"
"","","","","","animation","110","978656","0.0-110.0","1920x1080","","8070.800000000745","56.48","img/238/2.5/1/bw/001.png","","","appealing"
"","","","","","animation","111","998664","0.0-111.0","1920x1080","","20006.099999997765","57.28","img/238/4/1/bw/001.png","","","appealing"
"","","","","","animation","112","1008631","0.0-112.0","1920x1080","","9965.300000000745","51","img/117/3.5/1/bw/001.png","","","appealing"
"","","","","","animation","113","1016895","0.0-113.0","1920x1080","","8265.199999999255","58.73","img/238/4/1.5/bw/001.png","","","appealing"
"","","","","","animation","114","1020177","0.0-114.0","1920x1080","","3281.39999999851","50.00","img/314/4/0.5/bw/001.png","","","appealing"
"","","","","","animation","115","1034885","0.0-115.0","1920x1080","","14706.89999999851","39","img/117/3.5/1.5/bw/001.png","","","appealing"
"","","","","","animation","116","1043060","0.0-116.0","1920x1080","","8174.5","65","img/117/4.5/2/bw/001.png","","","appealing"
"","","","","","animation","117","1049494","0.0-117.0","1920x1080","","6432.60000000149","90.87","img/314/5.5/0.66667/bw/001.png","","","appealing"
"","","","","","animation","118","1054378","0.0-118.0","1920x1080","","4881.800000000745","51.85","img/238/2.5/0.66667/bw/001.png","","","appealing"
"","","","","","animation","119","1059560","0.0-119.0","1920x1080","","5179.60000000149","90.08","img/238/5.5/2/bw/001.png","","","appealing"
"","","","","","animation","120","1111463","0.0-120.0","1920x1080","","51899.800000000745","44.05","img/117/4/1/bw/001.png","","","appealing"
"","","","","","animation","121","1116431","0.0-121.0","1920x1080","","4965.099999997765","44.84","img/238/4.5/1/bw/001.png","","","appealing"
"","","","","","animation","122","1133846","0.0-122.0","1920x1080","","17414.300000000745","33.47","img/314/3.5/1/bw/001.png","","","appealing"
"","","","","","animation","123","1139064","0.0-123.0","1920x1080","","5215.10000000149","93.65","img/238/5.5/0.66667/bw/001.png","","","appealing"
"","","","","","animation","124","1147344","0.0-124.0","1920x1080","","8279.10000000149","18.52","img/314/2.5/0.5/bw/001.png","","","appealing"
"","","","","","animation","125","1153287","0.0-125.0","1920x1080","","5940.800000000745","19","img/117/2.5/0.5/bw/001.png","","","appealing"
"","","","","","animation","126","1158783","0.0-126.0","1920x1080","","5494.70000000298","74.07","img/314/4.5/0.5/bw/001.png","","","appealing"
"","","","","","animation","127","1169296","0.0-127.0","1920x1080","","10511.5","48.81","img/117/4/0.5/bw/001.png","","","appealing"
"","","","","","animation","128","1194837","0.0-128.0","1920x1080","","25541.5","42.99","img/117/4.5/1.5/bw/001.png","","","appealing"
"","","","","","animation","129","1199395","0.0-129.0","1920x1080","","4556.199999999255","30","img/314/3.5/0.5/bw/001.png","","","appealing"
"","","","","","animation","130","1218744","0.0-130.0","1920x1080","","19347.60000000149","37.83","img/238/3.5/2/bw/001.png","","","appealing"
"","","","","","animation","131","1224901","0.0-131.0","1920x1080","","6156","90.48","img/117/5.5/1/bw/001.png","","","appealing"
"","","","","","animation","132","1230901","0.0-132.0","1920x1080","","5998.20000000298","52.91","img/314/4/2/bw/001.png","","","appealing"
"","","","","","animation","133","1243869","0.0-133.0","1920x1080","","12966.60000000149","39","img/238/4.5/1.5/bw/001.png","","","appealing"
"","","","","","animation","134","1252021","0.0-134.0","1920x1080","","8150.20000000298","90","img/314/5.5/1/bw/001.png","","","appealing"
"","","","","","animation","135","1262294","0.0-135.0","1920x1080","","10271.89999999851","75.79","img/238/4.5/0.5/bw/001.png","","","appealing"
"","","","","","animation","136","1277133","0.0-136.0","1920x1080","","14836","50.13","img/238/3.5/0.5/bw/001.png","","","appealing"
"","","","","","animation","137","1282580","0.0-137.0","1920x1080","","5446.5","30.03","img/117/2.5/0.66667/bw/001.png","","","appealing"
"","","","","","animation","138","1294301","0.0-138.0","1920x1080","","11718.79999999702","94.97","img/238/5.5/1/bw/001.png","","","appealing"
"","","","","","animation","139","1300685","0.0-139.0","1920x1080","","6380.599999997765","48.68","img/117/3.5/0.66667/bw/001.png","","","appealing"
"","","","","","animation","140","1305244","0.0-140.0","1920x1080","","4558.400000002235","35.45","img/314/3.5/2/bw/001.png","","","appealing"
"","","","","","animation","141","1313252","0.0-141.0","1920x1080","","8007","24.47","img/314/2.5/0.66667/bw/001.png","","","appealing"
"","","","","","animation","142","1317180","0.0-142.0","1920x1080","","3926.5","20.50","img/117/2.5/1.5/bw/001.png","","","appealing"
"","","","","","animation","143","1322259","0.0-143.0","1920x1080","","5078.300000000745","19.97","img/117/2.5/2/bw/001.png","","","appealing"
"","","","","","animation","144","1331675","0.0-144.0","1920x1080","","9414.099999997765","47.49","img/314/4/1.5/bw/001.png","","","appealing"
"","","","","","animation","145","1336024","0.0-145.0","1920x1080","","4345.70000000298","47.49","img/117/4.5/0.5/bw/001.png","","","appealing"
"","","","","","animation","146","1340075","0.0-146.0","1920x1080","","4049.300000000745","31.88","img/238/2.5/0.5/bw/001.png","","","appealing"
"","","","","","animation","147","1344342","0.0-147.0","1920x1080","","4265.5","76.06","img/314/4/1/bw/001.png","","","appealing"
"","","","","","animation","148","1351443","0.0-148.0","1920x1080","","7099.699999999255","59.92","img/117/4/2/bw/001.png","","","appealing"
"","","","","","animation","149","1362412","0.0-149.0","1920x1080","","10967.10000000149","71.96","img/314/4.5/1/bw/001.png","","","appealing"
"","","","","","animation","150","1368125","0.0-150.0","1920x1080","","5711.599999997765","57.67","img/238/4/2/bw/001.png","","","appealing"
"","","","","","animation","151","1383827","0.0-151.0","1920x1080","","15700.300000000745","41.53","img/314/4.5/0.66667/bw/001.png","","","appealing"
"","","","","","animation","152","1395307","0.0-152.0","1920x1080","","11478.800000000745","16","img/314/2.5/1/bw/001.png","","","appealing"
"","","","","","animation","153","1401379","0.0-153.0","1920x1080","","6070.900000002235","90.08","img/117/5.5/1.5/bw/001.png","","","appealing"
"","","","","","animation","154","1408590","0.0-154.0","1920x1080","","7209.199999999255","45.37","img/314/4/0.66667/bw/001.png","","","appealing"
"","","","","","animation","155","1413707","0.0-155.0","1920x1080","","5115.5","37.30","img/238/4/0.5/bw/001.png","","","appealing"
"","","","","","animation","156","1426723","0.0-156.0","1920x1080","","13015","45.90","img/117/4/0.66667/bw/001.png","","","appealing"
"","","","","","animation","157","1433766","0.0-157.0","1920x1080","","7037.300000000745","48.81","img/117/3.5/2/bw/001.png","","","appealing"
"","","","","","animation","158","1439829","0.0-158.0","1920x1080","","6061.79999999702","39","img/314/3.5/1.5/bw/001.png","","","appealing"
"","","","","","html-button-response","159","1464410","0.0-159.0","1920x1080","","24579.099999997765","","<div class=""intro"">You are about to view a new series of animations.<br><br></div><div class=""intro"">You will evaluate them based on a different descriptor.<br><br></div><div class=""intro"">Move the slider to indicate how <strong style=""text-transform:capitalize"">NATURAL</strong> you find each animation.<br><br></div><div class=""intro"">0 = Least Natural<br></div><div class=""intro"">1 = Most Natural<br><br></div><div class=""intro"">Remember to use the <strong><em>entire range</em></strong> of the slider to make your ratings.<br></div><div class=""intro"">Please <strong><em>take your time</em></strong> and carefully consider each rating you make.<br><br></div>","0","",""
"","","","","","call-function","160","1464413","0.0-160.0","1920x1080","","","","","","",""
"","","","","","animation","161","1479134","0.0-161.0","1920x1080","","14719.900000002235","50","img/117/3.5/1.5/bw/001.png","","","natural"
"","","","","","animation","162","1484086","0.0-162.0","1920x1080","","4950.199999999255","55.29","img/238/3.5/2/bw/001.png","","","natural"
"","","","","","animation","163","1488645","0.0-163.0","1920x1080","","4558.300000000745","64.55","img/314/4.5/0.66667/bw/001.png","","","natural"
"","","","","","animation","164","1493363","0.0-164.0","1920x1080","","4719","65.61","img/314/4/0.5/bw/001.png","","","natural"
"","","","","","animation","165","1497442","0.0-165.0","1920x1080","","4078","80.29","img/238/5.5/0.5/bw/001.png","","","natural"
"","","","","","animation","166","1502283","0.0-166.0","1920x1080","","4839.099999997765","76.98","img/117/4.5/1.5/bw/001.png","","","natural"
"","","","","","animation","167","1528389","0.0-167.0","1920x1080","","26104.5","65","img/117/4/1.5/bw/001.png","","","natural"
"","","","","","animation","168","1541242","0.0-168.0","1920x1080","","12850.800000000745","56","img/314/3.5/2/bw/001.png","","","natural"
"","","","","","animation","169","1545756","0.0-169.0","1920x1080","","4512.5","83.99","img/314/5.5/0.66667/bw/001.png","","","natural"
"","","","","","animation","170","1553061","0.0-170.0","1920x1080","","7301.300000000745","14.29","img/117/2.5/0.66667/bw/001.png","","","natural"
"","","","","","animation","171","1557592","0.0-171.0","1920x1080","","4528.300000000745","94","img/117/5.5/0.5/bw/001.png","","","natural"
"","","","","","animation","172","1577134","0.0-172.0","1920x1080","","19539.800000000745","66","img/314/4.5/2/bw/001.png","","","natural"
"","","","","","animation","173","1586559","0.0-173.0","1920x1080","","9423.5","95","img/314/5.5/1.5/bw/001.png","","","natural"
"","","","","","animation","174","1615628","0.0-174.0","1920x1080","","29069.199999999255","60","img/117/4/2/bw/001.png","","","natural"
"","","","","","animation","175","1620844","0.0-175.0","1920x1080","","5212.60000000149","47.75","img/117/3.5/0.66667/bw/001.png","","","natural"
"","","","","","animation","176","1624676","0.0-176.0","1920x1080","","3830.5","68.92","img/314/4.5/1/bw/001.png","","","natural"
"","","","","","animation","177","1629116","0.0-177.0","1920x1080","","4438.699999999255","60.19","img/238/4/2/bw/001.png","","","natural"
"","","","","","animation","178","1632332","0.0-178.0","1920x1080","","3214.699999999255","54.76","img/314/4.5/0.5/bw/001.png","","","natural"
"","","","","","animation","179","1637348","0.0-179.0","1920x1080","","5014.699999999255","89.68","img/238/5.5/0.66667/bw/001.png","","","natural"
"","","","","","animation","180","1640660","0.0-180.0","1920x1080","","3309.89999999851","46.16","img/238/4/0.5/bw/001.png","","","natural"
"","","","","","animation","181","1645790","0.0-181.0","1920x1080","","5128.300000000745","55.56","img/117/4.5/2/bw/001.png","","","natural"
"","","","","","animation","182","1654580","0.0-182.0","1920x1080","","8788.89999999851","40.87","img/238/4.5/2/bw/001.png","","","natural"
"","","","","","animation","183","1660716","0.0-183.0","1920x1080","","6134.099999997765","89.81","img/117/5.5/1/bw/001.png","","","natural"
"","","","","","animation","184","1671442","0.0-184.0","1920x1080","","10724.39999999851","35","img/314/3.5/1.5/bw/001.png","","","natural"
"","","","","","animation","185","1689259","0.0-185.0","1920x1080","","17815.699999999255","50.93","img/314/4.5/1.5/bw/001.png","","","natural"
"","","","","","animation","186","1692996","0.0-186.0","1920x1080","","3732.300000000745","34.26","img/238/3.5/0.5/bw/001.png","","","natural"
"","","","","","animation","187","1696707","0.0-187.0","1920x1080","","3710.199999999255","44.44","img/238/4/0.66667/bw/001.png","","","natural"
"","","","","","animation","188","1701875","0.0-188.0","1920x1080","","5166.599999997765","13.23","img/117/2.5/2/bw/001.png","","","natural"
"","","","","","animation","189","1711090","0.0-189.0","1920x1080","","9213","40","img/314/3.5/1/bw/001.png","","","natural"
"","","","","","animation","190","1717773","0.0-190.0","1920x1080","","6681.599999997765","41.67","img/238/4/1/bw/001.png","","","natural"
"","","","","","animation","191","1723540","0.0-191.0","1920x1080","","5766.099999997765","49.74","img/117/4/0.5/bw/001.png","","","natural"
"","","","","","animation","192","1727227","0.0-192.0","1920x1080","","3685.199999999255","14.55","img/238/2.5/2/bw/001.png","","","natural"
"","","","","","animation","193","1731156","0.0-193.0","1920x1080","","3927.800000000745","7.41","img/238/2.5/0.5/bw/001.png","","","natural"
"","","","","","animation","194","1735762","0.0-194.0","1920x1080","","4605.800000000745","30.42","img/117/3.5/0.5/bw/001.png","","","natural"
"","","","","","animation","195","1744638","0.0-195.0","1920x1080","","8873.900000002235","95","img/238/5.5/2/bw/001.png","","","natural"
"","","","","","animation","196","1748273","0.0-196.0","1920x1080","","3632.7000000029802","63.62","img/117/4.5/1/bw/001.png","","","natural"
"","","","","","animation","197","1751610","0.0-197.0","1920x1080","","3336.39999999851","51.19","img/238/4.5/0.5/bw/001.png","","","natural"
"","","","","","animation","198","1757306","0.0-198.0","1920x1080","","5694.39999999851","43.78","img/314/4/0.66667/bw/001.png","","","natural"
"","","","","","animation","199","1763874","0.0-199.0","1920x1080","","6566.79999999702","3.17","img/238/2.5/0.66667/bw/001.png","","","natural"
"","","","","","animation","200","1776410","0.0-200.0","1920x1080","","12535","44","img/314/4/1.5/bw/001.png","","","natural"
"","","","","","animation","201","1781130","0.0-201.0","1920x1080","","4718.699999999255","13","img/117/2.5/0.5/bw/001.png","","","natural"
"","","","","","animation","202","1813717","0.0-202.0","1920x1080","","32582.599999997765","36.77","img/238/3.5/1.5/bw/001.png","","","natural"
"","","","","","animation","203","1818045","0.0-203.0","1920x1080","","4326.10000000149","91.53","img/314/5.5/0.5/bw/001.png","","","natural"
"","","","","","animation","204","1822197","0.0-204.0","1920x1080","","4150.60000000149","71.56","img/238/4.5/1/bw/001.png","","","natural"
"","","","","","animation","205","1826476","0.0-205.0","1920x1080","","4278.199999999255","86.77","img/117/5.5/0.66667/bw/001.png","","","natural"
"","","","","","animation","206","1831192","0.0-206.0","1920x1080","","4714.699999999255","41.53","img/117/4/0.66667/bw/001.png","","","natural"
"","","","","","animation","207","1835607","0.0-207.0","1920x1080","","4411.900000002235","8.73","img/314/2.5/2/bw/001.png","","","natural"
"","","","","","animation","208","1840776","0.0-208.0","1920x1080","","5167.29999999702","97","img/117/5.5/2/bw/001.png","","","natural"
"","","","","","animation","209","1845845","0.0-209.0","1920x1080","","5066.300000000745","75.66","img/238/4/1.5/bw/001.png","","","natural"
"","","","","","animation","210","1854039","0.0-210.0","1920x1080","","8194.699999999255","59.79","img/238/4.5/1.5/bw/001.png","","","natural"
"","","","","","animation","211","1859690","0.0-211.0","1920x1080","","5648.599999997765","9.52","img/238/2.5/1.5/bw/001.png","","","natural"
"","","","","","animation","212","1863506","0.0-212.0","1920x1080","","3814.599999997765","58.60","img/238/4.5/0.66667/bw/001.png","","","natural"
"","","","","","animation","213","1873211","0.0-213.0","1920x1080","","9702.800000000745","83","img/117/5.5/1.5/bw/001.png","","","natural"
"","","","","","animation","214","1880826","0.0-214.0","1920x1080","","7614.60000000149","66.67","img/117/3.5/1/bw/001.png","","","natural"
"","","","","","animation","215","1891978","0.0-215.0","1920x1080","","11149.89999999851","43.65","img/238/3.5/0.66667/bw/001.png","","","natural"
"","","","","","animation","216","1899388","0.0-216.0","1920x1080","","7406.199999999255","29.37","img/117/3.5/2/bw/001.png","","","natural"
"","","","","","animation","217","1906474","0.0-217.0","1920x1080","","7085.10000000149","11","img/314/2.5/0.5/bw/001.png","","","natural"
"","","","","","animation","218","1910705","0.0-218.0","1920x1080","","4228.599999997765","8.86","img/314/2.5/0.66667/bw/001.png","","","natural"
"","","","","","animation","219","1915021","0.0-219.0","1920x1080","","4315.60000000149","14.95","img/117/2.5/1/bw/001.png","","","natural"
"","","","","","animation","220","1922237","0.0-220.0","1920x1080","","7215.10000000149","34.79","img/238/3.5/1/bw/001.png","","","natural"
"","","","","","animation","221","1928010","0.0-221.0","1920x1080","","5771.10000000149","11.24","img/314/2.5/1/bw/001.png","","","natural"
"","","","","","animation","222","1933010","0.0-222.0","1920x1080","","4998.199999999255","35.45","img/314/3.5/0.5/bw/001.png","","","natural"
"","","","","","animation","223","1938171","0.0-223.0","1920x1080","","5159.199999999255","67.46","img/314/4/2/bw/001.png","","","natural"
"","","","","","animation","224","1944921","0.0-224.0","1920x1080","","6749.20000000298","73","img/117/4.5/0.66667/bw/001.png","","","natural"
"","","","","","animation","225","1948994","0.0-225.0","1920x1080","","4070.5","3.44","img/238/2.5/1/bw/001.png","","","natural"
"","","","","","animation","226","1952762","0.0-226.0","1920x1080","","3766.10000000149","7.54","img/314/2.5/1.5/bw/001.png","","","natural"
"","","","","","animation","227","1956737","0.0-227.0","1920x1080","","3973","32.14","img/314/4/1/bw/001.png","","","natural"
"","","","","","animation","228","2005355","0.0-228.0","1920x1080","","48614.20000000298","41.01","img/314/3.5/0.66667/bw/001.png","","","natural"
"","","","","","animation","229","2009748","0.0-229.0","1920x1080","","4389.300000000745","33","img/117/4.5/0.5/bw/001.png","","","natural"
"","","","","","animation","230","2013812","0.0-230.0","1920x1080","","4062.199999999255","90.48","img/314/5.5/1/bw/001.png","","","natural"
"","","","","","animation","231","2020106","0.0-231.0","1920x1080","","6291.900000002235","37.96","img/117/4/1/bw/001.png","","","natural"
"","","","","","animation","232","2023723","0.0-232.0","1920x1080","","3614.699999999255","85.58","img/238/5.5/1/bw/001.png","","","natural"
"","","","","","animation","233","2026989","0.0-233.0","1920x1080","","3263.89999999851","89.02","img/238/5.5/1.5/bw/001.png","","","natural"
"","","","","","animation","234","2030564","0.0-234.0","1920x1080","","3573.199999999255","92.33","img/314/5.5/2/bw/001.png","","","natural"
"","","","","","animation","235","2033843","0.0-235.0","1920x1080","","3278.5","3.84","img/117/2.5/1.5/bw/001.png","","","natural"
"","","","","","html-button-response","236","2052659","0.0-236.0","1920x1080","","18814.5","","<div class=""intro"">You are about to view a new series of animations.<br><br></div><div class=""intro"">You will evaluate them based on a different descriptor.<br><br></div><div class=""intro"">Move the slider to indicate how <strong style=""text-transform:capitalize"">INTERESTING</strong> you find each animation.<br><br></div><div class=""intro"">0 = Least Interesting<br></div><div class=""intro"">1 = Most Interesting<br><br></div><div class=""intro"">Remember to use the <strong><em>entire range</em></strong> of the slider to make your ratings.<br></div><div class=""intro"">Please <strong><em>take your time</em></strong> and carefully consider each rating you make.<br><br></div>","0","",""
"","","","","","call-function","237","2052660","0.0-237.0","1920x1080","","","","","","",""
"","","","","","animation","238","2056740","0.0-238.0","1920x1080","","4079.300000000745","92","img/117/4/0.5/bw/001.png","","","interesting"
"","","","","","animation","239","2059221","0.0-239.0","1920x1080","","2479.5","92.20","img/238/4/0.66667/bw/001.png","","","interesting"
"","","","","","animation","240","2064171","0.0-240.0","1920x1080","","4946.800000000745","33.73","img/314/4.5/2/bw/001.png","","","interesting"
"","","","","","animation","241","2068107","0.0-241.0","1920x1080","","3934.5","7.80","img/238/5.5/2/bw/001.png","","","interesting"
"","","","","","animation","242","2071821","0.0-242.0","1920x1080","","3713.199999999255","13.89","img/314/5.5/2/bw/001.png","","","interesting"
"","","","","","animation","243","2074738","0.0-243.0","1920x1080","","2915.199999999255","89.15","img/117/2.5/1.5/bw/001.png","","","interesting"
"","","","","","animation","244","2079259","0.0-244.0","1920x1080","","4519.89999999851","81.08","img/117/5.5/1/bw/001.png","","","interesting"
"","","","","","animation","245","2083021","0.0-245.0","1920x1080","","3760.10000000149","29.50","img/238/5.5/0.5/bw/001.png","","","interesting"
"","","","","","animation","246","2085907","0.0-246.0","1920x1080","","2884.39999999851","35.32","img/117/5.5/0.66667/bw/001.png","","","interesting"
"","","","","","animation","247","2090338","0.0-247.0","1920x1080","","4430.39999999851","67.46","img/117/4/1/bw/001.png","","","interesting"
"","","","","","animation","248","2094508","0.0-248.0","1920x1080","","4166.39999999851","24.21","img/238/3.5/2/bw/001.png","","","interesting"
"","","","","","animation","249","2098623","0.0-249.0","1920x1080","","4113.699999999255","47.62","img/117/4.5/1/bw/001.png","","","interesting"
"","","","","","animation","250","2101580","0.0-250.0","1920x1080","","2956","68","img/314/4/0.66667/bw/001.png","","","interesting"
"","","","","","animation","251","2107272","0.0-251.0","1920x1080","","5690.79999999702","60","img/117/4.5/0.66667/bw/001.png","","","interesting"
"","","","","","animation","252","2109892","0.0-252.0","1920x1080","","2618.199999999255","90.48","img/117/2.5/1/bw/001.png","","","interesting"
"","","","","","animation","253","2113539","0.0-253.0","1920x1080","","3646.699999999255","77.65","img/314/5.5/0.66667/bw/001.png","","","interesting"
"","","","","","animation","254","2117460","0.0-254.0","1920x1080","","3918.599999997765","45.50","img/314/3.5/1/bw/001.png","","","interesting"
"","","","","","animation","255","2120522","0.0-255.0","1920x1080","","3060.39999999851","84.13","img/314/2.5/2/bw/001.png","","","interesting"
"","","","","","animation","256","2124980","0.0-256.0","1920x1080","","4456.599999997765","76.32","img/117/3.5/2/bw/001.png","","","interesting"
"","","","","","animation","257","2130628","0.0-257.0","1920x1080","","5646.599999997765","66","img/314/4.5/1/bw/001.png","","","interesting"
"","","","","","animation","258","2146005","0.0-258.0","1920x1080","","15375.89999999851","84.66","img/238/3.5/1/bw/001.png","","","interesting"
"","","","","","animation","259","2149339","0.0-259.0","1920x1080","","3330.699999999255","67","img/314/3.5/0.66667/bw/001.png","","","interesting"
"","","","","","animation","260","2152801","0.0-260.0","1920x1080","","3455","33.73","img/238/4/1.5/bw/001.png","","","interesting"
"","","","","","animation","261","2158816","0.0-261.0","1920x1080","","6013.79999999702","49","img/238/5.5/1/bw/001.png","","","interesting"
"","","","","","animation","262","2162660","0.0-262.0","1920x1080","","3841.5","38.89","img/117/4/1.5/bw/001.png","","","interesting"
"","","","","","animation","263","2165817","0.0-263.0","1920x1080","","3155.400000002235","41.01","img/238/4/1/bw/001.png","","","interesting"
"","","","","","animation","264","2169493","0.0-264.0","1920x1080","","3675.199999999255","89.95","img/117/2.5/2/bw/001.png","","","interesting"
"","","","","","animation","265","2174827","0.0-265.0","1920x1080","","5332.10000000149","54.37","img/314/3.5/2/bw/001.png","","","interesting"
"","","","","","animation","266","2181710","0.0-266.0","1920x1080","","6880.199999999255","77.51","img/117/5.5/2/bw/001.png","","","interesting"
"","","","","","animation","267","2185710","0.0-267.0","1920x1080","","3996.699999999255","71.83","img/117/3.5/1.5/bw/001.png","","","interesting"
"","","","","","animation","268","2189176","0.0-268.0","1920x1080","","3465.199999999255","35","img/117/3.5/0.66667/bw/001.png","","","interesting"
"","","","","","animation","269","2193544","0.0-269.0","1920x1080","","4366.5","60.85","img/117/4/2/bw/001.png","","","interesting"
"","","","","","animation","270","2199293","0.0-270.0","1920x1080","","5747.5","80.95","img/238/5.5/0.66667/bw/001.png","","","interesting"
"","","","","","animation","271","2206360","0.0-271.0","1920x1080","","7065.60000000149","80.82","img/238/4.5/0.5/bw/001.png","","","interesting"
"","","","","","animation","272","2211543","0.0-272.0","1920x1080","","5181.300000000745","99","img/314/2.5/0.5/bw/001.png","","","interesting"
"","","","","","animation","273","2214416","0.0-273.0","1920x1080","","2871.699999999255","97","img/117/2.5/0.5/bw/001.png","","","interesting"
"","","","","","animation","274","2224128","0.0-274.0","1920x1080","","9710.20000000298","45","img/117/4.5/2/bw/001.png","","","interesting"
"","","","","","animation","275","2229265","0.0-275.0","1920x1080","","5134.39999999851","58.33","img/314/4/1.5/bw/001.png","","","interesting"
"","","","","","animation","276","2234743","0.0-276.0","1920x1080","","5477.300000000745","44.84","img/117/4.5/0.5/bw/001.png","","","interesting"
"","","","","","animation","277","2245080","0.0-277.0","1920x1080","","10336","68","img/238/4.5/1/bw/001.png","","","interesting"
"","","","","","animation","278","2250127","0.0-278.0","1920x1080","","5044.800000000745","86.51","img/238/2.5/1/bw/001.png","","","interesting"
"","","","","","animation","279","2254793","0.0-279.0","1920x1080","","4664.89999999851","91.27","img/117/3.5/0.5/bw/001.png","","","interesting"
"","","","","","animation","280","2261232","0.0-280.0","1920x1080","","6437.199999999255","60","img/117/4.5/1.5/bw/001.png","","","interesting"
"","","","","","animation","281","2267221","0.0-281.0","1920x1080","","5986.70000000298","84.66","img/238/5.5/1.5/bw/001.png","","","interesting"
"","","","","","animation","282","2273713","0.0-282.0","1920x1080","","6489.900000002235","51","img/314/3.5/1.5/bw/001.png","","","interesting"
"","","","","","animation","283","2277128","0.0-283.0","1920x1080","","3412.800000000745","90.61","img/314/5.5/0.5/bw/001.png","","","interesting"
"","","","","","animation","284","2281611","0.0-284.0","1920x1080","","4481.800000000745","68.12","img/314/4/1/bw/001.png","","","interesting"
"","","","","","animation","285","2286644","0.0-285.0","1920x1080","","5031.900000002235","71.56","img/238/4.5/0.66667/bw/001.png","","","interesting"
"","","","","","animation","286","2291113","0.0-286.0","1920x1080","","4466.900000002235","40","img/238/4.5/1.5/bw/001.png","","","interesting"
"","","","","","animation","287","2294202","0.0-287.0","1920x1080","","3087.2000000029802","95","img/117/5.5/0.5/bw/001.png","","","interesting"
"","","","","","animation","288","2298018","0.0-288.0","1920x1080","","3814.5","92.06","img/238/2.5/0.66667/bw/001.png","","","interesting"
"","","","","","animation","289","2305544","0.0-289.0","1920x1080","","7524.699999999255","63","img/314/4.5/0.5/bw/001.png","","","interesting"
"","","","","","animation","290","2313362","0.0-290.0","1920x1080","","7814.300000000745","74","img/117/3.5/1/bw/001.png","","","interesting"
"","","","","","animation","291","2325611","0.0-291.0","1920x1080","","12247.60000000149","61","img/314/4/2/bw/001.png","","","interesting"
"","","","","","animation","292","2332781","0.0-292.0","1920x1080","","7165.39999999851","40.21","img/314/4/0.5/bw/001.png","","","interesting"
"","","","","","animation","293","2336767","0.0-293.0","1920x1080","","3984.199999999255","90","img/314/5.5/1.5/bw/001.png","","","interesting"
"","","","","","animation","294","2340502","0.0-294.0","1920x1080","","3729","71","img/314/3.5/0.5/bw/001.png","","","interesting"
"","","","","","animation","295","2343198","0.0-295.0","1920x1080","","2694.5","53","img/314/4.5/0.66667/bw/001.png","","","interesting"
"","","","","","animation","296","2350181","0.0-296.0","1920x1080","","6981.800000000745","90.87","img/314/2.5/1.5/bw/001.png","","","interesting"
"","","","","","animation","297","2357598","0.0-297.0","1920x1080","","7414.39999999851","39","img/238/3.5/0.66667/bw/001.png","","","interesting"
"","","","","","animation","298","2361764","0.0-298.0","1920x1080","","4164.5","52.12","img/238/4/0.5/bw/001.png","","","interesting"
"","","","","","animation","299","2366269","0.0-299.0","1920x1080","","4503.699999999255","61.38","img/117/4/0.66667/bw/001.png","","","interesting"
"","","","","","animation","300","2369814","0.0-300.0","1920x1080","","3543.300000000745","85.05","img/117/2.5/0.66667/bw/001.png","","","interesting"
"","","","","","animation","301","2380397","0.0-301.0","1920x1080","","10581.10000000149","100","img/314/5.5/1/bw/001.png","","","interesting"
"","","","","","animation","302","2383798","0.0-302.0","1920x1080","","3397","73","img/238/4.5/2/bw/001.png","","","interesting"
"","","","","","animation","303","2387933","0.0-303.0","1920x1080","","4133.5","89.15","img/314/2.5/1/bw/001.png","","","interesting"
"","","","","","animation","304","2391248","0.0-304.0","1920x1080","","3312.5","68","img/238/2.5/0.5/bw/001.png","","","interesting"
"","","","","","animation","305","2397587","0.0-305.0","1920x1080","","6331.099999997765","93","img/117/5.5/1.5/bw/001.png","","","interesting"
"","","","","","animation","306","2402887","0.0-306.0","1920x1080","","5297.800000000745","86","img/314/2.5/0.66667/bw/001.png","","","interesting"
"","","","","","animation","307","2408723","0.0-307.0","1920x1080","","5834","71.16","img/238/4/2/bw/001.png","","","interesting"
"","","","","","animation","308","2413027","0.0-308.0","1920x1080","","4301","63.23","img/314/4.5/1.5/bw/001.png","","","interesting"
"","","","","","animation","309","2417398","0.0-309.0","1920x1080","","4369.10000000149","70.11","img/238/3.5/0.5/bw/001.png","","","interesting"
"","","","","","animation","310","2421244","0.0-310.0","1920x1080","","3844.10000000149","77.25","img/238/2.5/2/bw/001.png","","","interesting"
"","","","","","animation","311","2425954","0.0-311.0","1920x1080","","4708.39999999851","76.85","img/238/3.5/1.5/bw/001.png","","","interesting"
"","","","","","animation","312","2430987","0.0-312.0","1920x1080","","5031.29999999702","85","img/238/2.5/1.5/bw/001.png","","","interesting"
"","","","","","html-button-response","313","2450308","0.0-313.0","1920x1080","","19319.10000000149","","<div class=""intro"">You are about to view a new series of animations.<br><br></div><div class=""intro"">You will evaluate them based on a different descriptor.<br><br></div><div class=""intro"">Move the slider to indicate how <strong style=""text-transform:capitalize"">RELAXING</strong> you find each animation.<br><br></div><div class=""intro"">0 = Least Relaxing<br></div><div class=""intro"">1 = Most Relaxing<br><br></div><div class=""intro"">Remember to use the <strong><em>entire range</em></strong> of the slider to make your ratings.<br></div><div class=""intro"">Please <strong><em>take your time</em></strong> and carefully consider each rating you make.<br><br></div>","0","",""
"","","","","","call-function","314","2450309","0.0-314.0","1920x1080","","","","","","",""
"","","","","","animation","315","2454920","0.0-315.0","1920x1080","","4615.39999999851","74.21","img/238/3.5/2/bw/001.png","","","relaxing"
"","","","","","animation","316","2459632","0.0-316.0","1920x1080","","4709.800000000745","2","img/238/2.5/1/bw/001.png","","","relaxing"
"","","","","","animation","317","2462654","0.0-317.0","1920x1080","","3020.699999999255","8.33","img/117/3.5/0.5/bw/001.png","","","relaxing"
"","","","","","animation","318","2468934","0.0-318.0","1920x1080","","6277.79999999702","51","img/314/3.5/1/bw/001.png","","","relaxing"
"","","","","","animation","319","2471838","0.0-319.0","1920x1080","","2902.5","94","img/314/5.5/1/bw/001.png","","","relaxing"
"","","","","","animation","320","2483198","0.0-320.0","1920x1080","","11358.699999999255","33.07","img/238/4.5/0.5/bw/001.png","","","relaxing"
"","","","","","animation","321","2491016","0.0-321.0","1920x1080","","7816.300000000745","88","img/117/5.5/0.66667/bw/001.png","","","relaxing"
"","","","","","animation","322","2494334","0.0-322.0","1920x1080","","3316.60000000149","87.30","img/117/5.5/2/bw/001.png","","","relaxing"
"","","","","","animation","323","2498464","0.0-323.0","1920x1080","","4128.599999997765","1.72","img/238/2.5/0.5/bw/001.png","","","relaxing"
"","","","","","animation","324","2504750","0.0-324.0","1920x1080","","6283.599999997765","23.28","img/117/4.5/2/bw/001.png","","","relaxing"
"","","","","","animation","325","2508054","0.0-325.0","1920x1080","","3302.599999997765","38.36","img/238/4.5/1.5/bw/001.png","","","relaxing"
"","","","","","animation","326","2511835","0.0-326.0","1920x1080","","3775.400000002235","46.43","img/238/4.5/1/bw/001.png","","","relaxing"
"","","","","","animation","327","2515337","0.0-327.0","1920x1080","","3500.699999999255","1.72","img/314/2.5/0.5/bw/001.png","","","relaxing"
"","","","","","animation","328","2519937","0.0-328.0","1920x1080","","4598.099999997765","64.02","img/314/4.5/2/bw/001.png","","","relaxing"
"","","","","","animation","329","2526488","0.0-329.0","1920x1080","","6550.29999999702","71","img/314/4.5/0.5/bw/001.png","","","relaxing"
"","","","","","animation","330","2535889","0.0-330.0","1920x1080","","9396.800000000745","86","img/314/4.5/1.5/bw/001.png","","","relaxing"
"","","","","","animation","331","2539569","0.0-331.0","1920x1080","","3677.900000002235","89.42","img/117/5.5/1.5/bw/001.png","","","relaxing"
"","","","","","animation","332","2565089","0.0-332.0","1920x1080","","25517.89999999851","67.46","img/314/4/2/bw/001.png","","","relaxing"
"","","","","","animation","333","2568334","0.0-333.0","1920x1080","","3241.89999999851","92.20","img/238/5.5/0.66667/bw/001.png","","","relaxing"
"","","","","","animation","334","2572485","0.0-334.0","1920x1080","","4148.39999999851","18.65","img/117/4/0.5/bw/001.png","","","relaxing"
"","","","","","animation","335","2576274","0.0-335.0","1920x1080","","3787.7000000029802","27.91","img/238/4/2/bw/001.png","","","relaxing"
"","","","","","animation","336","2582336","0.0-336.0","1920x1080","","6059.699999999255","26.19","img/117/4.5/0.66667/bw/001.png","","","relaxing"
"","","","","","animation","337","2587138","0.0-337.0","1920x1080","","4800.199999999255","84.26","img/117/5.5/0.5/bw/001.png","","","relaxing"
"","","","","","animation","338","2591543","0.0-338.0","1920x1080","","4404.10000000149","30.16","img/117/4/1.5/bw/001.png","","","relaxing"
"","","","","","animation","339","2602951","0.0-339.0","1920x1080","","11405.199999999255","74","img/238/4.5/2/bw/001.png","","","relaxing"
"","","","","","animation","340","2606352","0.0-340.0","1920x1080","","3399.5","34.52","img/314/3.5/2/bw/001.png","","","relaxing"
"","","","","","animation","341","2609511","0.0-341.0","1920x1080","","3152.800000000745","9.39","img/117/2.5/2/bw/001.png","","","relaxing"
"","","","","","animation","342","2612981","0.0-342.0","1920x1080","","3467.800000000745","45.24","img/238/4/1.5/bw/001.png","","","relaxing"
"","","","","","animation","343","2616474","0.0-343.0","1920x1080","","3491.60000000149","94.05","img/314/5.5/2/bw/001.png","","","relaxing"
"","","","","","animation","344","2623035","0.0-344.0","1920x1080","","6558.599999997765","52","img/117/4.5/1/bw/001.png","","","relaxing"
"","","","","","animation","345","2629077","0.0-345.0","1920x1080","","6040.5","3","img/117/2.5/1.5/bw/001.png","","","relaxing"
"","","","","","animation","346","2632152","0.0-346.0","1920x1080","","3075.39999999851","15.08","img/117/4.5/0.5/bw/001.png","","","relaxing"
"","","","","","animation","347","2636267","0.0-347.0","1920x1080","","4113.10000000149","90.48","img/314/5.5/1.5/bw/001.png","","","relaxing"
"","","","","","animation","348","2638768","0.0-348.0","1920x1080","","2499.300000000745","11.11","img/314/2.5/0.66667/bw/001.png","","","relaxing"
"","","","","","animation","349","2642133","0.0-349.0","1920x1080","","3363.800000000745","28.31","img/238/3.5/1.5/bw/001.png","","","relaxing"
"","","","","","animation","350","2645667","0.0-350.0","1920x1080","","3532","96","img/238/5.5/1/bw/001.png","","","relaxing"
"","","","","","animation","351","2648433","0.0-351.0","1920x1080","","2765.10000000149","41.93","img/117/3.5/1/bw/001.png","","","relaxing"
"","","","","","animation","352","2654383","0.0-352.0","1920x1080","","5948.70000000298","32","img/314/4/0.66667/bw/001.png","","","relaxing"
"","","","","","animation","353","2665118","0.0-353.0","1920x1080","","10733.900000002235","31.08","img/238/4/0.5/bw/001.png","","","relaxing"
"","","","","","animation","354","2668898","0.0-354.0","1920x1080","","3778.599999997765","0.93","img/238/2.5/0.66667/bw/001.png","","","relaxing"
"","","","","","animation","355","2671833","0.0-355.0","1920x1080","","2931.199999999255","6.35","img/238/2.5/2/bw/001.png","","","relaxing"
"","","","","","animation","356","2674950","0.0-356.0","1920x1080","","3115","31.61","img/238/4/0.66667/bw/001.png","","","relaxing"
"","","","","","animation","357","2679472","0.0-357.0","1920x1080","","4521.199999999255","61.90","img/314/4/1.5/bw/001.png","","","relaxing"
"","","","","","animation","358","2682117","0.0-358.0","1920x1080","","2642.39999999851","70.77","img/314/4.5/0.66667/bw/001.png","","","relaxing"
"","","","","","animation","359","2686920","0.0-359.0","1920x1080","","4801","70.24","img/117/4/1/bw/001.png","","","relaxing"
"","","","","","animation","360","2690084","0.0-360.0","1920x1080","","3160.5","39.15","img/314/4/0.5/bw/001.png","","","relaxing"
"","","","","","animation","361","2694442","0.0-361.0","1920x1080","","4355.400000002235","98","img/238/5.5/1.5/bw/001.png","","","relaxing"
"","","","","","animation","362","2698267","0.0-362.0","1920x1080","","3823.10000000149","2.12","img/117/2.5/0.5/bw/001.png","","","relaxing"
"","","","","","animation","363","2700768","0.0-363.0","1920x1080","","2498.400000002235","5.29","img/117/2.5/1/bw/001.png","","","relaxing"
"","","","","","animation","364","2704901","0.0-364.0","1920x1080","","4131.599999997765","92.33","img/238/5.5/2/bw/001.png","","","relaxing"
"","","","","","animation","365","2707284","0.0-365.0","1920x1080","","2381.5","2.65","img/314/2.5/1.5/bw/001.png","","","relaxing"
"","","","","","animation","366","2710362","0.0-366.0","1920x1080","","3076","41.40","img/314/4.5/1/bw/001.png","","","relaxing"
"","","","","","animation","367","2714318","0.0-367.0","1920x1080","","3954.099999997765","5.95","img/117/2.5/0.66667/bw/001.png","","","relaxing"
"","","","","","animation","368","2717768","0.0-368.0","1920x1080","","3447.89999999851","6","img/238/3.5/0.66667/bw/001.png","","","relaxing"
"","","","","","animation","369","2720669","0.0-369.0","1920x1080","","2900.5","21.83","img/314/3.5/0.5/bw/001.png","","","relaxing"
"","","","","","animation","370","2723417","0.0-370.0","1920x1080","","2745","56.48","img/117/4/2/bw/001.png","","","relaxing"
"","","","","","animation","371","2726976","0.0-371.0","1920x1080","","3557.2000000029802","45.11","img/117/4/0.66667/bw/001.png","","","relaxing"
"","","","","","animation","372","2730174","0.0-372.0","1920x1080","","3197.10000000149","96","img/117/5.5/1/bw/001.png","","","relaxing"
"","","","","","animation","373","2732887","0.0-373.0","1920x1080","","2710","4.76","img/314/2.5/1/bw/001.png","","","relaxing"
"","","","","","animation","374","2736003","0.0-374.0","1920x1080","","3114.5","95","img/314/5.5/0.5/bw/001.png","","","relaxing"
"","","","","","animation","375","2738412","0.0-375.0","1920x1080","","2407.300000000745","16.14","img/117/3.5/2/bw/001.png","","","relaxing"
"","","","","","animation","376","2741126","0.0-376.0","1920x1080","","2711.699999999255","28.44","img/314/3.5/0.66667/bw/001.png","","","relaxing"
"","","","","","animation","377","2744305","0.0-377.0","1920x1080","","3177.7999999970198","32.67","img/314/3.5/1.5/bw/001.png","","","relaxing"
"","","","","","animation","378","2748035","0.0-378.0","1920x1080","","3728.10000000149","34.39","img/238/3.5/1/bw/001.png","","","relaxing"
"","","","","","animation","379","2757101","0.0-379.0","1920x1080","","9066.199999999255","52.91","img/238/4.5/0.66667/bw/001.png","","","relaxing"
"","","","","","animation","380","2760477","0.0-380.0","1920x1080","","3374.10000000149","33.86","img/238/3.5/0.5/bw/001.png","","","relaxing"
"","","","","","animation","381","2763306","0.0-381.0","1920x1080","","2827.5","4.63","img/238/2.5/1.5/bw/001.png","","","relaxing"
"","","","","","animation","382","2765849","0.0-382.0","1920x1080","","2540.89999999851","97","img/314/5.5/0.66667/bw/001.png","","","relaxing"
"","","","","","animation","383","2769403","0.0-383.0","1920x1080","","3552.300000000745","96","img/238/5.5/0.5/bw/001.png","","","relaxing"
"","","","","","animation","384","2772650","0.0-384.0","1920x1080","","3244.5","2.12","img/314/2.5/2/bw/001.png","","","relaxing"
"","","","","","animation","385","2788066","0.0-385.0","1920x1080","","15414.300000000745","65","img/117/4.5/1.5/bw/001.png","","","relaxing"
"","","","","","animation","386","2791536","0.0-386.0","1920x1080","","3468.300000000745","58.86","img/314/4/1/bw/001.png","","","relaxing"
"","","","","","animation","387","2795905","0.0-387.0","1920x1080","","4367.699999999255","42.33","img/238/4/1/bw/001.png","","","relaxing"
"","","","","","animation","388","2812178","0.0-388.0","1920x1080","","16266.099999997765","58","img/117/3.5/1.5/bw/001.png","","","relaxing"
"","","","","","animation","389","2815888","0.0-389.0","1920x1080","","3708.400000002235","37.30","img/117/3.5/0.66667/bw/001.png","","","relaxing"
"","","","","","html-button-response","390","2859629","0.0-390.0","1920x1080","","43739.300000000745","","<strong>Study Debriefing</strong><br><p class=""debrief""><strong>Background:</strong> The patterns you rated are called <em>fractals</em>. The term fractal describes a class of irregular curves or shapes for which any suitably chosen part is similar in shape to a given larger or smaller part when magnified or reduced to the same size. Fractal properties are found throughout the natural and manmade world. The series of animations you saw today displayed animated fractal patterns of a varying complexity.</p><p class=""debrief""><strong>Purpose of this study:</strong> We hope to better understand how the perception of static fractals differs from the perception of animated fractals, and how the speed of the animated patterns influences people&apos;s perception of them. Fractals allow us to study the perception of aesthetic properties (e.g. the perceived level of beauty in an image) without using recognizable content, which makes them an excellent tool for studying abstract aesthetic judgement.</p><p class=""debrief""><strong>Your part:</strong> Your participation has helped us to further understand how humans perceive these patterns across different levels of speed and complexity. This research with allow us to better understand how the visual system and brain process our ever-changing visual environments.<p class=""debrief""><strong>Feedback and Further information:</strong> If you have additional questions about this study, please feel free to ask the researcher, Nathan Gonzales-Hess at nhess @ uoregon.edu. If you have any questions concerning your rights as a research participant, please contact Research Compliance Services, 5237 University of Oregon, Eugene, OR 97403, 541-346-2510, or email researchCompliance @ uoregon.edu. You can also email the Human Subjects Coordinator for psychology and linguistics research at hscoord @ uoregon.edu. ","0","",""
"","","","","","html-button-response","391","2866144","0.0-391.0","1920x1080","","6509.900000002235","","Thank you for participating in this study. <br>Please click below to finish the experiment and submit your responses.<br><br>","0","",""
"true","","","","","fullscreen","392","2867188","0.0-392.0","1920x1080","16:32 26/10/2022","","","","","",""
