"success","timeout","failed_images","failed_audio","failed_video","trial_type","trial_index","time_elapsed","internal_node_id","resolution","timeStamp","rt","response","stimulus","button_pressed","value","descriptor"
"true","false","[]","[]","[]","preload","0","14809","0.0-0.0","1920x1080","","","","","","",""
"true","false","[]","[]","[]","preload","1","31183","0.0-1.0","1920x1080","","","","","","",""
"true","false","[]","[]","[]","preload","2","47922","0.0-2.0","1920x1080","","","","","","",""
"true","","","","","fullscreen","3","933483","0.0-3.0","1920x1080","13:43 27/5/2022","","","","","",""
"","","","","","survey-html-form","4","945542","0.0-4.0","1920x1080","","12054","{""age"":""19"",""gender"":""Female""}","","","",""
"","","","","","html-button-response","5","973982","0.0-5.0","1920x1080","","28438.800000071526","","<div class=""complex"">You are going to see a series of animations.<br><br></div><div class=""complex"">Move the slider to indicate how <strong style=""text-transform:capitalize"">COMPLEX</strong> you find each animation.<br><br></div><div class=""complex"">0 = Least Complex<br></div><div class=""complex"">1 = Most Complex<br><br></div><div class=""complex"">Remember to use the <strong><em>entire range</em></strong> of the slider to make your ratings.<br></div><div class=""complex"">Please <strong><em>take your time</em></strong> and carefully consider each rating you make.<br><br></div><div class=""complex"">The study has five sections and will take about 45 minutes to complete.<br><br></div>","0","",""
"","","","","","call-function","6","973983","0.0-6.0","1920x1080","","","","","","",""
"","","","","","animation","7","1009935","0.0-7.0","1920x1080","","35947.700000047684","30","img/117/5.5/2/bw/001.png","","","complex"
"","","","","","animation","8","1017470","0.0-8.0","1920x1080","","7534.699999928474","60","img/314/4/0.5/bw/001.png","","","complex"
"","","","","","animation","9","1025342","0.0-9.0","1920x1080","","7871","80.16","img/117/4/0.5/bw/001.png","","","complex"
"","","","","","animation","10","1035774","0.0-10.0","1920x1080","","10431.200000047684","43","img/238/3.5/2/bw/001.png","","","complex"
"","","","","","animation","11","1049142","0.0-11.0","1920x1080","","13367.299999952316","15","img/238/4.5/1/bw/001.png","","","complex"
"","","","","","animation","12","1056887","0.0-12.0","1920x1080","","7743","69.58","img/238/3.5/0.5/bw/001.png","","","complex"
"","","","","","animation","13","1070735","0.0-13.0","1920x1080","","13846.900000095367","50.26","img/314/4/1/bw/001.png","","","complex"
"","","","","","animation","14","1082575","0.0-14.0","1920x1080","","11838.800000071526","46.03","img/117/4.5/0.66667/bw/001.png","","","complex"
"","","","","","animation","15","1088335","0.0-15.0","1920x1080","","5758.799999952316","64.55","img/314/3.5/2/bw/001.png","","","complex"
"","","","","","animation","16","1099391","0.0-16.0","1920x1080","","11055.600000023842","0.00","img/238/5.5/0.66667/bw/001.png","","","complex"
"","","","","","animation","17","1111215","0.0-17.0","1920x1080","","11822.5","-3.70","img/238/5.5/0.5/bw/001.png","","","complex"
"","","","","","animation","18","1133424","0.0-18.0","1920x1080","","22207.100000023842","9.92","img/314/4.5/2/bw/001.png","","","complex"
"","","","","","animation","19","1143488","0.0-19.0","1920x1080","","10062.199999928474","56","img/117/4.5/0.5/bw/001.png","","","complex"
"","","","","","animation","20","1151281","0.0-20.0","1920x1080","","7793","97","img/238/2.5/1.5/bw/001.png","","","complex"
"","","","","","animation","21","1158152","0.0-21.0","1920x1080","","6869.299999952316","100","img/314/2.5/2/bw/001.png","","","complex"
"","","","","","animation","22","1167232","0.0-22.0","1920x1080","","9078.899999976158","96","img/117/3.5/0.5/bw/001.png","","","complex"
"","","","","","animation","23","1180393","0.0-23.0","1920x1080","","13159.400000095367","46.30","img/314/4/2/bw/001.png","","","complex"
"","","","","","animation","24","1186489","0.0-24.0","1920x1080","","6094.900000095367","42.06","img/117/4.5/1/bw/001.png","","","complex"
"","","","","","animation","25","1193649","0.0-25.0","1920x1080","","7159.400000095367","92.99","img/314/2.5/0.66667/bw/001.png","","","complex"
"","","","","","animation","26","1201889","0.0-26.0","1920x1080","","8238.800000071526","67.06","img/314/3.5/1.5/bw/001.png","","","complex"
"","","","","","animation","27","1212041","0.0-27.0","1920x1080","","10151.399999976158","19.71","img/314/5.5/0.5/bw/001.png","","","complex"
"","","","","","animation","28","1218153","0.0-28.0","1920x1080","","6110.699999928474","38.23","img/117/4/1/bw/001.png","","","complex"
"","","","","","animation","29","1223689","0.0-29.0","1920x1080","","5535.099999904633","27.25","img/238/4/1.5/bw/001.png","","","complex"
"","","","","","animation","30","1233529","0.0-30.0","1920x1080","","9839","77.91","img/314/2.5/1.5/bw/001.png","","","complex"
"","","","","","animation","31","1237562","0.0-31.0","1920x1080","","4031.100000023842","86.51","img/314/3.5/0.66667/bw/001.png","","","complex"
"","","","","","animation","32","1255585","0.0-32.0","1920x1080","","18022.800000071526","57","img/117/4/1.5/bw/001.png","","","complex"
"","","","","","animation","33","1259953","0.0-33.0","1920x1080","","4367.199999928474","21.96","img/314/4.5/1.5/bw/001.png","","","complex"
"","","","","","animation","34","1271169","0.0-34.0","1920x1080","","11215","45.63","img/117/4/2/bw/001.png","","","complex"
"","","","","","animation","35","1275977","0.0-35.0","1920x1080","","4807.199999928474","74.07","img/117/3.5/1/bw/001.png","","","complex"
"","","","","","animation","36","1279546","0.0-36.0","1920x1080","","3566.8000000715256","89.42","img/117/2.5/2/bw/001.png","","","complex"
"","","","","","animation","37","1293538","0.0-37.0","1920x1080","","13990.5","13.36","img/117/5.5/1/bw/001.png","","","complex"
"","","","","","animation","38","1299250","0.0-38.0","1920x1080","","5710.600000023842","71.03","img/238/3.5/0.66667/bw/001.png","","","complex"
"","","","","","animation","39","1313194","0.0-39.0","1920x1080","","13943.900000095367","76","img/238/4/0.5/bw/001.png","","","complex"
"","","","","","animation","40","1316386","0.0-40.0","1920x1080","","3190.600000023842","91.40","img/314/2.5/1/bw/001.png","","","complex"
"","","","","","animation","41","1319290","0.0-41.0","1920x1080","","2903.5","97","img/117/2.5/0.5/bw/001.png","","","complex"
"","","","","","animation","42","1325202","0.0-42.0","1920x1080","","5910.799999952316","46.30","img/238/4.5/0.66667/bw/001.png","","","complex"
"","","","","","animation","43","1330100","0.0-43.0","1920x1080","","4896.300000071526","5.82","img/314/5.5/0.66667/bw/001.png","","","complex"
"","","","","","animation","44","1335284","0.0-44.0","1920x1080","","5182.600000023842","89.95","img/238/2.5/1/bw/001.png","","","complex"
"","","","","","animation","45","1346538","0.0-45.0","1920x1080","","11253.5","5.29","img/117/5.5/1.5/bw/001.png","","","complex"
"","","","","","animation","46","1350658","0.0-46.0","1920x1080","","4118.299999952316","17.72","img/314/4.5/0.5/bw/001.png","","","complex"
"","","","","","animation","47","1359396","0.0-47.0","1920x1080","","8735.400000095367","87.83","img/238/2.5/0.66667/bw/001.png","","","complex"
"","","","","","animation","48","1362755","0.0-48.0","1920x1080","","3358.399999976158","95","img/314/2.5/0.5/bw/001.png","","","complex"
"","","","","","animation","49","1375579","0.0-49.0","1920x1080","","12822.800000071526","86","img/238/2.5/2/bw/001.png","","","complex"
"","","","","","animation","50","1381285","0.0-50.0","1920x1080","","5704.799999952316","53.57","img/238/4/2/bw/001.png","","","complex"
"","","","","","animation","51","1393948","0.0-51.0","1920x1080","","12661.699999928474","68.39","img/314/3.5/1/bw/001.png","","","complex"
"","","","","","animation","52","1401548","0.0-52.0","1920x1080","","7596.700000047684","55.82","img/238/4.5/0.5/bw/001.png","","","complex"
"","","","","","animation","53","1407485","0.0-53.0","1920x1080","","5936","67.46","img/117/3.5/1.5/bw/001.png","","","complex"
"","","","","","animation","54","1417324","0.0-54.0","1920x1080","","9836.800000071526","73.68","img/117/3.5/2/bw/001.png","","","complex"
"","","","","","animation","55","1429603","0.0-55.0","1920x1080","","12278.600000023842","0","img/238/5.5/1.5/bw/001.png","","","complex"
"","","","","","animation","56","1435003","0.0-56.0","1920x1080","","5398.199999928474","96","img/117/2.5/0.66667/bw/001.png","","","complex"
"","","","","","animation","57","1441476","0.0-57.0","1920x1080","","6471.399999976158","42.86","img/117/4.5/2/bw/001.png","","","complex"
"","","","","","animation","58","1446260","0.0-58.0","1920x1080","","4783.099999904633","51.19","img/117/4.5/1.5/bw/001.png","","","complex"
"","","","","","animation","59","1452876","0.0-59.0","1920x1080","","6615.100000023842","31.08","img/117/5.5/0.66667/bw/001.png","","","complex"
"","","","","","animation","60","1459534","0.0-60.0","1920x1080","","6657.600000023842","54.89","img/238/4.5/1.5/bw/001.png","","","complex"
"","","","","","animation","61","1463164","0.0-61.0","1920x1080","","3628.0999999046326","73.15","img/117/3.5/0.66667/bw/001.png","","","complex"
"","","","","","animation","62","1480477","0.0-62.0","1920x1080","","17310.799999952316","4.63","img/314/5.5/2/bw/001.png","","","complex"
"","","","","","animation","63","1485109","0.0-63.0","1920x1080","","4627.199999928474","65.61","img/117/4/0.66667/bw/001.png","","","complex"
"","","","","","animation","64","1488621","0.0-64.0","1920x1080","","3510.600000023842","93.78","img/117/2.5/1/bw/001.png","","","complex"
"","","","","","animation","65","1497319","0.0-65.0","1920x1080","","8697.399999976158","67.33","img/238/4/1/bw/001.png","","","complex"
"","","","","","animation","66","1507686","0.0-66.0","1920x1080","","10366.200000047684","54.23","img/314/4/1.5/bw/001.png","","","complex"
"","","","","","animation","67","1512037","0.0-67.0","1920x1080","","4348.699999928474","100","img/238/2.5/0.5/bw/001.png","","","complex"
"","","","","","animation","68","1521093","0.0-68.0","1920x1080","","9054.800000071526","42.20","img/314/4.5/1/bw/001.png","","","complex"
"","","","","","animation","69","1529925","0.0-69.0","1920x1080","","8831.100000023842","53.17","img/238/3.5/1/bw/001.png","","","complex"
"","","","","","animation","70","1538613","0.0-70.0","1920x1080","","8686.299999952316","83","img/314/3.5/0.5/bw/001.png","","","complex"
"","","","","","animation","71","1548621","0.0-71.0","1920x1080","","10006.5","8.73","img/238/5.5/1/bw/001.png","","","complex"
"","","","","","animation","72","1554136","0.0-72.0","1920x1080","","5511.800000071526","34.92","img/238/4.5/2/bw/001.png","","","complex"
"","","","","","animation","73","1563989","0.0-73.0","1920x1080","","9851.399999976158","77.25","img/117/2.5/1.5/bw/001.png","","","complex"
"","","","","","animation","74","1569918","0.0-74.0","1920x1080","","5927.200000047684","82.54","img/238/3.5/1.5/bw/001.png","","","complex"
"","","","","","animation","75","1580997","0.0-75.0","1920x1080","","11077.100000023842","56.22","img/314/4.5/0.66667/bw/001.png","","","complex"
"","","","","","animation","76","1590677","0.0-76.0","1920x1080","","9676.100000023842","71","img/238/4/0.66667/bw/001.png","","","complex"
"","","","","","animation","77","1598694","0.0-77.0","1920x1080","","8015.100000023842","6.08","img/238/5.5/2/bw/001.png","","","complex"
"","","","","","animation","78","1603110","0.0-78.0","1920x1080","","4413","12.17","img/314/5.5/1/bw/001.png","","","complex"
"","","","","","animation","79","1609678","0.0-79.0","1920x1080","","6566.799999952316","22.88","img/117/5.5/0.5/bw/001.png","","","complex"
"","","","","","animation","80","1618174","0.0-80.0","1920x1080","","8494.100000023842","53.70","img/314/4/0.66667/bw/001.png","","","complex"
"","","","","","animation","81","1626770","0.0-81.0","1920x1080","","8595.100000023842","24.07","img/314/5.5/1.5/bw/001.png","","","complex"
"","","","","","html-button-response","82","1658879","0.0-82.0","1920x1080","","32107.299999952316","","<div class=""intro"">You are about to view a new series of animations.<br><br></div><div class=""intro"">You will evaluate them based on a different descriptor.<br><br></div><div class=""intro"">Move the slider to indicate how <strong style=""text-transform:capitalize"">APPEALING</strong> you find each animation.<br><br></div><div class=""intro"">0 = Least Appealing<br></div><div class=""intro"">1 = Most Appealing<br><br></div><div class=""intro"">Remember to use the <strong><em>entire range</em></strong> of the slider to make your ratings.<br></div><div class=""intro"">Please <strong><em>take your time</em></strong> and carefully consider each rating you make.<br><br></div>","0","",""
"","","","","","call-function","83","1658883","0.0-83.0","1920x1080","","","","","","",""
"","","","","","animation","84","1669942","0.0-84.0","1920x1080","","11058.199999928474","57.14","img/117/4.5/1.5/bw/001.png","","","appealing"
"","","","","","animation","85","1677662","0.0-85.0","1920x1080","","7718.300000071526","24.07","img/117/3.5/1/bw/001.png","","","appealing"
"","","","","","animation","86","1683386","0.0-86.0","1920x1080","","5722.899999976158","79.37","img/238/5.5/0.5/bw/001.png","","","appealing"
"","","","","","animation","87","1692478","0.0-87.0","1920x1080","","9091.5","85.98","img/314/5.5/0.66667/bw/001.png","","","appealing"
"","","","","","animation","88","1702222","0.0-88.0","1920x1080","","9741.600000023842","88","img/117/5.5/1/bw/001.png","","","appealing"
"","","","","","animation","89","1705630","0.0-89.0","1920x1080","","3407","73.54","img/314/4.5/0.66667/bw/001.png","","","appealing"
"","","","","","animation","90","1711638","0.0-90.0","1920x1080","","6006.700000047684","52.25","img/117/4/0.66667/bw/001.png","","","appealing"
"","","","","","animation","91","1716622","0.0-91.0","1920x1080","","4983.100000023842","36.77","img/238/3.5/0.5/bw/001.png","","","appealing"
"","","","","","animation","92","1725736","0.0-92.0","1920x1080","","9113.399999976158","65.08","img/314/5.5/0.5/bw/001.png","","","appealing"
"","","","","","animation","93","1730686","0.0-93.0","1920x1080","","4947.900000095367","77.25","img/117/5.5/1.5/bw/001.png","","","appealing"
"","","","","","animation","94","1734606","0.0-94.0","1920x1080","","3918.899999976158","4.23","img/117/2.5/1.5/bw/001.png","","","appealing"
"","","","","","animation","95","1738686","0.0-95.0","1920x1080","","4078.600000023842","36.24","img/117/4/0.5/bw/001.png","","","appealing"
"","","","","","animation","96","1743998","0.0-96.0","1920x1080","","5311.5","84.79","img/117/4.5/2/bw/001.png","","","appealing"
"","","","","","animation","97","1746854","0.0-97.0","1920x1080","","2854.3000000715256","7.94","img/314/2.5/0.5/bw/001.png","","","appealing"
"","","","","","animation","98","1756169","0.0-98.0","1920x1080","","9314.699999928474","34.92","img/314/3.5/1.5/bw/001.png","","","appealing"
"","","","","","animation","99","1761438","0.0-99.0","1920x1080","","5265.300000071526","5.56","img/314/2.5/0.66667/bw/001.png","","","appealing"
"","","","","","animation","100","1772046","0.0-100.0","1920x1080","","10607.600000023842","69.05","img/238/5.5/1.5/bw/001.png","","","appealing"
"","","","","","animation","101","1781370","0.0-101.0","1920x1080","","9322.399999976158","42.99","img/314/3.5/0.5/bw/001.png","","","appealing"
"","","","","","animation","102","1788321","0.0-102.0","1920x1080","","6950.100000023842","84.79","img/117/5.5/2/bw/001.png","","","appealing"
"","","","","","animation","103","1794470","0.0-103.0","1920x1080","","6147.600000023842","49.47","img/238/4/0.5/bw/001.png","","","appealing"
"","","","","","animation","104","1807879","0.0-104.0","1920x1080","","13407.100000023842","75.53","img/238/5.5/2/bw/001.png","","","appealing"
"","","","","","animation","105","1814591","0.0-105.0","1920x1080","","6708.100000023842","68.65","img/117/4.5/0.5/bw/001.png","","","appealing"
"","","","","","animation","106","1820270","0.0-106.0","1920x1080","","5678.299999952316","25.40","img/314/3.5/0.66667/bw/001.png","","","appealing"
"","","","","","animation","107","1826902","0.0-107.0","1920x1080","","6630.399999976158","7.01","img/117/2.5/2/bw/001.png","","","appealing"
"","","","","","animation","108","1839743","0.0-108.0","1920x1080","","12839.200000047684","40.74","img/314/4.5/0.5/bw/001.png","","","appealing"
"","","","","","animation","109","1845624","0.0-109.0","1920x1080","","5879.199999928474","27.78","img/117/3.5/0.5/bw/001.png","","","appealing"
"","","","","","animation","110","1852376","0.0-110.0","1920x1080","","6750.699999928474","77.65","img/238/4.5/2/bw/001.png","","","appealing"
"","","","","","animation","111","1856970","0.0-111.0","1920x1080","","4592.899999976158","66.53","img/314/4/1/bw/001.png","","","appealing"
"","","","","","animation","112","1863570","0.0-112.0","1920x1080","","6599.600000023842","49.87","img/238/3.5/1.5/bw/001.png","","","appealing"
"","","","","","animation","113","1868439","0.0-113.0","1920x1080","","4867.799999952316","58.73","img/117/4/1/bw/001.png","","","appealing"
"","","","","","animation","114","1871737","0.0-114.0","1920x1080","","3296.5","2.38","img/238/2.5/0.66667/bw/001.png","","","appealing"
"","","","","","animation","115","1877039","0.0-115.0","1920x1080","","5301.299999952316","7.01","img/314/2.5/2/bw/001.png","","","appealing"
"","","","","","animation","116","1881943","0.0-116.0","1920x1080","","4903.200000047684","41.40","img/314/4/0.5/bw/001.png","","","appealing"
"","","","","","animation","117","1889203","0.0-117.0","1920x1080","","7258.900000095367","35.45","img/238/3.5/1/bw/001.png","","","appealing"
"","","","","","animation","118","1900208","0.0-118.0","1920x1080","","11003.5","65","img/117/5.5/0.5/bw/001.png","","","appealing"
"","","","","","animation","119","1907792","0.0-119.0","1920x1080","","7582.799999952316","-0.93","img/238/2.5/0.5/bw/001.png","","","appealing"
"","","","","","animation","120","1911871","0.0-120.0","1920x1080","","4077.7999999523163","23.81","img/117/3.5/0.66667/bw/001.png","","","appealing"
"","","","","","animation","121","1917976","0.0-121.0","1920x1080","","6103.299999952316","67.20","img/314/5.5/2/bw/001.png","","","appealing"
"","","","","","animation","122","1921992","0.0-122.0","1920x1080","","4014.5","76.46","img/117/5.5/0.66667/bw/001.png","","","appealing"
"","","","","","animation","123","1928220","0.0-123.0","1920x1080","","6226.700000047684","82.67","img/314/4.5/1.5/bw/001.png","","","appealing"
"","","","","","animation","124","1934471","0.0-124.0","1920x1080","","6250.5","54.63","img/314/3.5/1/bw/001.png","","","appealing"
"","","","","","animation","125","1942586","0.0-125.0","1920x1080","","8112.399999976158","62.57","img/117/4.5/1/bw/001.png","","","appealing"
"","","","","","animation","126","1946360","0.0-126.0","1920x1080","","3771.1999999284744","11.64","img/238/2.5/2/bw/001.png","","","appealing"
"","","","","","animation","127","1954064","0.0-127.0","1920x1080","","7702.899999976158","44.58","img/238/4.5/0.66667/bw/001.png","","","appealing"
"","","","","","animation","128","1960203","0.0-128.0","1920x1080","","6138.100000023842","4.23","img/238/2.5/1/bw/001.png","","","appealing"
"","","","","","animation","129","1965770","0.0-129.0","1920x1080","","5565.5","0","img/238/2.5/1.5/bw/001.png","","","appealing"
"","","","","","animation","130","1970008","0.0-130.0","1920x1080","","4236.699999928474","-8.86","img/117/2.5/0.66667/bw/001.png","","","appealing"
"","","","","","animation","131","1982944","0.0-131.0","1920x1080","","12935.100000023842","68.39","img/238/5.5/1/bw/001.png","","","appealing"
"","","","","","animation","132","1987128","0.0-132.0","1920x1080","","4182.799999952316","1.32","img/314/2.5/1/bw/001.png","","","appealing"
"","","","","","animation","133","1994020","0.0-133.0","1920x1080","","6891.399999976158","78.70","img/238/4.5/1.5/bw/001.png","","","appealing"
"","","","","","animation","134","2003055","0.0-134.0","1920x1080","","9033.899999976158","80.69","img/314/4/1.5/bw/001.png","","","appealing"
"","","","","","animation","135","2014370","0.0-135.0","1920x1080","","11312.200000047684","74.21","img/314/5.5/1/bw/001.png","","","appealing"
"","","","","","animation","136","2022960","0.0-136.0","1920x1080","","8588.700000047684","66.27","img/117/3.5/2/bw/001.png","","","appealing"
"","","","","","animation","137","2027613","0.0-137.0","1920x1080","","4651.5","19.84","img/238/3.5/0.66667/bw/001.png","","","appealing"
"","","","","","animation","138","2032112","0.0-138.0","1920x1080","","4495.799999952316","9.92","img/314/2.5/1.5/bw/001.png","","","appealing"
"","","","","","animation","139","2036760","0.0-139.0","1920x1080","","4646.600000023842","0","img/117/2.5/0.5/bw/001.png","","","appealing"
"","","","","","animation","140","2043136","0.0-140.0","1920x1080","","6374.799999952316","55.82","img/238/4.5/1/bw/001.png","","","appealing"
"","","","","","animation","141","2047569","0.0-141.0","1920x1080","","4432.199999928474","63.76","img/117/4.5/0.66667/bw/001.png","","","appealing"
"","","","","","animation","142","2052904","0.0-142.0","1920x1080","","5331.700000047684","67.99","img/238/4/1/bw/001.png","","","appealing"
"","","","","","animation","143","2065328","0.0-143.0","1920x1080","","12422.800000071526","55.16","img/238/4/1.5/bw/001.png","","","appealing"
"","","","","","animation","144","2075329","0.0-144.0","1920x1080","","9999.200000047684","48.68","img/238/4.5/0.5/bw/001.png","","","appealing"
"","","","","","animation","145","2079065","0.0-145.0","1920x1080","","3735.100000023842","45.63","img/314/4/0.66667/bw/001.png","","","appealing"
"","","","","","animation","146","2086945","0.0-146.0","1920x1080","","7878.5","41.40","img/238/3.5/2/bw/001.png","","","appealing"
"","","","","","animation","147","2093857","0.0-147.0","1920x1080","","6910","67.59","img/314/4.5/2/bw/001.png","","","appealing"
"","","","","","animation","148","2099225","0.0-148.0","1920x1080","","5366.199999928474","40.61","img/314/3.5/2/bw/001.png","","","appealing"
"","","","","","animation","149","2103945","0.0-149.0","1920x1080","","4719","50.40","img/117/4/2/bw/001.png","","","appealing"
"","","","","","animation","150","2112657","0.0-150.0","1920x1080","","8710.400000095367","52.78","img/314/4.5/1/bw/001.png","","","appealing"
"","","","","","animation","151","2120641","0.0-151.0","1920x1080","","7983.100000023842","60.98","img/238/4/2/bw/001.png","","","appealing"
"","","","","","animation","152","2135825","0.0-152.0","1920x1080","","15182.899999976158","53","img/314/4/2/bw/001.png","","","appealing"
"","","","","","animation","153","2140137","0.0-153.0","1920x1080","","4311","3.84","img/117/2.5/1/bw/001.png","","","appealing"
"","","","","","animation","154","2146105","0.0-154.0","1920x1080","","5966.100000023842","40.61","img/117/4/1.5/bw/001.png","","","appealing"
"","","","","","animation","155","2154221","0.0-155.0","1920x1080","","8114.100000023842","66.53","img/238/5.5/0.66667/bw/001.png","","","appealing"
"","","","","","animation","156","2161209","0.0-156.0","1920x1080","","6987.399999976158","71.96","img/314/5.5/1.5/bw/001.png","","","appealing"
"","","","","","animation","157","2168281","0.0-157.0","1920x1080","","7070.800000071526","48.15","img/238/4/0.66667/bw/001.png","","","appealing"
"","","","","","animation","158","2180281","0.0-158.0","1920x1080","","11998.099999904633","41.80","img/117/3.5/1.5/bw/001.png","","","appealing"
"","","","","","html-button-response","159","2225722","0.0-159.0","1920x1080","","45438","","<div class=""intro"">You are about to view a new series of animations.<br><br></div><div class=""intro"">You will evaluate them based on a different descriptor.<br><br></div><div class=""intro"">Move the slider to indicate how <strong style=""text-transform:capitalize"">RELAXING</strong> you find each animation.<br><br></div><div class=""intro"">0 = Least Relaxing<br></div><div class=""intro"">1 = Most Relaxing<br><br></div><div class=""intro"">Remember to use the <strong><em>entire range</em></strong> of the slider to make your ratings.<br></div><div class=""intro"">Please <strong><em>take your time</em></strong> and carefully consider each rating you make.<br><br></div>","0","",""
"","","","","","call-function","160","2225726","0.0-160.0","1920x1080","","","","","","",""
"","","","","","animation","161","2232787","0.0-161.0","1920x1080","","7060.5","42.20","img/314/4.5/2/bw/001.png","","","relaxing"
"","","","","","animation","162","2236705","0.0-162.0","1920x1080","","3916.5","6.75","img/238/3.5/0.66667/bw/001.png","","","relaxing"
"","","","","","animation","163","2241961","0.0-163.0","1920x1080","","5254.5","95","img/238/5.5/1.5/bw/001.png","","","relaxing"
"","","","","","animation","164","2251041","0.0-164.0","1920x1080","","9077.399999976158","35","img/314/4.5/1/bw/001.png","","","relaxing"
"","","","","","animation","165","2258143","0.0-165.0","1920x1080","","7100.100000023842","54.50","img/238/5.5/1/bw/001.png","","","relaxing"
"","","","","","animation","166","2273288","0.0-166.0","1920x1080","","15143.399999976158","73.02","img/117/5.5/1.5/bw/001.png","","","relaxing"
"","","","","","animation","167","2277873","0.0-167.0","1920x1080","","4584.100000023842","32.41","img/238/4.5/1.5/bw/001.png","","","relaxing"
"","","","","","animation","168","2282057","0.0-168.0","1920x1080","","4182.699999928474","20.90","img/238/3.5/2/bw/001.png","","","relaxing"
"","","","","","animation","169","2287441","0.0-169.0","1920x1080","","5383.099999904633","19.31","img/314/4/2/bw/001.png","","","relaxing"
"","","","","","animation","170","2295687","0.0-170.0","1920x1080","","8244.100000023842","22.88","img/314/4.5/1.5/bw/001.png","","","relaxing"
"","","","","","animation","171","2299554","0.0-171.0","1920x1080","","3865.5","17.06","img/117/4/2/bw/001.png","","","relaxing"
"","","","","","animation","172","2306657","0.0-172.0","1920x1080","","7102.600000023842","14.15","img/314/4/1.5/bw/001.png","","","relaxing"
"","","","","","animation","173","2314854","0.0-173.0","1920x1080","","8195.600000023842","41.01","img/314/5.5/0.66667/bw/001.png","","","relaxing"
"","","","","","animation","174","2317837","0.0-174.0","1920x1080","","2980.399999976158","0.00","img/238/2.5/0.5/bw/001.png","","","relaxing"
"","","","","","animation","175","2326642","0.0-175.0","1920x1080","","8803.399999976158","25.00","img/238/4.5/2/bw/001.png","","","relaxing"
"","","","","","animation","176","2333305","0.0-176.0","1920x1080","","6660.799999952316","14.95","img/238/4.5/1/bw/001.png","","","relaxing"
"","","","","","animation","177","2340089","0.0-177.0","1920x1080","","6782.600000023842","11.11","img/117/4.5/0.66667/bw/001.png","","","relaxing"
"","","","","","animation","178","2345514","0.0-178.0","1920x1080","","5423","8.33","img/314/4.5/0.66667/bw/001.png","","","relaxing"
"","","","","","animation","179","2348889","0.0-179.0","1920x1080","","3374.2000000476837","0.00","img/117/2.5/0.5/bw/001.png","","","relaxing"
"","","","","","animation","180","2352705","0.0-180.0","1920x1080","","3814.899999976158","5.56","img/238/3.5/1.5/bw/001.png","","","relaxing"
"","","","","","animation","181","2358945","0.0-181.0","1920x1080","","6239","63.89","img/314/5.5/2/bw/001.png","","","relaxing"
"","","","","","animation","182","2362457","0.0-182.0","1920x1080","","3510.2000000476837","0","img/314/2.5/0.66667/bw/001.png","","","relaxing"
"","","","","","animation","183","2369121","0.0-183.0","1920x1080","","6662.799999952316","42.20","img/314/5.5/0.5/bw/001.png","","","relaxing"
"","","","","","animation","184","2376306","0.0-184.0","1920x1080","","7182.600000023842","-6.88","img/117/2.5/0.66667/bw/001.png","","","relaxing"
"","","","","","animation","185","2381471","0.0-185.0","1920x1080","","5162.400000095367","14.95","img/117/4/1.5/bw/001.png","","","relaxing"
"","","","","","animation","186","2384779","0.0-186.0","1920x1080","","3305.5","10.58","img/117/4/0.66667/bw/001.png","","","relaxing"
"","","","","","animation","187","2389515","0.0-187.0","1920x1080","","4734.899999976158","37.17","img/238/5.5/0.5/bw/001.png","","","relaxing"
"","","","","","animation","188","2392888","0.0-188.0","1920x1080","","3372.3000000715256","15.87","img/117/3.5/0.5/bw/001.png","","","relaxing"
"","","","","","animation","189","2401747","0.0-189.0","1920x1080","","8857.100000023842","9","img/238/4/0.5/bw/001.png","","","relaxing"
"","","","","","animation","190","2404672","0.0-190.0","1920x1080","","2923.7000000476837","6.61","img/117/4.5/0.5/bw/001.png","","","relaxing"
"","","","","","animation","191","2409322","0.0-191.0","1920x1080","","4649.299999952316","17.46","img/117/3.5/2/bw/001.png","","","relaxing"
"","","","","","animation","192","2412855","0.0-192.0","1920x1080","","3531.2000000476837","0","img/314/2.5/1/bw/001.png","","","relaxing"
"","","","","","animation","193","2424011","0.0-193.0","1920x1080","","11154.600000023842","96","img/238/5.5/2/bw/001.png","","","relaxing"
"","","","","","animation","194","2431163","0.0-194.0","1920x1080","","7150.700000047684","56.35","img/117/4.5/2/bw/001.png","","","relaxing"
"","","","","","animation","195","2434147","0.0-195.0","1920x1080","","2982.7000000476837","37","img/238/4/2/bw/001.png","","","relaxing"
"","","","","","animation","196","2437854","0.0-196.0","1920x1080","","3706.5","14.55","img/314/3.5/1.5/bw/001.png","","","relaxing"
"","","","","","animation","197","2442255","0.0-197.0","1920x1080","","4398.899999976158","35.32","img/117/5.5/0.5/bw/001.png","","","relaxing"
"","","","","","animation","198","2448179","0.0-198.0","1920x1080","","5922.799999952316","23","img/117/3.5/1.5/bw/001.png","","","relaxing"
"","","","","","animation","199","2452055","0.0-199.0","1920x1080","","3874.7999999523163","0.00","img/238/2.5/0.66667/bw/001.png","","","relaxing"
"","","","","","animation","200","2454771","0.0-200.0","1920x1080","","2715.100000023842","0","img/238/2.5/2/bw/001.png","","","relaxing"
"","","","","","animation","201","2459655","0.0-201.0","1920x1080","","4882.699999928474","0","img/117/3.5/0.66667/bw/001.png","","","relaxing"
"","","","","","animation","202","2465443","0.0-202.0","1920x1080","","5786.5","65.74","img/117/5.5/1/bw/001.png","","","relaxing"
"","","","","","animation","203","2470090","0.0-203.0","1920x1080","","4645.900000095367","43.39","img/314/4/1/bw/001.png","","","relaxing"
"","","","","","animation","204","2472538","0.0-204.0","1920x1080","","2445.899999976158","34.39","img/117/3.5/1/bw/001.png","","","relaxing"
"","","","","","animation","205","2482674","0.0-205.0","1920x1080","","10135","4","img/238/3.5/0.5/bw/001.png","","","relaxing"
"","","","","","animation","206","2486531","0.0-206.0","1920x1080","","3855","0","img/238/2.5/1.5/bw/001.png","","","relaxing"
"","","","","","animation","207","2490779","0.0-207.0","1920x1080","","4246.600000023842","4.37","img/117/4/1/bw/001.png","","","relaxing"
"","","","","","animation","208","2494805","0.0-208.0","1920x1080","","4024.8000000715256","0.40","img/314/2.5/1.5/bw/001.png","","","relaxing"
"","","","","","animation","209","2498306","0.0-209.0","1920x1080","","3500.3000000715256","18.12","img/117/4.5/1/bw/001.png","","","relaxing"
"","","","","","animation","210","2509938","0.0-210.0","1920x1080","","11630.600000023842","79","img/314/5.5/1.5/bw/001.png","","","relaxing"
"","","","","","animation","211","2514205","0.0-211.0","1920x1080","","4264.200000047684","29.89","img/238/4/0.66667/bw/001.png","","","relaxing"
"","","","","","animation","212","2517259","0.0-212.0","1920x1080","","3053","22.75","img/238/3.5/1/bw/001.png","","","relaxing"
"","","","","","animation","213","2521211","0.0-213.0","1920x1080","","3950.5","0","img/117/2.5/2/bw/001.png","","","relaxing"
"","","","","","animation","214","2525507","0.0-214.0","1920x1080","","4293.800000071526","0.40","img/117/2.5/1.5/bw/001.png","","","relaxing"
"","","","","","animation","215","2529705","0.0-215.0","1920x1080","","4196.799999952316","0","img/238/2.5/1/bw/001.png","","","relaxing"
"","","","","","animation","216","2533723","0.0-216.0","1920x1080","","4016.5","0.40","img/117/2.5/1/bw/001.png","","","relaxing"
"","","","","","animation","217","2537763","0.0-217.0","1920x1080","","4038.600000023842","6.75","img/314/3.5/2/bw/001.png","","","relaxing"
"","","","","","animation","218","2541011","0.0-218.0","1920x1080","","3246","0.40","img/314/2.5/2/bw/001.png","","","relaxing"
"","","","","","animation","219","2553721","0.0-219.0","1920x1080","","12709.300000071526","12","img/238/4/1/bw/001.png","","","relaxing"
"","","","","","animation","220","2559147","0.0-220.0","1920x1080","","5424.200000047684","30.56","img/117/4.5/1.5/bw/001.png","","","relaxing"
"","","","","","animation","221","2563394","0.0-221.0","1920x1080","","4246.199999928474","39.68","img/117/5.5/0.66667/bw/001.png","","","relaxing"
"","","","","","animation","222","2566055","0.0-222.0","1920x1080","","2659","34.52","img/314/4.5/0.5/bw/001.png","","","relaxing"
"","","","","","animation","223","2568721","0.0-223.0","1920x1080","","2665.5","23.54","img/314/4/0.5/bw/001.png","","","relaxing"
"","","","","","animation","224","2570874","0.0-224.0","1920x1080","","2151.899999976158","12.43","img/314/3.5/1/bw/001.png","","","relaxing"
"","","","","","animation","225","2575321","0.0-225.0","1920x1080","","4445.699999928474","7.94","img/117/4/0.5/bw/001.png","","","relaxing"
"","","","","","animation","226","2582193","0.0-226.0","1920x1080","","6869","63.23","img/238/5.5/0.66667/bw/001.png","","","relaxing"
"","","","","","animation","227","2584963","0.0-227.0","1920x1080","","2768.3000000715256","8.47","img/314/3.5/0.66667/bw/001.png","","","relaxing"
"","","","","","animation","228","2588506","0.0-228.0","1920x1080","","3542.0999999046326","15.34","img/238/4.5/0.5/bw/001.png","","","relaxing"
"","","","","","animation","229","2592305","0.0-229.0","1920x1080","","3797.399999976158","31.22","img/238/4/1.5/bw/001.png","","","relaxing"
"","","","","","animation","230","2599638","0.0-230.0","1920x1080","","7331.200000047684","14","img/314/4/0.66667/bw/001.png","","","relaxing"
"","","","","","animation","231","2603106","0.0-231.0","1920x1080","","3466","0","img/314/2.5/0.5/bw/001.png","","","relaxing"
"","","","","","animation","232","2610954","0.0-232.0","1920x1080","","7846.5","74.74","img/117/5.5/2/bw/001.png","","","relaxing"
"","","","","","animation","233","2615259","0.0-233.0","1920x1080","","4302.5","82.41","img/314/5.5/1/bw/001.png","","","relaxing"
"","","","","","animation","234","2621339","0.0-234.0","1920x1080","","6077.700000047684","39","img/238/4.5/0.66667/bw/001.png","","","relaxing"
"","","","","","animation","235","2625621","0.0-235.0","1920x1080","","4281.299999952316","11.11","img/314/3.5/0.5/bw/001.png","","","relaxing"
"","","","","","html-button-response","236","2706638","0.0-236.0","1920x1080","","81014.69999992847","","<div class=""intro"">You are about to view a new series of animations.<br><br></div><div class=""intro"">You will evaluate them based on a different descriptor.<br><br></div><div class=""intro"">Move the slider to indicate how <strong style=""text-transform:capitalize"">INTERESTING</strong> you find each animation.<br><br></div><div class=""intro"">0 = Least Interesting<br></div><div class=""intro"">1 = Most Interesting<br><br></div><div class=""intro"">Remember to use the <strong><em>entire range</em></strong> of the slider to make your ratings.<br></div><div class=""intro"">Please <strong><em>take your time</em></strong> and carefully consider each rating you make.<br><br></div>","0","",""
"","","","","","call-function","237","2706642","0.0-237.0","1920x1080","","","","","","",""
"","","","","","animation","238","2711421","0.0-238.0","1920x1080","","4778.199999928474","78.31","img/117/4.5/0.66667/bw/001.png","","","interesting"
"","","","","","animation","239","2720828","0.0-239.0","1920x1080","","9405.099999904633","87.04","img/238/4/0.66667/bw/001.png","","","interesting"
"","","","","","animation","240","2728355","0.0-240.0","1920x1080","","7523.200000047684","87.83","img/238/3.5/1/bw/001.png","","","interesting"
"","","","","","animation","241","2736089","0.0-241.0","1920x1080","","7732","45.50","img/238/4.5/2/bw/001.png","","","interesting"
"","","","","","animation","242","2742926","0.0-242.0","1920x1080","","6833.399999976158","66.01","img/117/4.5/0.5/bw/001.png","","","interesting"
"","","","","","animation","243","2754476","0.0-243.0","1920x1080","","11546.199999928474","27.65","img/117/2.5/0.5/bw/001.png","","","interesting"
"","","","","","animation","244","2759422","0.0-244.0","1920x1080","","4944.299999952316","43.39","img/117/3.5/0.5/bw/001.png","","","interesting"
"","","","","","animation","245","2768244","0.0-245.0","1920x1080","","8820.100000023842","21.30","img/314/5.5/1/bw/001.png","","","interesting"
"","","","","","animation","246","2777564","0.0-246.0","1920x1080","","9318.700000047684","25.66","img/238/5.5/0.5/bw/001.png","","","interesting"
"","","","","","animation","247","2784689","0.0-247.0","1920x1080","","7119.200000047684","51.72","img/314/3.5/0.66667/bw/001.png","","","interesting"
"","","","","","animation","248","2798189","0.0-248.0","1920x1080","","13498.299999952316","65.87","img/238/3.5/1.5/bw/001.png","","","interesting"
"","","","","","animation","249","2804540","0.0-249.0","1920x1080","","6350.100000023842","62.30","img/117/3.5/0.66667/bw/001.png","","","interesting"
"","","","","","animation","250","2809406","0.0-250.0","1920x1080","","4863.5","82.41","img/314/4.5/2/bw/001.png","","","interesting"
"","","","","","animation","251","2813508","0.0-251.0","1920x1080","","4100.5","65.34","img/314/3.5/1/bw/001.png","","","interesting"
"","","","","","animation","252","2827472","0.0-252.0","1920x1080","","13962.100000023842","21.69","img/117/5.5/2/bw/001.png","","","interesting"
"","","","","","animation","253","2834597","0.0-253.0","1920x1080","","7122.899999976158","16.27","img/117/2.5/1.5/bw/001.png","","","interesting"
"","","","","","animation","254","2849524","0.0-254.0","1920x1080","","14925.900000095367","61.77","img/314/4/2/bw/001.png","","","interesting"
"","","","","","animation","255","2858288","0.0-255.0","1920x1080","","8763.100000023842","68.12","img/314/4.5/0.5/bw/001.png","","","interesting"
"","","","","","animation","256","2864788","0.0-256.0","1920x1080","","6499","28.70","img/238/2.5/1.5/bw/001.png","","","interesting"
"","","","","","animation","257","2868058","0.0-257.0","1920x1080","","3267.7000000476837","20.77","img/238/2.5/1/bw/001.png","","","interesting"
"","","","","","animation","258","2874988","0.0-258.0","1920x1080","","6928.200000047684","57.01","img/238/4.5/0.66667/bw/001.png","","","interesting"
"","","","","","animation","259","2879212","0.0-259.0","1920x1080","","4221.899999976158","53.44","img/117/4/0.66667/bw/001.png","","","interesting"
"","","","","","animation","260","2883589","0.0-260.0","1920x1080","","4374.699999928474","75.40","img/117/4.5/2/bw/001.png","","","interesting"
"","","","","","animation","261","2887796","0.0-261.0","1920x1080","","4205.799999952316","66.14","img/314/4.5/0.66667/bw/001.png","","","interesting"
"","","","","","animation","262","2894738","0.0-262.0","1920x1080","","6940.299999952316","78.44","img/314/3.5/1.5/bw/001.png","","","interesting"
"","","","","","animation","263","2901355","0.0-263.0","1920x1080","","6615.100000023842","15.87","img/314/5.5/1.5/bw/001.png","","","interesting"
"","","","","","animation","264","2905571","0.0-264.0","1920x1080","","4214.5","20.11","img/314/2.5/2/bw/001.png","","","interesting"
"","","","","","animation","265","2913089","0.0-265.0","1920x1080","","7515.100000023842","71.43","img/238/4/1/bw/001.png","","","interesting"
"","","","","","animation","266","2916906","0.0-266.0","1920x1080","","3815.2999999523163","81.61","img/117/4.5/1.5/bw/001.png","","","interesting"
"","","","","","animation","267","2924973","0.0-267.0","1920x1080","","8065","39.15","img/117/5.5/1/bw/001.png","","","interesting"
"","","","","","animation","268","2928823","0.0-268.0","1920x1080","","3848.399999976158","67.33","img/117/4/1.5/bw/001.png","","","interesting"
"","","","","","animation","269","2933973","0.0-269.0","1920x1080","","5148.5","36.90","img/314/3.5/0.5/bw/001.png","","","interesting"
"","","","","","animation","270","2940123","0.0-270.0","1920x1080","","6148.600000023842","20.24","img/238/5.5/2/bw/001.png","","","interesting"
"","","","","","animation","271","2948873","0.0-271.0","1920x1080","","8746.200000047684","58.47","img/314/3.5/2/bw/001.png","","","interesting"
"","","","","","animation","272","2952439","0.0-272.0","1920x1080","","3565.5","55.56","img/314/4/1/bw/001.png","","","interesting"
"","","","","","animation","273","2957006","0.0-273.0","1920x1080","","4564.800000071526","77.51","img/117/3.5/2/bw/001.png","","","interesting"
"","","","","","animation","274","2960828","0.0-274.0","1920x1080","","3820.5","20.63","img/314/2.5/1.5/bw/001.png","","","interesting"
"","","","","","animation","275","2965656","0.0-275.0","1920x1080","","4824.900000095367","34.66","img/238/3.5/0.5/bw/001.png","","","interesting"
"","","","","","animation","276","2969110","0.0-276.0","1920x1080","","3452.899999976158","32.67","img/117/4/0.5/bw/001.png","","","interesting"
"","","","","","animation","277","2972872","0.0-277.0","1920x1080","","3761.399999976158","17.86","img/117/2.5/0.66667/bw/001.png","","","interesting"
"","","","","","animation","278","2976306","0.0-278.0","1920x1080","","3432","16.93","img/238/2.5/0.66667/bw/001.png","","","interesting"
"","","","","","animation","279","2983739","0.0-279.0","1920x1080","","7431.700000047684","11.38","img/117/5.5/1.5/bw/001.png","","","interesting"
"","","","","","animation","280","2987005","0.0-280.0","1920x1080","","3264.5999999046326","87.83","img/117/4.5/1/bw/001.png","","","interesting"
"","","","","","animation","281","2990942","0.0-281.0","1920x1080","","3934.7999999523163","23.54","img/314/2.5/1/bw/001.png","","","interesting"
"","","","","","animation","282","3005639","0.0-282.0","1920x1080","","14695.100000023842","27","img/238/5.5/0.66667/bw/001.png","","","interesting"
"","","","","","animation","283","3009810","0.0-283.0","1920x1080","","4169.799999952316","76.98","img/238/4/2/bw/001.png","","","interesting"
"","","","","","animation","284","3020706","0.0-284.0","1920x1080","","10893.600000023842","22.09","img/314/5.5/2/bw/001.png","","","interesting"
"","","","","","animation","285","3025330","0.0-285.0","1920x1080","","4622.699999928474","55.56","img/117/3.5/1/bw/001.png","","","interesting"
"","","","","","animation","286","3028525","0.0-286.0","1920x1080","","3192.600000023842","72","img/314/4/1.5/bw/001.png","","","interesting"
"","","","","","animation","287","3032590","0.0-287.0","1920x1080","","4062.7000000476837","66.67","img/117/3.5/1.5/bw/001.png","","","interesting"
"","","","","","animation","288","3038999","0.0-288.0","1920x1080","","6408.399999976158","76.72","img/314/4.5/1/bw/001.png","","","interesting"
"","","","","","animation","289","3043245","0.0-289.0","1920x1080","","4243.799999952316","20.37","img/314/2.5/0.5/bw/001.png","","","interesting"
"","","","","","animation","290","3050791","0.0-290.0","1920x1080","","7544.5","20.77","img/117/2.5/1/bw/001.png","","","interesting"
"","","","","","animation","291","3058734","0.0-291.0","1920x1080","","7940.700000047684","23.02","img/117/2.5/2/bw/001.png","","","interesting"
"","","","","","animation","292","3064589","0.0-292.0","1920x1080","","5853.600000023842","60.98","img/117/5.5/0.5/bw/001.png","","","interesting"
"","","","","","animation","293","3068334","0.0-293.0","1920x1080","","3743","10.05","img/238/5.5/1.5/bw/001.png","","","interesting"
"","","","","","animation","294","3072376","0.0-294.0","1920x1080","","4040.1999999284744","77.65","img/238/3.5/2/bw/001.png","","","interesting"
"","","","","","animation","295","3076814","0.0-295.0","1920x1080","","4436.300000071526","23.94","img/314/2.5/0.66667/bw/001.png","","","interesting"
"","","","","","animation","296","3080416","0.0-296.0","1920x1080","","3600.600000023842","34.52","img/117/4/1/bw/001.png","","","interesting"
"","","","","","animation","297","3085633","0.0-297.0","1920x1080","","5214.400000095367","37.83","img/238/3.5/0.66667/bw/001.png","","","interesting"
"","","","","","animation","298","3091573","0.0-298.0","1920x1080","","5937.399999976158","40.21","img/314/5.5/0.66667/bw/001.png","","","interesting"
"","","","","","animation","299","3098646","0.0-299.0","1920x1080","","7071.5","44.44","img/238/4/1.5/bw/001.png","","","interesting"
"","","","","","animation","300","3103840","0.0-300.0","1920x1080","","5192.199999928474","25.79","img/238/4.5/1.5/bw/001.png","","","interesting"
"","","","","","animation","301","3107931","0.0-301.0","1920x1080","","4089.899999976158","31.48","img/238/4/0.5/bw/001.png","","","interesting"
"","","","","","animation","302","3115371","0.0-302.0","1920x1080","","7438.199999928474","65.08","img/314/5.5/0.5/bw/001.png","","","interesting"
"","","","","","animation","303","3121483","0.0-303.0","1920x1080","","6106","69.31","img/117/5.5/0.66667/bw/001.png","","","interesting"
"","","","","","animation","304","3127329","0.0-304.0","1920x1080","","5845","19","img/238/2.5/0.5/bw/001.png","","","interesting"
"","","","","","animation","305","3132295","0.0-305.0","1920x1080","","4963.5","55.95","img/238/4.5/0.5/bw/001.png","","","interesting"
"","","","","","animation","306","3137829","0.0-306.0","1920x1080","","5532.5","67.72","img/314/4.5/1.5/bw/001.png","","","interesting"
"","","","","","animation","307","3142828","0.0-307.0","1920x1080","","4996.200000047684","19.84","img/238/5.5/1/bw/001.png","","","interesting"
"","","","","","animation","308","3145941","0.0-308.0","1920x1080","","3110.7999999523163","75.93","img/238/4.5/1/bw/001.png","","","interesting"
"","","","","","animation","309","3150942","0.0-309.0","1920x1080","","4998.799999952316","23.54","img/238/2.5/2/bw/001.png","","","interesting"
"","","","","","animation","310","3156666","0.0-310.0","1920x1080","","5722.5","56.08","img/117/4/2/bw/001.png","","","interesting"
"","","","","","animation","311","3160399","0.0-311.0","1920x1080","","3729.7000000476837","44.31","img/314/4/0.66667/bw/001.png","","","interesting"
"","","","","","animation","312","3165430","0.0-312.0","1920x1080","","5028.199999928474","45.90","img/314/4/0.5/bw/001.png","","","interesting"
"","","","","","html-button-response","313","3206574","0.0-313.0","1920x1080","","41142.200000047684","","<div class=""intro"">You are about to view a new series of animations.<br><br></div><div class=""intro"">You will evaluate them based on a different descriptor.<br><br></div><div class=""intro"">Move the slider to indicate how <strong style=""text-transform:capitalize"">NATURAL</strong> you find each animation.<br><br></div><div class=""intro"">0 = Least Natural<br></div><div class=""intro"">1 = Most Natural<br><br></div><div class=""intro"">Remember to use the <strong><em>entire range</em></strong> of the slider to make your ratings.<br></div><div class=""intro"">Please <strong><em>take your time</em></strong> and carefully consider each rating you make.<br><br></div>","0","",""
"","","","","","call-function","314","3206578","0.0-314.0","1920x1080","","","","","","",""
"","","","","","animation","315","3215398","0.0-315.0","1920x1080","","8818.199999928474","10.58","img/238/3.5/0.5/bw/001.png","","","natural"
"","","","","","animation","316","3220831","0.0-316.0","1920x1080","","5432.100000023842","8.99","img/117/4/0.5/bw/001.png","","","natural"
"","","","","","animation","317","3225607","0.0-317.0","1920x1080","","4772.299999952316","69.18","img/117/5.5/1.5/bw/001.png","","","natural"
"","","","","","animation","318","3229510","0.0-318.0","1920x1080","","3900.2000000476837","8.20","img/117/2.5/1.5/bw/001.png","","","natural"
"","","","","","animation","319","3233112","0.0-319.0","1920x1080","","3600.5","86.90","img/117/5.5/2/bw/001.png","","","natural"
"","","","","","animation","320","3236666","0.0-320.0","1920x1080","","3552","56.61","img/117/5.5/0.5/bw/001.png","","","natural"
"","","","","","animation","321","3239847","0.0-321.0","1920x1080","","3179.2000000476837","43.78","img/117/3.5/0.66667/bw/001.png","","","natural"
"","","","","","animation","322","3243862","0.0-322.0","1920x1080","","4013","48.15","img/314/4/1/bw/001.png","","","natural"
"","","","","","animation","323","3250324","0.0-323.0","1920x1080","","6460.5","44.58","img/117/4.5/0.66667/bw/001.png","","","natural"
"","","","","","animation","324","3255678","0.0-324.0","1920x1080","","5352.5","37.04","img/314/4/0.66667/bw/001.png","","","natural"
"","","","","","animation","325","3260508","0.0-325.0","1920x1080","","4828.600000023842","25.66","img/314/3.5/0.5/bw/001.png","","","natural"
"","","","","","animation","326","3264723","0.0-326.0","1920x1080","","4210.899999976158","33.07","img/238/3.5/0.66667/bw/001.png","","","natural"
"","","","","","animation","327","3274407","0.0-327.0","1920x1080","","9680.799999952316","23.81","img/238/4/0.5/bw/001.png","","","natural"
"","","","","","animation","328","3277541","0.0-328.0","1920x1080","","3132.1999999284744","15.74","img/314/2.5/0.66667/bw/001.png","","","natural"
"","","","","","animation","329","3280624","0.0-329.0","1920x1080","","3081.5","22.49","img/117/2.5/2/bw/001.png","","","natural"
"","","","","","animation","330","3291057","0.0-330.0","1920x1080","","10431.899999976158","61.24","img/117/4.5/1/bw/001.png","","","natural"
"","","","","","animation","331","3295541","0.0-331.0","1920x1080","","4481.899999976158","70.50","img/314/4/2/bw/001.png","","","natural"
"","","","","","animation","332","3300191","0.0-332.0","1920x1080","","4648.100000023842","75","img/314/4.5/1.5/bw/001.png","","","natural"
"","","","","","animation","333","3302957","0.0-333.0","1920x1080","","2765.2000000476837","49.07","img/238/3.5/1/bw/001.png","","","natural"
"","","","","","animation","334","3307111","0.0-334.0","1920x1080","","4152.5","65.21","img/238/4.5/1.5/bw/001.png","","","natural"
"","","","","","animation","335","3316101","0.0-335.0","1920x1080","","8987.299999952316","72.35","img/314/5.5/2/bw/001.png","","","natural"
"","","","","","animation","336","3320673","0.0-336.0","1920x1080","","4569.400000095367","16.93","img/314/2.5/2/bw/001.png","","","natural"
"","","","","","animation","337","3326215","0.0-337.0","1920x1080","","5540.199999928474","70.11","img/314/5.5/1/bw/001.png","","","natural"
"","","","","","animation","338","3330147","0.0-338.0","1920x1080","","3929.1999999284744","55.82","img/314/3.5/1/bw/001.png","","","natural"
"","","","","","animation","339","3334606","0.0-339.0","1920x1080","","4457.300000071526","19.18","img/238/2.5/1.5/bw/001.png","","","natural"
"","","","","","animation","340","3341223","0.0-340.0","1920x1080","","6614.199999928474","53.70","img/314/4/1.5/bw/001.png","","","natural"
"","","","","","animation","341","3347031","0.0-341.0","1920x1080","","5806.399999976158","47.62","img/314/3.5/2/bw/001.png","","","natural"
"","","","","","animation","342","3356760","0.0-342.0","1920x1080","","9727","47.75","img/314/3.5/1.5/bw/001.png","","","natural"
"","","","","","animation","343","3359860","0.0-343.0","1920x1080","","3099","61.64","img/238/5.5/1.5/bw/001.png","","","natural"
"","","","","","animation","344","3364343","0.0-344.0","1920x1080","","4481.199999928474","8.33","img/238/2.5/0.5/bw/001.png","","","natural"
"","","","","","animation","345","3368656","0.0-345.0","1920x1080","","4311.100000023842","41.01","img/117/3.5/1.5/bw/001.png","","","natural"
"","","","","","animation","346","3372352","0.0-346.0","1920x1080","","3694.2000000476837","56.48","img/117/4.5/1.5/bw/001.png","","","natural"
"","","","","","animation","347","3375281","0.0-347.0","1920x1080","","2927.399999976158","64.42","img/314/5.5/0.5/bw/001.png","","","natural"
"","","","","","animation","348","3378709","0.0-348.0","1920x1080","","3425.8000000715256","66.14","img/314/5.5/1.5/bw/001.png","","","natural"
"","","","","","animation","349","3381791","0.0-349.0","1920x1080","","3078.100000023842","73.68","img/238/4.5/0.5/bw/001.png","","","natural"
"","","","","","animation","350","3398526","0.0-350.0","1920x1080","","16734","57.94","img/238/4/1.5/bw/001.png","","","natural"
"","","","","","animation","351","3402715","0.0-351.0","1920x1080","","4186.699999928474","64.29","img/238/5.5/0.5/bw/001.png","","","natural"
"","","","","","animation","352","3406248","0.0-352.0","1920x1080","","3531.4000000953674","72.22","img/314/4.5/2/bw/001.png","","","natural"
"","","","","","animation","353","3409926","0.0-353.0","1920x1080","","3675.5","15.87","img/314/2.5/1/bw/001.png","","","natural"
"","","","","","animation","354","3415545","0.0-354.0","1920x1080","","5617.100000023842","59.52","img/314/4.5/1/bw/001.png","","","natural"
"","","","","","animation","355","3418976","0.0-355.0","1920x1080","","3428.8000000715256","47.35","img/117/4/2/bw/001.png","","","natural"
"","","","","","animation","356","3424793","0.0-356.0","1920x1080","","5815.899999976158","36.64","img/238/4/0.66667/bw/001.png","","","natural"
"","","","","","animation","357","3428057","0.0-357.0","1920x1080","","3262.2999999523163","20.11","img/314/2.5/0.5/bw/001.png","","","natural"
"","","","","","animation","358","3431959","0.0-358.0","1920x1080","","3900.600000023842","42.86","img/238/4.5/0.66667/bw/001.png","","","natural"
"","","","","","animation","359","3435439","0.0-359.0","1920x1080","","3478.6999999284744","38.36","img/117/3.5/0.5/bw/001.png","","","natural"
"","","","","","animation","360","3439185","0.0-360.0","1920x1080","","3744.2000000476837","18","img/117/2.5/1/bw/001.png","","","natural"
"","","","","","animation","361","3442532","0.0-361.0","1920x1080","","3345.3000000715256","65.34","img/314/5.5/0.66667/bw/001.png","","","natural"
"","","","","","animation","362","3445130","0.0-362.0","1920x1080","","2596.399999976158","17.86","img/117/2.5/0.5/bw/001.png","","","natural"
"","","","","","animation","363","3449697","0.0-363.0","1920x1080","","4564.799999952316","84.79","img/117/4.5/2/bw/001.png","","","natural"
"","","","","","animation","364","3455607","0.0-364.0","1920x1080","","5907.5","71","img/238/3.5/2/bw/001.png","","","natural"
"","","","","","animation","365","3458839","0.0-365.0","1920x1080","","3230.7000000476837","75.79","img/238/4.5/2/bw/001.png","","","natural"
"","","","","","animation","366","3461832","0.0-366.0","1920x1080","","2991.100000023842","61.51","img/314/4.5/0.66667/bw/001.png","","","natural"
"","","","","","animation","367","3467943","0.0-367.0","1920x1080","","6109.399999976158","60.32","img/238/5.5/0.66667/bw/001.png","","","natural"
"","","","","","animation","368","3470623","0.0-368.0","1920x1080","","2677.8000000715256","53.04","img/314/3.5/0.66667/bw/001.png","","","natural"
"","","","","","animation","369","3474456","0.0-369.0","1920x1080","","3831.7999999523163","57.67","img/238/4/1/bw/001.png","","","natural"
"","","","","","animation","370","3477473","0.0-370.0","1920x1080","","3014.8000000715256","21.43","img/314/2.5/1.5/bw/001.png","","","natural"
"","","","","","animation","371","3482711","0.0-371.0","1920x1080","","5235.600000023842","39","img/117/4/1.5/bw/001.png","","","natural"
"","","","","","animation","372","3487460","0.0-372.0","1920x1080","","4745.5","32.54","img/117/4/0.66667/bw/001.png","","","natural"
"","","","","","animation","373","3495589","0.0-373.0","1920x1080","","8127.100000023842","52.25","img/238/4.5/1/bw/001.png","","","natural"
"","","","","","animation","374","3502107","0.0-374.0","1920x1080","","6516.5","63","img/117/5.5/0.66667/bw/001.png","","","natural"
"","","","","","animation","375","3505018","0.0-375.0","1920x1080","","2909.9000000953674","22.22","img/238/2.5/1/bw/001.png","","","natural"
"","","","","","animation","376","3508763","0.0-376.0","1920x1080","","3742.399999976158","21.30","img/238/2.5/0.66667/bw/001.png","","","natural"
"","","","","","animation","377","3512963","0.0-377.0","1920x1080","","4197.799999952316","76.72","img/117/5.5/1/bw/001.png","","","natural"
"","","","","","animation","378","3520474","0.0-378.0","1920x1080","","7509.200000047684","53","img/314/4/0.5/bw/001.png","","","natural"
"","","","","","animation","379","3523274","0.0-379.0","1920x1080","","2798","66.93","img/117/3.5/2/bw/001.png","","","natural"
"","","","","","animation","380","3529258","0.0-380.0","1920x1080","","5982.300000071526","63.89","img/117/4.5/0.5/bw/001.png","","","natural"
"","","","","","animation","381","3532392","0.0-381.0","1920x1080","","3132.2000000476837","23.81","img/117/2.5/0.66667/bw/001.png","","","natural"
"","","","","","animation","382","3536091","0.0-382.0","1920x1080","","3693.7000000476837","28.70","img/117/3.5/1/bw/001.png","","","natural"
"","","","","","animation","383","3542311","0.0-383.0","1920x1080","","6218.899999976158","58","img/117/4/1/bw/001.png","","","natural"
"","","","","","animation","384","3548443","0.0-384.0","1920x1080","","6129.399999976158","51.72","img/238/5.5/2/bw/001.png","","","natural"
"","","","","","animation","385","3551591","0.0-385.0","1920x1080","","3142.100000023842","63.10","img/238/5.5/1/bw/001.png","","","natural"
"","","","","","animation","386","3559101","0.0-386.0","1920x1080","","7508.700000047684","74.07","img/238/4/2/bw/001.png","","","natural"
"","","","","","animation","387","3562717","0.0-387.0","1920x1080","","3613.5","69.97","img/238/3.5/1.5/bw/001.png","","","natural"
"","","","","","animation","388","3565559","0.0-388.0","1920x1080","","2839.7999999523163","25.26","img/238/2.5/2/bw/001.png","","","natural"
"","","","","","animation","389","3569323","0.0-389.0","1920x1080","","3761.5","37.30","img/314/4.5/0.5/bw/001.png","","","natural"
"","","","","","html-button-response","390","3619477","0.0-390.0","1920x1080","","50151.89999997616","","<strong>Study Debriefing</strong><br><p class=""debrief""><strong>Background:</strong> The patterns you rated are called <em>fractals</em>. The term fractal describes a class of irregular curves or shapes for which any suitably chosen part is similar in shape to a given larger or smaller part when magnified or reduced to the same size. Fractal properties are found throughout the natural and manmade world. The series of animations you saw today displayed animated fractal patterns of a varying complexity.</p><p class=""debrief""><strong>Purpose of this study:</strong> We hope to better understand how the perception of static fractals differs from the perception of animated fractals, and how the speed of the animated patterns influences people&apos;s perception of them. Fractals allow us to study the perception of aesthetic properties (e.g. the perceived level of beauty in an image) without using recognizable content, which makes them an excellent tool for studying abstract aesthetic judgement.</p><p class=""debrief""><strong>Your part:</strong> Your participation has helped us to further understand how humans perceive these patterns across different levels of speed and complexity. This research with allow us to better understand how the visual system and brain process our ever-changing visual environments.<p class=""debrief""><strong>Feedback and Further information:</strong> If you have additional questions about this study, please feel free to ask the researcher, Nathan Gonzales-Hess at nhess @ uoregon.edu. If you have any questions concerning your rights as a research participant, please contact Research Compliance Services, 5237 University of Oregon, Eugene, OR 97403, 541-346-2510, or email researchCompliance @ uoregon.edu. You can also email the Human Subjects Coordinator for psychology and linguistics research at hscoord @ uoregon.edu. ","0","",""
"","","","","","html-button-response","391","3627145","0.0-391.0","1920x1080","","7662.800000071526","","Thank you for participating in this study. <br>Please click below to finish the experiment and submit your responses.<br><br>","0","",""
"true","","","","","fullscreen","392","3628169","0.0-392.0","1920x1080","14:43 27/5/2022","","","","","",""
