"success","timeout","failed_images","failed_audio","failed_video","trial_type","trial_index","time_elapsed","internal_node_id","resolution","timeStamp","rt","response","stimulus","button_pressed","value","descriptor"
"true","false","[]","[]","[]","preload","0","43636","0.0-0.0","1920x1080","","","","","","",""
"true","false","[]","[]","[]","preload","1","95181","0.0-1.0","1920x1080","","","","","","",""
"true","false","[]","[]","[]","preload","2","137222","0.0-2.0","1920x1080","","","","","","",""
"true","","","","","fullscreen","3","1096337","0.0-3.0","1920x1080","11:45 21/10/2022","","","","","",""
"","","","","","survey-html-form","4","1116350","0.0-4.0","1920x1080","","20010.399999999907","{""age"":""19"",""gender"":""female""}","","","",""
"","","","","","html-button-response","5","1213959","0.0-5.0","1920x1080","","97607.6000000001","","<div class=""complex"">You are going to see a series of animations.<br><br></div><div class=""complex"">Move the slider to indicate how <strong style=""text-transform:capitalize"">COMPLEX</strong> you find each animation.<br><br></div><div class=""complex"">0 = Least Complex<br></div><div class=""complex"">1 = Most Complex<br><br></div><div class=""complex"">Remember to use the <strong><em>entire range</em></strong> of the slider to make your ratings.<br></div><div class=""complex"">Please <strong><em>take your time</em></strong> and carefully consider each rating you make.<br><br></div><div class=""complex"">The study has five sections and will take about 45 minutes to complete.<br><br></div>","0","",""
"","","","","","call-function","6","1213959","0.0-6.0","1920x1080","","","","","","",""
"","","","","","animation","7","1228679","0.0-7.0","1920x1080","","14716.299999999814","41.40","img/314/3.5/1.5/bw/001.png","","","complex"
"","","","","","animation","8","1258726","0.0-8.0","1920x1080","","30046.399999999907","77.51","img/117/4.5/1.5/bw/001.png","","","complex"
"","","","","","animation","9","1275414","0.0-9.0","1920x1080","","16687.100000000093","38.36","img/238/4.5/1/bw/001.png","","","complex"
"","","","","","animation","10","1290454","0.0-10.0","1920x1080","","15039.400000000373","65.74","img/314/4.5/0.5/bw/001.png","","","complex"
"","","","","","animation","11","1308494","0.0-11.0","1920x1080","","18038.299999999814","84.92","img/314/3.5/1/bw/001.png","","","complex"
"","","","","","animation","12","1318238","0.0-12.0","1920x1080","","9743.899999999907","84.92","img/238/3.5/0.5/bw/001.png","","","complex"
"","","","","","animation","13","1327094","0.0-13.0","1920x1080","","8854.600000000093","93.78","img/314/3.5/0.66667/bw/001.png","","","complex"
"","","","","","animation","14","1333284","0.0-14.0","1920x1080","","6191.5","75.40","img/314/4/0.5/bw/001.png","","","complex"
"","","","","","animation","15","1350260","0.0-15.0","1920x1080","","16974.600000000093","94.97","img/238/2.5/2/bw/001.png","","","complex"
"","","","","","animation","16","1371157","0.0-16.0","1920x1080","","20896.600000000093","72.35","img/117/5.5/2/bw/001.png","","","complex"
"","","","","","animation","17","1393400","0.0-17.0","1920x1080","","22246.30000000028","79.89","img/314/4/0.66667/bw/001.png","","","complex"
"","","","","","animation","18","1411184","0.0-18.0","1920x1080","","17782.5","68.12","img/238/4/0.5/bw/001.png","","","complex"
"","","","","","animation","19","1433136","0.0-19.0","1920x1080","","21951.100000000093","29.89","img/117/4.5/1/bw/001.png","","","complex"
"","","","","","animation","20","1465838","0.0-20.0","1920x1080","","32694.899999999907","81.35","img/238/3.5/1.5/bw/001.png","","","complex"
"","","","","","animation","21","1489238","0.0-21.0","1920x1080","","23399.100000000093","73.68","img/117/3.5/1.5/bw/001.png","","","complex"
"","","","","","animation","22","1509110","0.0-22.0","1920x1080","","19870.799999999814","49.60","img/117/4/2/bw/001.png","","","complex"
"","","","","","animation","23","1528342","0.0-23.0","1920x1080","","19231","39.55","img/238/4/1.5/bw/001.png","","","complex"
"","","","","","animation","24","1547982","0.0-24.0","1920x1080","","19639.200000000186","75.40","img/314/4/2/bw/001.png","","","complex"
"","","","","","animation","25","1562670","0.0-25.0","1920x1080","","14686.899999999907","89.95","img/117/4/1/bw/001.png","","","complex"
"","","","","","animation","26","1577010","0.0-26.0","1920x1080","","14343.100000000093","70.11","img/238/4.5/0.66667/bw/001.png","","","complex"
"","","","","","animation","27","1590913","0.0-27.0","1920x1080","","13902.899999999907","35.19","img/314/5.5/2/bw/001.png","","","complex"
"","","","","","animation","28","1607650","0.0-28.0","1920x1080","","16735.299999999814","59.92","img/314/5.5/0.5/bw/001.png","","","complex"
"","","","","","animation","29","1621450","0.0-29.0","1920x1080","","13799.200000000186","63.23","img/117/4/0.5/bw/001.png","","","complex"
"","","","","","animation","30","1641481","0.0-30.0","1920x1080","","20031","54.76","img/314/4.5/1.5/bw/001.png","","","complex"
"","","","","","animation","31","1661841","0.0-31.0","1920x1080","","20358.899999999907","60.05","img/314/2.5/1/bw/001.png","","","complex"
"","","","","","animation","32","1676617","0.0-32.0","1920x1080","","14775.399999999907","83.07","img/314/3.5/2/bw/001.png","","","complex"
"","","","","","animation","33","1696138","0.0-33.0","1920x1080","","19511.399999999907","29.76","img/314/4/1/bw/001.png","","","complex"
"","","","","","animation","34","1720114","0.0-34.0","1920x1080","","23975.200000000186","19.31","img/238/5.5/0.66667/bw/001.png","","","complex"
"","","","","","animation","35","1756242","0.0-35.0","1920x1080","","36126.60000000009","26.98","img/117/4.5/2/bw/001.png","","","complex"
"","","","","","animation","36","1765874","0.0-36.0","1920x1080","","9630.899999999907","40.08","img/314/4.5/2/bw/001.png","","","complex"
"","","","","","animation","37","1777170","0.0-37.0","1920x1080","","11295.100000000093","35.58","img/117/5.5/0.66667/bw/001.png","","","complex"
"","","","","","animation","38","1811082","0.0-38.0","1920x1080","","33910.89999999991","68.52","img/238/5.5/2/bw/001.png","","","complex"
"","","","","","animation","39","1834186","0.0-39.0","1920x1080","","23103.299999999814","68.39","img/238/4.5/2/bw/001.png","","","complex"
"","","","","","animation","40","1847242","0.0-40.0","1920x1080","","13055.19999999972","76","img/314/3.5/0.5/bw/001.png","","","complex"
"","","","","","animation","41","1889137","0.0-41.0","1920x1080","","41892.39999999991","90.61","img/238/4/2/bw/001.png","","","complex"
"","","","","","animation","42","1905857","0.0-42.0","1920x1080","","16719.100000000093","73.41","img/117/2.5/1/bw/001.png","","","complex"
"","","","","","animation","43","1915144","0.0-43.0","1920x1080","","9286.599999999627","66.53","img/238/2.5/0.66667/bw/001.png","","","complex"
"","","","","","animation","44","1934261","0.0-44.0","1920x1080","","19119.700000000186","64.29","img/117/5.5/0.5/bw/001.png","","","complex"
"","","","","","animation","45","1947191","0.0-45.0","1920x1080","","12928.80000000028","85.98","img/117/4.5/0.5/bw/001.png","","","complex"
"","","","","","animation","46","1964438","0.0-46.0","1920x1080","","17245.19999999972","50.13","img/117/2.5/1.5/bw/001.png","","","complex"
"","","","","","animation","47","1990902","0.0-47.0","1920x1080","","26462.700000000186","92.59","img/314/2.5/1.5/bw/001.png","","","complex"
"","","","","","animation","48","2029497","0.0-48.0","1920x1080","","38590.09999999963","76.72","img/314/4.5/1/bw/001.png","","","complex"
"","","","","","animation","49","2064517","0.0-49.0","1920x1080","","35023.39999999991","65.08","img/117/4.5/0.66667/bw/001.png","","","complex"
"","","","","","animation","50","2086869","0.0-50.0","1920x1080","","22351.200000000186","71.83","img/117/3.5/0.5/bw/001.png","","","complex"
"","","","","","animation","51","2094245","0.0-51.0","1920x1080","","7375","53.44","img/314/2.5/0.66667/bw/001.png","","","complex"
"","","","","","animation","52","2106885","0.0-52.0","1920x1080","","12638.700000000186","100","img/238/3.5/2/bw/001.png","","","complex"
"","","","","","animation","53","2121860","0.0-53.0","1920x1080","","14964.30000000028","40.21","img/314/5.5/1.5/bw/001.png","","","complex"
"","","","","","animation","54","2130660","0.0-54.0","1920x1080","","8799.100000000093","60.32","img/117/2.5/0.66667/bw/001.png","","","complex"
"","","","","","animation","55","2138229","0.0-55.0","1920x1080","","7568.899999999907","80.82","img/117/4/0.66667/bw/001.png","","","complex"
"","","","","","animation","56","2150013","0.0-56.0","1920x1080","","11782.700000000186","62.70","img/314/4.5/0.66667/bw/001.png","","","complex"
"","","","","","animation","57","2156308","0.0-57.0","1920x1080","","6293.600000000093","55.29","img/238/2.5/0.5/bw/001.png","","","complex"
"","","","","","animation","58","2162715","0.0-58.0","1920x1080","","6406.399999999907","84.52","img/117/3.5/0.66667/bw/001.png","","","complex"
"","","","","","animation","59","2176403","0.0-59.0","1920x1080","","13687.69999999972","72.49","img/117/2.5/0.5/bw/001.png","","","complex"
"","","","","","animation","60","2183299","0.0-60.0","1920x1080","","6895.199999999721","88.23","img/238/4.5/0.5/bw/001.png","","","complex"
"","","","","","animation","61","2190787","0.0-61.0","1920x1080","","7487.4000000003725","86.64","img/238/3.5/0.66667/bw/001.png","","","complex"
"","","","","","animation","62","2197195","0.0-62.0","1920x1080","","6406.600000000093","43.25","img/314/5.5/0.66667/bw/001.png","","","complex"
"","","","","","animation","63","2207763","0.0-63.0","1920x1080","","10568","59.26","img/238/4/1/bw/001.png","","","complex"
"","","","","","animation","64","2227651","0.0-64.0","1920x1080","","19886.5","70.37","img/314/4/1.5/bw/001.png","","","complex"
"","","","","","animation","65","2238720","0.0-65.0","1920x1080","","11071.100000000093","68.12","img/117/3.5/2/bw/001.png","","","complex"
"","","","","","animation","66","2263026","0.0-66.0","1920x1080","","24305.100000000093","70.11","img/117/4/1.5/bw/001.png","","","complex"
"","","","","","animation","67","2288426","0.0-67.0","1920x1080","","25399.200000000186","24.60","img/117/5.5/1.5/bw/001.png","","","complex"
"","","","","","animation","68","2298279","0.0-68.0","1920x1080","","9852.799999999814","22.09","img/117/5.5/1/bw/001.png","","","complex"
"","","","","","animation","69","2309335","0.0-69.0","1920x1080","","11054.30000000028","87.17","img/117/3.5/1/bw/001.png","","","complex"
"","","","","","animation","70","2324767","0.0-70.0","1920x1080","","15430.399999999907","64.68","img/238/2.5/1.5/bw/001.png","","","complex"
"","","","","","animation","71","2338825","0.0-71.0","1920x1080","","14056.600000000093","56.61","img/238/5.5/1.5/bw/001.png","","","complex"
"","","","","","animation","72","2351527","0.0-72.0","1920x1080","","12700.600000000093","76.98","img/238/4/0.66667/bw/001.png","","","complex"
"","","","","","animation","73","2358950","0.0-73.0","1920x1080","","7423.200000000186","29.76","img/238/5.5/1/bw/001.png","","","complex"
"","","","","","animation","74","2371966","0.0-74.0","1920x1080","","13015.100000000093","70","img/238/3.5/1/bw/001.png","","","complex"
"","","","","","animation","75","2380293","0.0-75.0","1920x1080","","8326.700000000186","33.33","img/314/5.5/1/bw/001.png","","","complex"
"","","","","","animation","76","2397686","0.0-76.0","1920x1080","","17391","64.42","img/238/2.5/1/bw/001.png","","","complex"
"","","","","","animation","77","2401873","0.0-77.0","1920x1080","","4186.399999999907","45.63","img/238/5.5/0.5/bw/001.png","","","complex"
"","","","","","animation","78","2415787","0.0-78.0","1920x1080","","13907.799999999814","60","img/314/2.5/2/bw/001.png","","","complex"
"","","","","","animation","79","2422883","0.0-79.0","1920x1080","","7094.9000000003725","73","img/238/4.5/1.5/bw/001.png","","","complex"
"","","","","","animation","80","2434250","0.0-80.0","1920x1080","","11366.700000000186","74.74","img/314/2.5/0.5/bw/001.png","","","complex"
"","","","","","animation","81","2445691","0.0-81.0","1920x1080","","11439.30000000028","73","img/117/2.5/2/bw/001.png","","","complex"
"","","","","","html-button-response","82","2464678","0.0-82.0","1920x1080","","18985.799999999814","","<div class=""intro"">You are about to view a new series of animations.<br><br></div><div class=""intro"">You will evaluate them based on a different descriptor.<br><br></div><div class=""intro"">Move the slider to indicate how <strong style=""text-transform:capitalize"">INTERESTING</strong> you find each animation.<br><br></div><div class=""intro"">0 = Least Interesting<br></div><div class=""intro"">1 = Most Interesting<br><br></div><div class=""intro"">Remember to use the <strong><em>entire range</em></strong> of the slider to make your ratings.<br></div><div class=""intro"">Please <strong><em>take your time</em></strong> and carefully consider each rating you make.<br><br></div>","0","",""
"","","","","","call-function","83","2464679","0.0-83.0","1920x1080","","","","","","",""
"","","","","","animation","84","2482485","0.0-84.0","1920x1080","","17803.399999999907","65","img/238/4/0.5/bw/001.png","","","interesting"
"","","","","","animation","85","2499080","0.0-85.0","1920x1080","","16594.299999999814","44.84","img/238/5.5/1/bw/001.png","","","interesting"
"","","","","","animation","86","2513941","0.0-86.0","1920x1080","","14859.19999999972","86","img/238/4.5/2/bw/001.png","","","interesting"
"","","","","","animation","87","2528814","0.0-87.0","1920x1080","","14871.899999999907","50.26","img/238/2.5/1/bw/001.png","","","interesting"
"","","","","","animation","88","2552304","0.0-88.0","1920x1080","","23493.799999999814","69.05","img/314/5.5/1.5/bw/001.png","","","interesting"
"","","","","","animation","89","2571442","0.0-89.0","1920x1080","","19136.799999999814","36.90","img/314/5.5/2/bw/001.png","","","interesting"
"","","","","","animation","90","2592576","0.0-90.0","1920x1080","","21132.80000000028","60.05","img/117/2.5/1/bw/001.png","","","interesting"
"","","","","","animation","91","2632080","0.0-91.0","1920x1080","","39502.60000000009","86","img/238/2.5/0.66667/bw/001.png","","","interesting"
"","","","","","animation","92","2660589","0.0-92.0","1920x1080","","28503.099999999627","69.97","img/238/4/1.5/bw/001.png","","","interesting"
"","","","","","animation","93","2683421","0.0-93.0","1920x1080","","22830.600000000093","80.03","img/314/4.5/1/bw/001.png","","","interesting"
"","","","","","animation","94","2689957","0.0-94.0","1920x1080","","6534.700000000186","50.13","img/238/2.5/0.5/bw/001.png","","","interesting"
"","","","","","animation","95","2702541","0.0-95.0","1920x1080","","12583.299999999814","88.10","img/238/4/0.66667/bw/001.png","","","interesting"
"","","","","","animation","96","2719940","0.0-96.0","1920x1080","","17398.599999999627","85.05","img/238/2.5/2/bw/001.png","","","interesting"
"","","","","","animation","97","2741268","0.0-97.0","1920x1080","","21326.69999999972","65.61","img/117/4/1/bw/001.png","","","interesting"
"","","","","","animation","98","2769279","0.0-98.0","1920x1080","","28009.600000000093","48.41","img/117/4.5/2/bw/001.png","","","interesting"
"","","","","","animation","99","2803677","0.0-99.0","1920x1080","","34398.90000000037","40.34","img/238/5.5/0.66667/bw/001.png","","","interesting"
"","","","","","animation","100","2837567","0.0-100.0","1920x1080","","33883.39999999991","88.10","img/314/4/1/bw/001.png","","","interesting"
"","","","","","animation","101","2849150","0.0-101.0","1920x1080","","11582.700000000186","49.87","img/117/2.5/0.66667/bw/001.png","","","interesting"
"","","","","","animation","102","2889759","0.0-102.0","1920x1080","","40606.5","91.67","img/117/4/2/bw/001.png","","","interesting"
"","","","","","animation","103","2912245","0.0-103.0","1920x1080","","22487","91.80","img/117/4.5/1/bw/001.png","","","interesting"
"","","","","","animation","104","2919912","0.0-104.0","1920x1080","","7665.600000000093","83.47","img/314/4.5/0.5/bw/001.png","","","interesting"
"","","","","","animation","105","2925717","0.0-105.0","1920x1080","","5804.100000000093","97","img/117/3.5/2/bw/001.png","","","interesting"
"","","","","","animation","106","2936546","0.0-106.0","1920x1080","","10827.19999999972","60.05","img/117/2.5/0.5/bw/001.png","","","interesting"
"","","","","","animation","107","2953434","0.0-107.0","1920x1080","","16890.299999999814","81.48","img/117/4/1.5/bw/001.png","","","interesting"
"","","","","","animation","108","2985394","0.0-108.0","1920x1080","","31958.399999999907","70.24","img/238/4.5/0.5/bw/001.png","","","interesting"
"","","","","","animation","109","3030430","0.0-109.0","1920x1080","","45031.89999999991","71.56","img/117/5.5/1.5/bw/001.png","","","interesting"
"","","","","","animation","110","3051789","0.0-110.0","1920x1080","","21357.899999999907","66.67","img/238/4.5/1.5/bw/001.png","","","interesting"
"","","","","","animation","111","3061653","0.0-111.0","1920x1080","","9862.899999999907","89.68","img/117/3.5/1.5/bw/001.png","","","interesting"
"","","","","","animation","112","3069512","0.0-112.0","1920x1080","","7857.800000000279","93.39","img/117/3.5/0.66667/bw/001.png","","","interesting"
"","","","","","animation","113","3083277","0.0-113.0","1920x1080","","13765.100000000093","64.68","img/117/5.5/2/bw/001.png","","","interesting"
"","","","","","animation","114","3115726","0.0-114.0","1920x1080","","32447.5","50.40","img/238/4.5/0.66667/bw/001.png","","","interesting"
"","","","","","animation","115","3151533","0.0-115.0","1920x1080","","35803.19999999972","34.92","img/238/5.5/2/bw/001.png","","","interesting"
"","","","","","animation","116","3174421","0.0-116.0","1920x1080","","22886.899999999907","59.92","img/314/4/0.5/bw/001.png","","","interesting"
"","","","","","animation","117","3199061","0.0-117.0","1920x1080","","24638.100000000093","65.34","img/117/4.5/0.5/bw/001.png","","","interesting"
"","","","","","animation","118","3221916","0.0-118.0","1920x1080","","22852.899999999907","77.12","img/314/5.5/0.5/bw/001.png","","","interesting"
"","","","","","animation","119","3231132","0.0-119.0","1920x1080","","9214.899999999907","70.63","img/238/4/1/bw/001.png","","","interesting"
"","","","","","animation","120","3236836","0.0-120.0","1920x1080","","5703.100000000093","75","img/117/4/0.66667/bw/001.png","","","interesting"
"","","","","","animation","121","3244516","0.0-121.0","1920x1080","","7678.799999999814","52","img/238/5.5/0.5/bw/001.png","","","interesting"
"","","","","","animation","122","3252674","0.0-122.0","1920x1080","","8158.899999999907","68.25","img/314/3.5/2/bw/001.png","","","interesting"
"","","","","","animation","123","3258092","0.0-123.0","1920x1080","","5417.4000000003725","45.90","img/314/2.5/0.66667/bw/001.png","","","interesting"
"","","","","","animation","124","3263897","0.0-124.0","1920x1080","","5803.699999999721","56.88","img/238/3.5/1/bw/001.png","","","interesting"
"","","","","","animation","125","3274825","0.0-125.0","1920x1080","","10926.399999999907","44.71","img/314/2.5/0.5/bw/001.png","","","interesting"
"","","","","","animation","126","3307913","0.0-126.0","1920x1080","","33087.40000000037","61.77","img/314/4.5/0.66667/bw/001.png","","","interesting"
"","","","","","animation","127","3331004","0.0-127.0","1920x1080","","23086.299999999814","40.21","img/238/5.5/1.5/bw/001.png","","","interesting"
"","","","","","animation","128","3341916","0.0-128.0","1920x1080","","10911.099999999627","62.96","img/314/4.5/1.5/bw/001.png","","","interesting"
"","","","","","animation","129","3346948","0.0-129.0","1920x1080","","5030.800000000279","62.30","img/314/5.5/0.66667/bw/001.png","","","interesting"
"","","","","","animation","130","3352212","0.0-130.0","1920x1080","","5262.299999999814","53.31","img/117/4.5/1.5/bw/001.png","","","interesting"
"","","","","","animation","131","3362836","0.0-131.0","1920x1080","","10623.299999999814","51.72","img/117/5.5/1/bw/001.png","","","interesting"
"","","","","","animation","132","3369996","0.0-132.0","1920x1080","","7158.5","82.28","img/314/4/1.5/bw/001.png","","","interesting"
"","","","","","animation","133","3376124","0.0-133.0","1920x1080","","6129.700000000186","73.81","img/314/4/2/bw/001.png","","","interesting"
"","","","","","animation","134","3379498","0.0-134.0","1920x1080","","3372.5999999996275","66.67","img/238/3.5/2/bw/001.png","","","interesting"
"","","","","","animation","135","3384242","0.0-135.0","1920x1080","","4743.100000000093","61.77","img/314/3.5/0.66667/bw/001.png","","","interesting"
"","","","","","animation","136","3394307","0.0-136.0","1920x1080","","10064.100000000093","80","img/314/3.5/1.5/bw/001.png","","","interesting"
"","","","","","animation","137","3400514","0.0-137.0","1920x1080","","6203.100000000093","94","img/238/3.5/0.66667/bw/001.png","","","interesting"
"","","","","","animation","138","3407225","0.0-138.0","1920x1080","","6710.5999999996275","55.16","img/314/5.5/1/bw/001.png","","","interesting"
"","","","","","animation","139","3413193","0.0-139.0","1920x1080","","5967.100000000093","61.90","img/117/4.5/0.66667/bw/001.png","","","interesting"
"","","","","","animation","140","3422618","0.0-140.0","1920x1080","","9423.399999999907","49.74","img/314/3.5/1/bw/001.png","","","interesting"
"","","","","","animation","141","3425340","0.0-141.0","1920x1080","","2721.3000000002794","48.15","img/117/2.5/1.5/bw/001.png","","","interesting"
"","","","","","animation","142","3437437","0.0-142.0","1920x1080","","12092.600000000093","71.43","img/238/4.5/1/bw/001.png","","","interesting"
"","","","","","animation","143","3444095","0.0-143.0","1920x1080","","6656.200000000186","48.54","img/314/2.5/1.5/bw/001.png","","","interesting"
"","","","","","animation","144","3448944","0.0-144.0","1920x1080","","4848.200000000186","75.66","img/117/3.5/0.5/bw/001.png","","","interesting"
"","","","","","animation","145","3454261","0.0-145.0","1920x1080","","5316.300000000279","55.29","img/117/5.5/0.5/bw/001.png","","","interesting"
"","","","","","animation","146","3460294","0.0-146.0","1920x1080","","6031.699999999721","29.37","img/238/4/2/bw/001.png","","","interesting"
"","","","","","animation","147","3466794","0.0-147.0","1920x1080","","6498.5","57.14","img/314/4/0.66667/bw/001.png","","","interesting"
"","","","","","animation","148","3474333","0.0-148.0","1920x1080","","7538.5","50.00","img/117/2.5/2/bw/001.png","","","interesting"
"","","","","","animation","149","3480528","0.0-149.0","1920x1080","","6190.9000000003725","77.65","img/117/4/0.5/bw/001.png","","","interesting"
"","","","","","animation","150","3488853","0.0-150.0","1920x1080","","8324.200000000186","52.51","img/314/2.5/1/bw/001.png","","","interesting"
"","","","","","animation","151","3499869","0.0-151.0","1920x1080","","11015.100000000093","73.94","img/314/4.5/2/bw/001.png","","","interesting"
"","","","","","animation","152","3506037","0.0-152.0","1920x1080","","6165.100000000093","50.00","img/238/2.5/1.5/bw/001.png","","","interesting"
"","","","","","animation","153","3511197","0.0-153.0","1920x1080","","5158.0999999996275","54.76","img/314/3.5/0.5/bw/001.png","","","interesting"
"","","","","","animation","154","3518069","0.0-154.0","1920x1080","","6871.200000000186","45.77","img/117/5.5/0.66667/bw/001.png","","","interesting"
"","","","","","animation","155","3524029","0.0-155.0","1920x1080","","5958.4000000003725","56.35","img/314/2.5/2/bw/001.png","","","interesting"
"","","","","","animation","156","3529161","0.0-156.0","1920x1080","","5130.600000000093","39.29","img/238/3.5/0.5/bw/001.png","","","interesting"
"","","","","","animation","157","3536160","0.0-157.0","1920x1080","","6998.799999999814","40.08","img/238/3.5/1.5/bw/001.png","","","interesting"
"","","","","","animation","158","3544311","0.0-158.0","1920x1080","","8149.5","85.32","img/117/3.5/1/bw/001.png","","","interesting"
"","","","","","html-button-response","159","3563451","0.0-159.0","1920x1080","","19135.100000000093","","<div class=""intro"">You are about to view a new series of animations.<br><br></div><div class=""intro"">You will evaluate them based on a different descriptor.<br><br></div><div class=""intro"">Move the slider to indicate how <strong style=""text-transform:capitalize"">APPEALING</strong> you find each animation.<br><br></div><div class=""intro"">0 = Least Appealing<br></div><div class=""intro"">1 = Most Appealing<br><br></div><div class=""intro"">Remember to use the <strong><em>entire range</em></strong> of the slider to make your ratings.<br></div><div class=""intro"">Please <strong><em>take your time</em></strong> and carefully consider each rating you make.<br><br></div>","0","",""
"","","","","","call-function","160","3563451","0.0-160.0","1920x1080","","","","","","",""
"","","","","","animation","161","3574456","0.0-161.0","1920x1080","","11004.200000000186","19.58","img/117/2.5/0.66667/bw/001.png","","","appealing"
"","","","","","animation","162","3583280","0.0-162.0","1920x1080","","8822.80000000028","36.64","img/238/4.5/0.66667/bw/001.png","","","appealing"
"","","","","","animation","163","3592888","0.0-163.0","1920x1080","","9606.900000000373","89.81","img/117/3.5/1/bw/001.png","","","appealing"
"","","","","","animation","164","3605584","0.0-164.0","1920x1080","","12694.700000000186","83.07","img/314/5.5/0.66667/bw/001.png","","","appealing"
"","","","","","animation","165","3616130","0.0-165.0","1920x1080","","10550.899999999441","20.37","img/238/3.5/0.5/bw/001.png","","","appealing"
"","","","","","animation","166","3626282","0.0-166.0","1920x1080","","10151.099999999627","69.84","img/117/4/0.66667/bw/001.png","","","appealing"
"","","","","","animation","167","3638210","0.0-167.0","1920x1080","","11926.200000000186","15.21","img/238/4/1/bw/001.png","","","appealing"
"","","","","","animation","168","3649978","0.0-168.0","1920x1080","","11766.900000000373","24.87","img/238/2.5/2/bw/001.png","","","appealing"
"","","","","","animation","169","3659698","0.0-169.0","1920x1080","","9718.900000000373","41.93","img/314/3.5/1.5/bw/001.png","","","appealing"
"","","","","","animation","170","3682755","0.0-170.0","1920x1080","","23057.299999999814","10.45","img/238/4.5/2/bw/001.png","","","appealing"
"","","","","","animation","171","3696576","0.0-171.0","1920x1080","","13820.299999999814","17.33","img/314/4.5/2/bw/001.png","","","appealing"
"","","","","","animation","172","3708944","0.0-172.0","1920x1080","","12365.799999999814","21.96","img/238/4/2/bw/001.png","","","appealing"
"","","","","","animation","173","3719432","0.0-173.0","1920x1080","","10486.700000000186","64.55","img/238/3.5/1/bw/001.png","","","appealing"
"","","","","","animation","174","3736202","0.0-174.0","1920x1080","","16771.5","85","img/314/5.5/1.5/bw/001.png","","","appealing"
"","","","","","animation","175","3746702","0.0-175.0","1920x1080","","10499","86.51","img/314/4.5/1/bw/001.png","","","appealing"
"","","","","","animation","176","3756773","0.0-176.0","1920x1080","","10069.299999999814","50.26","img/238/5.5/1.5/bw/001.png","","","appealing"
"","","","","","animation","177","3770141","0.0-177.0","1920x1080","","13366.700000000186","13.62","img/117/2.5/2/bw/001.png","","","appealing"
"","","","","","animation","178","3778369","0.0-178.0","1920x1080","","8226.600000000559","10.45","img/314/2.5/1/bw/001.png","","","appealing"
"","","","","","animation","179","3787557","0.0-179.0","1920x1080","","9186.200000000186","56.08","img/117/3.5/2/bw/001.png","","","appealing"
"","","","","","animation","180","3794290","0.0-180.0","1920x1080","","6734.600000000559","94","img/117/4.5/0.5/bw/001.png","","","appealing"
"","","","","","animation","181","3801922","0.0-181.0","1920x1080","","7630.299999999814","64.55","img/314/3.5/0.5/bw/001.png","","","appealing"
"","","","","","animation","182","3808202","0.0-182.0","1920x1080","","6278.399999999441","34.26","img/117/2.5/1/bw/001.png","","","appealing"
"","","","","","animation","183","3830570","0.0-183.0","1920x1080","","22366.799999999814","63","img/238/3.5/2/bw/001.png","","","appealing"
"","","","","","animation","184","3840966","0.0-184.0","1920x1080","","10393.900000000373","70.37","img/238/4/0.5/bw/001.png","","","appealing"
"","","","","","animation","185","3853334","0.0-185.0","1920x1080","","12365.399999999441","60","img/314/5.5/2/bw/001.png","","","appealing"
"","","","","","animation","186","3865356","0.0-186.0","1920x1080","","12020.300000000745","84.39","img/314/4/0.66667/bw/001.png","","","appealing"
"","","","","","animation","187","3873151","0.0-187.0","1920x1080","","7793.5","74.87","img/238/4.5/1.5/bw/001.png","","","appealing"
"","","","","","animation","188","3882172","0.0-188.0","1920x1080","","9020.5","66.14","img/314/4.5/0.66667/bw/001.png","","","appealing"
"","","","","","animation","189","3891172","0.0-189.0","1920x1080","","8998.699999999255","34.92","img/238/4.5/1/bw/001.png","","","appealing"
"","","","","","animation","190","3905924","0.0-190.0","1920x1080","","14750.900000000373","77","img/314/4/2/bw/001.png","","","appealing"
"","","","","","animation","191","3915115","0.0-191.0","1920x1080","","9192.200000000186","50.93","img/117/4/0.5/bw/001.png","","","appealing"
"","","","","","animation","192","3922616","0.0-192.0","1920x1080","","7500.5","87.04","img/314/5.5/0.5/bw/001.png","","","appealing"
"","","","","","animation","193","3931214","0.0-193.0","1920x1080","","8596.900000000373","85.45","img/117/5.5/1.5/bw/001.png","","","appealing"
"","","","","","animation","194","3944257","0.0-194.0","1920x1080","","13042","78.17","img/117/4.5/2/bw/001.png","","","appealing"
"","","","","","animation","195","3956865","0.0-195.0","1920x1080","","12606.100000000559","44.71","img/117/2.5/0.5/bw/001.png","","","appealing"
"","","","","","animation","196","3980088","0.0-196.0","1920x1080","","23221.5","89.55","img/314/4/0.5/bw/001.png","","","appealing"
"","","","","","animation","197","3986064","0.0-197.0","1920x1080","","5974.4000000003725","27","img/238/5.5/0.5/bw/001.png","","","appealing"
"","","","","","animation","198","3991456","0.0-198.0","1920x1080","","5390.9000000003725","17.72","img/238/2.5/0.5/bw/001.png","","","appealing"
"","","","","","animation","199","4001752","0.0-199.0","1920x1080","","10294.599999999627","44.58","img/314/3.5/2/bw/001.png","","","appealing"
"","","","","","animation","200","4008547","0.0-200.0","1920x1080","","6793.5","55.03","img/314/4/1/bw/001.png","","","appealing"
"","","","","","animation","201","4012752","0.0-201.0","1920x1080","","4204.299999999814","84.39","img/117/4/2/bw/001.png","","","appealing"
"","","","","","animation","202","4027297","0.0-202.0","1920x1080","","14543.200000000186","59.66","img/238/5.5/0.66667/bw/001.png","","","appealing"
"","","","","","animation","203","4030784","0.0-203.0","1920x1080","","3486.5","26.72","img/314/2.5/2/bw/001.png","","","appealing"
"","","","","","animation","204","4039131","0.0-204.0","1920x1080","","8344.599999999627","57.41","img/117/5.5/1/bw/001.png","","","appealing"
"","","","","","animation","205","4054114","0.0-205.0","1920x1080","","14981.599999999627","53.04","img/238/3.5/1.5/bw/001.png","","","appealing"
"","","","","","animation","206","4060257","0.0-206.0","1920x1080","","6141.5999999996275","45.11","img/238/3.5/0.66667/bw/001.png","","","appealing"
"","","","","","animation","207","4067705","0.0-207.0","1920x1080","","7446.5","80.29","img/117/4/1.5/bw/001.png","","","appealing"
"","","","","","animation","208","4074165","0.0-208.0","1920x1080","","6458.5","31.75","img/238/2.5/1.5/bw/001.png","","","appealing"
"","","","","","animation","209","4089249","0.0-209.0","1920x1080","","15082","85.32","img/117/5.5/0.66667/bw/001.png","","","appealing"
"","","","","","animation","210","4097763","0.0-210.0","1920x1080","","8514.400000000373","17.20","img/314/2.5/1.5/bw/001.png","","","appealing"
"","","","","","animation","211","4111456","0.0-211.0","1920x1080","","13691.599999999627","17.86","img/314/2.5/0.5/bw/001.png","","","appealing"
"","","","","","animation","212","4129784","0.0-212.0","1920x1080","","18326.200000000186","62.57","img/314/4/1.5/bw/001.png","","","appealing"
"","","","","","animation","213","4148363","0.0-213.0","1920x1080","","18577.5","60.98","img/117/4.5/1.5/bw/001.png","","","appealing"
"","","","","","animation","214","4154029","0.0-214.0","1920x1080","","5667.800000000745","20.24","img/238/2.5/1/bw/001.png","","","appealing"
"","","","","","animation","215","4163261","0.0-215.0","1920x1080","","9230.700000000186","40","img/117/3.5/1.5/bw/001.png","","","appealing"
"","","","","","animation","216","4168294","0.0-216.0","1920x1080","","5031.700000000186","34.79","img/314/3.5/0.66667/bw/001.png","","","appealing"
"","","","","","animation","217","4173645","0.0-217.0","1920x1080","","5350","44.44","img/314/4.5/0.5/bw/001.png","","","appealing"
"","","","","","animation","218","4178182","0.0-218.0","1920x1080","","4535.200000000186","52.25","img/238/4.5/0.5/bw/001.png","","","appealing"
"","","","","","animation","219","4183294","0.0-219.0","1920x1080","","5110.899999999441","36.51","img/117/3.5/0.5/bw/001.png","","","appealing"
"","","","","","animation","220","4188886","0.0-220.0","1920x1080","","5590.799999999814","71.03","img/117/4.5/0.66667/bw/001.png","","","appealing"
"","","","","","animation","221","4195811","0.0-221.0","1920x1080","","6923.300000000279","83.86","img/314/5.5/1/bw/001.png","","","appealing"
"","","","","","animation","222","4205646","0.0-222.0","1920x1080","","9833.899999999441","69.84","img/117/4.5/1/bw/001.png","","","appealing"
"","","","","","animation","223","4211261","0.0-223.0","1920x1080","","5614.100000000559","22.35","img/238/2.5/0.66667/bw/001.png","","","appealing"
"","","","","","animation","224","4218247","0.0-224.0","1920x1080","","6981.9000000003725","60.05","img/117/5.5/2/bw/001.png","","","appealing"
"","","","","","animation","225","4223379","0.0-225.0","1920x1080","","5130.9000000003725","73.81","img/238/4/0.66667/bw/001.png","","","appealing"
"","","","","","animation","226","4232012","0.0-226.0","1920x1080","","8632","60.71","img/238/5.5/1/bw/001.png","","","appealing"
"","","","","","animation","227","4240412","0.0-227.0","1920x1080","","8398.399999999441","79.63","img/117/5.5/0.5/bw/001.png","","","appealing"
"","","","","","animation","228","4248519","0.0-228.0","1920x1080","","8106.200000000186","69.58","img/314/4.5/1.5/bw/001.png","","","appealing"
"","","","","","animation","229","4257303","0.0-229.0","1920x1080","","8782.700000000186","64.15","img/314/3.5/1/bw/001.png","","","appealing"
"","","","","","animation","230","4278517","0.0-230.0","1920x1080","","21214.5","44.84","img/238/5.5/2/bw/001.png","","","appealing"
"","","","","","animation","231","4282960","0.0-231.0","1920x1080","","4441.399999999441","22.49","img/314/2.5/0.66667/bw/001.png","","","appealing"
"","","","","","animation","232","4288027","0.0-232.0","1920x1080","","5065.799999999814","60.85","img/117/4/1/bw/001.png","","","appealing"
"","","","","","animation","233","4291527","0.0-233.0","1920x1080","","3498.7000000001863","24.87","img/117/2.5/1.5/bw/001.png","","","appealing"
"","","","","","animation","234","4297581","0.0-234.0","1920x1080","","6053.299999999814","68.39","img/238/4/1.5/bw/001.png","","","appealing"
"","","","","","animation","235","4301910","0.0-235.0","1920x1080","","4326.899999999441","37.96","img/117/3.5/0.66667/bw/001.png","","","appealing"
"","","","","","html-button-response","236","4321026","0.0-236.0","1920x1080","","19114.89999999944","","<div class=""intro"">You are about to view a new series of animations.<br><br></div><div class=""intro"">You will evaluate them based on a different descriptor.<br><br></div><div class=""intro"">Move the slider to indicate how <strong style=""text-transform:capitalize"">RELAXING</strong> you find each animation.<br><br></div><div class=""intro"">0 = Least Relaxing<br></div><div class=""intro"">1 = Most Relaxing<br><br></div><div class=""intro"">Remember to use the <strong><em>entire range</em></strong> of the slider to make your ratings.<br></div><div class=""intro"">Please <strong><em>take your time</em></strong> and carefully consider each rating you make.<br><br></div>","0","",""
"","","","","","call-function","237","4321029","0.0-237.0","1920x1080","","","","","","",""
"","","","","","animation","238","4335934","0.0-238.0","1920x1080","","14904.399999999441","35.45","img/117/4/0.66667/bw/001.png","","","relaxing"
"","","","","","animation","239","4345318","0.0-239.0","1920x1080","","9382.699999999255","86","img/314/3.5/1.5/bw/001.png","","","relaxing"
"","","","","","animation","240","4359811","0.0-240.0","1920x1080","","14491.599999999627","30.16","img/238/4/0.5/bw/001.png","","","relaxing"
"","","","","","animation","241","4399028","0.0-241.0","1920x1080","","39217.39999999944","87.17","img/238/4.5/2/bw/001.png","","","relaxing"
"","","","","","animation","242","4408159","0.0-242.0","1920x1080","","9129.099999999627","76.19","img/314/4/2/bw/001.png","","","relaxing"
"","","","","","animation","243","4417209","0.0-243.0","1920x1080","","9048.900000000373","49.74","img/117/4/1/bw/001.png","","","relaxing"
"","","","","","animation","244","4429125","0.0-244.0","1920x1080","","11914.899999999441","26.19","img/238/4/0.66667/bw/001.png","","","relaxing"
"","","","","","animation","245","4438394","0.0-245.0","1920x1080","","9266.899999999441","17.20","img/238/3.5/0.66667/bw/001.png","","","relaxing"
"","","","","","animation","246","4447500","0.0-246.0","1920x1080","","9105.399999999441","89.55","img/117/5.5/0.66667/bw/001.png","","","relaxing"
"","","","","","animation","247","4458209","0.0-247.0","1920x1080","","10705.100000000559","71.56","img/314/4.5/1/bw/001.png","","","relaxing"
"","","","","","animation","248","4469011","0.0-248.0","1920x1080","","10798.900000000373","65.34","img/117/4/2/bw/001.png","","","relaxing"
"","","","","","animation","249","4474060","0.0-249.0","1920x1080","","5047.5999999996275","8.86","img/117/3.5/0.5/bw/001.png","","","relaxing"
"","","","","","animation","250","4484229","0.0-250.0","1920x1080","","10167.400000000373","53.31","img/238/4/1/bw/001.png","","","relaxing"
"","","","","","animation","251","4490594","0.0-251.0","1920x1080","","6364.399999999441","14.95","img/238/2.5/1.5/bw/001.png","","","relaxing"
"","","","","","animation","252","4501917","0.0-252.0","1920x1080","","11321.400000000373","10.58","img/314/3.5/0.66667/bw/001.png","","","relaxing"
"","","","","","animation","253","4513705","0.0-253.0","1920x1080","","11793.5","83.73","img/238/5.5/1.5/bw/001.png","","","relaxing"
"","","","","","animation","254","4523694","0.0-254.0","1920x1080","","9986.799999999814","19","img/117/2.5/1.5/bw/001.png","","","relaxing"
"","","","","","animation","255","4540202","0.0-255.0","1920x1080","","16505.89999999944","17","img/117/2.5/1/bw/001.png","","","relaxing"
"","","","","","animation","256","4549952","0.0-256.0","1920x1080","","9748.700000000186","73.81","img/314/4.5/1.5/bw/001.png","","","relaxing"
"","","","","","animation","257","4556769","0.0-257.0","1920x1080","","6815.5999999996275","38.62","img/238/3.5/1/bw/001.png","","","relaxing"
"","","","","","animation","258","4565837","0.0-258.0","1920x1080","","9067.400000000373","44.71","img/117/4.5/0.66667/bw/001.png","","","relaxing"
"","","","","","animation","259","4574893","0.0-259.0","1920x1080","","9046.5","9.79","img/314/2.5/1/bw/001.png","","","relaxing"
"","","","","","animation","260","4588302","0.0-260.0","1920x1080","","13407.099999999627","60.19","img/314/4/1/bw/001.png","","","relaxing"
"","","","","","animation","261","4609443","0.0-261.0","1920x1080","","21139.400000000373","90.61","img/314/5.5/1/bw/001.png","","","relaxing"
"","","","","","animation","262","4630502","0.0-262.0","1920x1080","","21057.300000000745","19.97","img/314/2.5/0.66667/bw/001.png","","","relaxing"
"","","","","","animation","263","4650744","0.0-263.0","1920x1080","","20239.5","72.22","img/238/4.5/1/bw/001.png","","","relaxing"
"","","","","","animation","264","4672943","0.0-264.0","1920x1080","","22196.700000000186","50.26","img/117/3.5/1/bw/001.png","","","relaxing"
"","","","","","animation","265","4680276","0.0-265.0","1920x1080","","7332.4000000003725","19.97","img/314/2.5/1.5/bw/001.png","","","relaxing"
"","","","","","animation","266","4688459","0.0-266.0","1920x1080","","8181.100000000559","80.16","img/314/5.5/0.66667/bw/001.png","","","relaxing"
"","","","","","animation","267","4694493","0.0-267.0","1920x1080","","6031.600000000559","84.79","img/117/5.5/0.5/bw/001.png","","","relaxing"
"","","","","","animation","268","4704176","0.0-268.0","1920x1080","","9681.799999999814","91.27","img/238/5.5/1/bw/001.png","","","relaxing"
"","","","","","animation","269","4714509","0.0-269.0","1920x1080","","10331.599999999627","50.53","img/238/4.5/0.5/bw/001.png","","","relaxing"
"","","","","","animation","270","4719692","0.0-270.0","1920x1080","","5182.299999999814","42.06","img/314/4/0.66667/bw/001.png","","","relaxing"
"","","","","","animation","271","4727477","0.0-271.0","1920x1080","","7782.5","24.87","img/117/2.5/2/bw/001.png","","","relaxing"
"","","","","","animation","272","4735726","0.0-272.0","1920x1080","","8247.100000000559","12.70","img/117/3.5/0.66667/bw/001.png","","","relaxing"
"","","","","","animation","273","4744442","0.0-273.0","1920x1080","","8715.5","16.67","img/314/4/0.5/bw/001.png","","","relaxing"
"","","","","","animation","274","4757663","0.0-274.0","1920x1080","","13217","83","img/314/5.5/2/bw/001.png","","","relaxing"
"","","","","","animation","275","4777444","0.0-275.0","1920x1080","","19779.599999999627","75.79","img/238/5.5/2/bw/001.png","","","relaxing"
"","","","","","animation","276","4784944","0.0-276.0","1920x1080","","7498.100000000559","55.56","img/238/3.5/1.5/bw/001.png","","","relaxing"
"","","","","","animation","277","4801061","0.0-277.0","1920x1080","","16114.700000000186","68.78","img/238/4/2/bw/001.png","","","relaxing"
"","","","","","animation","278","4817030","0.0-278.0","1920x1080","","15968.200000000186","65.87","img/238/4/1.5/bw/001.png","","","relaxing"
"","","","","","animation","279","4831609","0.0-279.0","1920x1080","","14577.699999999255","73.41","img/117/4.5/2/bw/001.png","","","relaxing"
"","","","","","animation","280","4837766","0.0-280.0","1920x1080","","6154.899999999441","5.42","img/238/2.5/0.5/bw/001.png","","","relaxing"
"","","","","","animation","281","4857998","0.0-281.0","1920x1080","","20229.60000000056","36","img/117/3.5/2/bw/001.png","","","relaxing"
"","","","","","animation","282","4874912","0.0-282.0","1920x1080","","16909.60000000056","30","img/117/4.5/0.5/bw/001.png","","","relaxing"
"","","","","","animation","283","4880952","0.0-283.0","1920x1080","","6038.799999999814","11.77","img/117/2.5/0.66667/bw/001.png","","","relaxing"
"","","","","","animation","284","4891996","0.0-284.0","1920x1080","","11041.799999999814","72.88","img/117/4.5/1.5/bw/001.png","","","relaxing"
"","","","","","animation","285","4902928","0.0-285.0","1920x1080","","10931.099999999627","82.01","img/314/5.5/1.5/bw/001.png","","","relaxing"
"","","","","","animation","286","4907329","0.0-286.0","1920x1080","","4399","5.29","img/117/2.5/0.5/bw/001.png","","","relaxing"
"","","","","","animation","287","4918645","0.0-287.0","1920x1080","","11315.400000000373","85.19","img/238/4.5/1.5/bw/001.png","","","relaxing"
"","","","","","animation","288","4926646","0.0-288.0","1920x1080","","7998.399999999441","26.72","img/314/2.5/2/bw/001.png","","","relaxing"
"","","","","","animation","289","4936044","0.0-289.0","1920x1080","","9398.399999999441","93.65","img/238/3.5/2/bw/001.png","","","relaxing"
"","","","","","animation","290","4942367","0.0-290.0","1920x1080","","6321.200000000186","23.54","img/238/2.5/1/bw/001.png","","","relaxing"
"","","","","","animation","291","4949935","0.0-291.0","1920x1080","","7566.799999999814","50.13","img/314/4/1.5/bw/001.png","","","relaxing"
"","","","","","animation","292","4959862","0.0-292.0","1920x1080","","9925.899999999441","54.89","img/314/3.5/2/bw/001.png","","","relaxing"
"","","","","","animation","293","4969910","0.0-293.0","1920x1080","","10046.799999999814","40.21","img/314/4.5/0.5/bw/001.png","","","relaxing"
"","","","","","animation","294","4973877","0.0-294.0","1920x1080","","3965.4000000003725","4.50","img/314/3.5/0.5/bw/001.png","","","relaxing"
"","","","","","animation","295","4987543","0.0-295.0","1920x1080","","13664.099999999627","36.38","img/314/3.5/1/bw/001.png","","","relaxing"
"","","","","","animation","296","5006998","0.0-296.0","1920x1080","","19453.5","95","img/314/4.5/2/bw/001.png","","","relaxing"
"","","","","","animation","297","5012910","0.0-297.0","1920x1080","","5910.299999999814","10.05","img/238/2.5/0.66667/bw/001.png","","","relaxing"
"","","","","","animation","298","5021010","0.0-298.0","1920x1080","","8098.699999999255","79.50","img/238/5.5/0.5/bw/001.png","","","relaxing"
"","","","","","animation","299","5027710","0.0-299.0","1920x1080","","6698.5","59.52","img/117/4.5/1/bw/001.png","","","relaxing"
"","","","","","animation","300","5034260","0.0-300.0","1920x1080","","6548.299999999814","34.26","img/238/4.5/0.66667/bw/001.png","","","relaxing"
"","","","","","animation","301","5044199","0.0-301.0","1920x1080","","9936.400000000373","92.72","img/117/5.5/2/bw/001.png","","","relaxing"
"","","","","","animation","302","5047092","0.0-302.0","1920x1080","","2891.7000000001863","6.22","img/314/2.5/0.5/bw/001.png","","","relaxing"
"","","","","","animation","303","5056217","0.0-303.0","1920x1080","","9120.899999999441","24.74","img/117/3.5/1.5/bw/001.png","","","relaxing"
"","","","","","animation","304","5064169","0.0-304.0","1920x1080","","7950.700000000186","97","img/117/5.5/1.5/bw/001.png","","","relaxing"
"","","","","","animation","305","5068696","0.0-305.0","1920x1080","","4524.899999999441","13.89","img/238/3.5/0.5/bw/001.png","","","relaxing"
"","","","","","animation","306","5075369","0.0-306.0","1920x1080","","6672.0999999996275","20.24","img/238/2.5/2/bw/001.png","","","relaxing"
"","","","","","animation","307","5083596","0.0-307.0","1920x1080","","8225.400000000373","91.14","img/117/5.5/1/bw/001.png","","","relaxing"
"","","","","","animation","308","5091946","0.0-308.0","1920x1080","","8348.099999999627","92.20","img/117/4/1.5/bw/001.png","","","relaxing"
"","","","","","animation","309","5099697","0.0-309.0","1920x1080","","7748.700000000186","30","img/117/4/0.5/bw/001.png","","","relaxing"
"","","","","","animation","310","5107769","0.0-310.0","1920x1080","","8070.600000000559","65.34","img/314/4.5/0.66667/bw/001.png","","","relaxing"
"","","","","","animation","311","5116726","0.0-311.0","1920x1080","","8958.400000000373","79.76","img/238/5.5/0.66667/bw/001.png","","","relaxing"
"","","","","","animation","312","5126977","0.0-312.0","1920x1080","","10249.100000000559","85.19","img/314/5.5/0.5/bw/001.png","","","relaxing"
"","","","","","html-button-response","313","5150263","0.0-313.0","1920x1080","","23284.599999999627","","<div class=""intro"">You are about to view a new series of animations.<br><br></div><div class=""intro"">You will evaluate them based on a different descriptor.<br><br></div><div class=""intro"">Move the slider to indicate how <strong style=""text-transform:capitalize"">NATURAL</strong> you find each animation.<br><br></div><div class=""intro"">0 = Least Natural<br></div><div class=""intro"">1 = Most Natural<br><br></div><div class=""intro"">Remember to use the <strong><em>entire range</em></strong> of the slider to make your ratings.<br></div><div class=""intro"">Please <strong><em>take your time</em></strong> and carefully consider each rating you make.<br><br></div>","0","",""
"","","","","","call-function","314","5150266","0.0-314.0","1920x1080","","","","","","",""
"","","","","","animation","315","5158043","0.0-315.0","1920x1080","","7776.5999999996275","81.75","img/238/3.5/2/bw/001.png","","","natural"
"","","","","","animation","316","5170982","0.0-316.0","1920x1080","","12937.599999999627","82.94","img/314/3.5/1.5/bw/001.png","","","natural"
"","","","","","animation","317","5178769","0.0-317.0","1920x1080","","7782.299999999814","62.30","img/314/4/2/bw/001.png","","","natural"
"","","","","","animation","318","5196945","0.0-318.0","1920x1080","","18174.5","75","img/117/3.5/2/bw/001.png","","","natural"
"","","","","","animation","319","5211665","0.0-319.0","1920x1080","","14717.599999999627","48.68","img/314/3.5/1/bw/001.png","","","natural"
"","","","","","animation","320","5223729","0.0-320.0","1920x1080","","12063.199999999255","31.35","img/117/5.5/1/bw/001.png","","","natural"
"","","","","","animation","321","5238963","0.0-321.0","1920x1080","","15233.400000000373","22.75","img/238/5.5/1/bw/001.png","","","natural"
"","","","","","animation","322","5247168","0.0-322.0","1920x1080","","8202.899999999441","87","img/238/2.5/0.66667/bw/001.png","","","natural"
"","","","","","animation","323","5255800","0.0-323.0","1920x1080","","8629.399999999441","95","img/314/4.5/2/bw/001.png","","","natural"
"","","","","","animation","324","5261932","0.0-324.0","1920x1080","","6126.299999999814","79.50","img/238/3.5/0.5/bw/001.png","","","natural"
"","","","","","animation","325","5267399","0.0-325.0","1920x1080","","5465.5","78.04","img/238/2.5/1/bw/001.png","","","natural"
"","","","","","animation","326","5273028","0.0-326.0","1920x1080","","5624.600000000559","76.98","img/314/5.5/0.5/bw/001.png","","","natural"
"","","","","","animation","327","5285220","0.0-327.0","1920x1080","","12191.200000000186","84.66","img/117/4/1/bw/001.png","","","natural"
"","","","","","animation","328","5324447","0.0-328.0","1920x1080","","39225.199999999255","63.62","img/238/3.5/1.5/bw/001.png","","","natural"
"","","","","","animation","329","5336129","0.0-329.0","1920x1080","","11681.200000000186","78.84","img/314/2.5/1/bw/001.png","","","natural"
"","","","","","animation","330","5341943","0.0-330.0","1920x1080","","5812.300000000745","84.52","img/117/4.5/0.5/bw/001.png","","","natural"
"","","","","","animation","331","5352313","0.0-331.0","1920x1080","","10367.700000000186","79.63","img/314/4/0.66667/bw/001.png","","","natural"
"","","","","","animation","332","5359630","0.0-332.0","1920x1080","","7305.299999999814","63.23","img/238/4.5/0.66667/bw/001.png","","","natural"
"","","","","","animation","333","5368787","0.0-333.0","1920x1080","","9153.600000000559","71.43","img/314/2.5/2/bw/001.png","","","natural"
"","","","","","animation","334","5376756","0.0-334.0","1920x1080","","7967.5","83.60","img/117/4.5/1/bw/001.png","","","natural"
"","","","","","animation","335","5383524","0.0-335.0","1920x1080","","6765.299999999814","89.81","img/238/2.5/0.5/bw/001.png","","","natural"
"","","","","","animation","336","5394345","0.0-336.0","1920x1080","","10819.599999999627","74.60","img/117/3.5/1/bw/001.png","","","natural"
"","","","","","animation","337","5402625","0.0-337.0","1920x1080","","8277.799999999814","64.95","img/314/4.5/0.66667/bw/001.png","","","natural"
"","","","","","animation","338","5417488","0.0-338.0","1920x1080","","14860.599999999627","85.32","img/238/4.5/2/bw/001.png","","","natural"
"","","","","","animation","339","5423721","0.0-339.0","1920x1080","","6232.200000000186","59.79","img/117/4/0.66667/bw/001.png","","","natural"
"","","","","","animation","340","5433020","0.0-340.0","1920x1080","","9296.900000000373","90.61","img/238/3.5/1/bw/001.png","","","natural"
"","","","","","animation","341","5438704","0.0-341.0","1920x1080","","5682.0999999996275","82.67","img/117/2.5/0.5/bw/001.png","","","natural"
"","","","","","animation","342","5448493","0.0-342.0","1920x1080","","9787.900000000373","85.05","img/117/3.5/0.66667/bw/001.png","","","natural"
"","","","","","animation","343","5458887","0.0-343.0","1920x1080","","10392.300000000745","39.68","img/314/5.5/2/bw/001.png","","","natural"
"","","","","","animation","344","5466544","0.0-344.0","1920x1080","","7654.9000000003725","76","img/314/2.5/0.66667/bw/001.png","","","natural"
"","","","","","animation","345","5474586","0.0-345.0","1920x1080","","8040.5","50.40","img/238/4/1.5/bw/001.png","","","natural"
"","","","","","animation","346","5479692","0.0-346.0","1920x1080","","5104","88.62","img/117/5.5/0.66667/bw/001.png","","","natural"
"","","","","","animation","347","5492553","0.0-347.0","1920x1080","","12858.799999999814","36.77","img/238/4.5/1.5/bw/001.png","","","natural"
"","","","","","animation","348","5504578","0.0-348.0","1920x1080","","12022.799999999814","85.45","img/238/2.5/2/bw/001.png","","","natural"
"","","","","","animation","349","5512653","0.0-349.0","1920x1080","","8073","28.17","img/314/5.5/1/bw/001.png","","","natural"
"","","","","","animation","350","5518009","0.0-350.0","1920x1080","","5354.800000000745","83.33","img/238/2.5/1.5/bw/001.png","","","natural"
"","","","","","animation","351","5523321","0.0-351.0","1920x1080","","5309.5","79.63","img/314/4/0.5/bw/001.png","","","natural"
"","","","","","animation","352","5534878","0.0-352.0","1920x1080","","11564.399999999441","72","img/314/5.5/1.5/bw/001.png","","","natural"
"","","","","","animation","353","5539049","0.0-353.0","1920x1080","","4168.799999999814","53.97","img/238/4.5/0.5/bw/001.png","","","natural"
"","","","","","animation","354","5546516","0.0-354.0","1920x1080","","7465.899999999441","78.31","img/238/4/2/bw/001.png","","","natural"
"","","","","","animation","355","5556969","0.0-355.0","1920x1080","","10452","80.29","img/314/4.5/1.5/bw/001.png","","","natural"
"","","","","","animation","356","5562164","0.0-356.0","1920x1080","","5193.5","69.44","img/117/2.5/1.5/bw/001.png","","","natural"
"","","","","","animation","357","5571361","0.0-357.0","1920x1080","","9195.599999999627","40.08","img/117/5.5/2/bw/001.png","","","natural"
"","","","","","animation","358","5581978","0.0-358.0","1920x1080","","10615.200000000186","57.80","img/314/4.5/0.5/bw/001.png","","","natural"
"","","","","","animation","359","5594317","0.0-359.0","1920x1080","","12327.5","69.58","img/314/4/1/bw/001.png","","","natural"
"","","","","","animation","360","5610938","0.0-360.0","1920x1080","","16619.200000000186","73.15","img/314/3.5/2/bw/001.png","","","natural"
"","","","","","animation","361","5618104","0.0-361.0","1920x1080","","7163.5999999996275","66.80","img/117/4/0.5/bw/001.png","","","natural"
"","","","","","animation","362","5628241","0.0-362.0","1920x1080","","10135.600000000559","36.38","img/238/5.5/1.5/bw/001.png","","","natural"
"","","","","","animation","363","5638082","0.0-363.0","1920x1080","","9839","55.69","img/117/4/2/bw/001.png","","","natural"
"","","","","","animation","364","5644363","0.0-364.0","1920x1080","","6279.700000000186","83.33","img/117/2.5/2/bw/001.png","","","natural"
"","","","","","animation","365","5653123","0.0-365.0","1920x1080","","8764.900000000373","63.10","img/117/4.5/1.5/bw/001.png","","","natural"
"","","","","","animation","366","5662653","0.0-366.0","1920x1080","","9528.700000000186","45.50","img/314/4.5/1/bw/001.png","","","natural"
"","","","","","animation","367","5677998","0.0-367.0","1920x1080","","15343","50","img/314/4/1.5/bw/001.png","","","natural"
"","","","","","animation","368","5685164","0.0-368.0","1920x1080","","7164.5","85.98","img/314/2.5/1.5/bw/001.png","","","natural"
"","","","","","animation","369","5691852","0.0-369.0","1920x1080","","6686","89.55","img/314/3.5/0.66667/bw/001.png","","","natural"
"","","","","","animation","370","5702766","0.0-370.0","1920x1080","","10913","29.76","img/238/5.5/0.5/bw/001.png","","","natural"
"","","","","","animation","371","5710792","0.0-371.0","1920x1080","","8024.700000000186","77.38","img/238/4.5/1/bw/001.png","","","natural"
"","","","","","animation","372","5716500","0.0-372.0","1920x1080","","5704.899999999441","30.82","img/238/5.5/0.66667/bw/001.png","","","natural"
"","","","","","animation","373","5725172","0.0-373.0","1920x1080","","8670.5","79.50","img/238/4/0.5/bw/001.png","","","natural"
"","","","","","animation","374","5733836","0.0-374.0","1920x1080","","8661.900000000373","83.73","img/117/3.5/0.5/bw/001.png","","","natural"
"","","","","","animation","375","5749384","0.0-375.0","1920x1080","","15545","71.16","img/238/4/0.66667/bw/001.png","","","natural"
"","","","","","animation","376","5760349","0.0-376.0","1920x1080","","10962.700000000186","68.92","img/238/4/1/bw/001.png","","","natural"
"","","","","","animation","377","5773117","0.0-377.0","1920x1080","","12764.700000000186","81.61","img/117/4.5/2/bw/001.png","","","natural"
"","","","","","animation","378","5781199","0.0-378.0","1920x1080","","8079.4000000003725","28.44","img/238/5.5/2/bw/001.png","","","natural"
"","","","","","animation","379","5786582","0.0-379.0","1920x1080","","5381.299999999814","83.99","img/117/2.5/1/bw/001.png","","","natural"
"","","","","","animation","380","5794536","0.0-380.0","1920x1080","","7952.700000000186","83.99","img/117/5.5/0.5/bw/001.png","","","natural"
"","","","","","animation","381","5802148","0.0-381.0","1920x1080","","7610.5","91.80","img/238/3.5/0.66667/bw/001.png","","","natural"
"","","","","","animation","382","5808748","0.0-382.0","1920x1080","","6598.5","97","img/117/2.5/0.66667/bw/001.png","","","natural"
"","","","","","animation","383","5817801","0.0-383.0","1920x1080","","9050.799999999814","84.39","img/117/3.5/1.5/bw/001.png","","","natural"
"","","","","","animation","384","5825664","0.0-384.0","1920x1080","","7861.5","43.25","img/314/5.5/0.66667/bw/001.png","","","natural"
"","","","","","animation","385","5831931","0.0-385.0","1920x1080","","6265.399999999441","29.89","img/117/4.5/0.66667/bw/001.png","","","natural"
"","","","","","animation","386","5842227","0.0-386.0","1920x1080","","10290.100000000559","78.57","img/117/4/1.5/bw/001.png","","","natural"
"","","","","","animation","387","5846553","0.0-387.0","1920x1080","","4322.799999999814","93.78","img/314/2.5/0.5/bw/001.png","","","natural"
"","","","","","animation","388","5851873","0.0-388.0","1920x1080","","5318.300000000745","89.55","img/314/3.5/0.5/bw/001.png","","","natural"
"","","","","","animation","389","5862809","0.0-389.0","1920x1080","","10933.799999999814","85.32","img/117/5.5/1.5/bw/001.png","","","natural"
"","","","","","html-button-response","390","5878179","0.0-390.0","1920x1080","","15368.899999999441","","<strong>Study Debriefing</strong><br><p class=""debrief""><strong>Background:</strong> The patterns you rated are called <em>fractals</em>. The term fractal describes a class of irregular curves or shapes for which any suitably chosen part is similar in shape to a given larger or smaller part when magnified or reduced to the same size. Fractal properties are found throughout the natural and manmade world. The series of animations you saw today displayed animated fractal patterns of a varying complexity.</p><p class=""debrief""><strong>Purpose of this study:</strong> We hope to better understand how the perception of static fractals differs from the perception of animated fractals, and how the speed of the animated patterns influences people&apos;s perception of them. Fractals allow us to study the perception of aesthetic properties (e.g. the perceived level of beauty in an image) without using recognizable content, which makes them an excellent tool for studying abstract aesthetic judgement.</p><p class=""debrief""><strong>Your part:</strong> Your participation has helped us to further understand how humans perceive these patterns across different levels of speed and complexity. This research with allow us to better understand how the visual system and brain process our ever-changing visual environments.<p class=""debrief""><strong>Feedback and Further information:</strong> If you have additional questions about this study, please feel free to ask the researcher, Nathan Gonzales-Hess at nhess @ uoregon.edu. If you have any questions concerning your rights as a research participant, please contact Research Compliance Services, 5237 University of Oregon, Eugene, OR 97403, 541-346-2510, or email researchCompliance @ uoregon.edu. You can also email the Human Subjects Coordinator for psychology and linguistics research at hscoord @ uoregon.edu. ","0","",""
"","","","","","html-button-response","391","5883626","0.0-391.0","1920x1080","","5443.100000000559","","Thank you for participating in this study. <br>Please click below to finish the experiment and submit your responses.<br><br>","0","",""
"true","","","","","fullscreen","392","5884636","0.0-392.0","1920x1080","13:20 21/10/2022","","","","","",""
