"success","timeout","failed_images","failed_audio","failed_video","trial_type","trial_index","time_elapsed","internal_node_id","resolution","timeStamp","rt","response","stimulus","button_pressed","value","descriptor"
"true","false","[]","[]","[]","preload","0","5773","0.0-0.0","1920x1080","","","","","","",""
"true","false","[]","[]","[]","preload","1","11816","0.0-1.0","1920x1080","","","","","","",""
"true","false","[]","[]","[]","preload","2","17650","0.0-2.0","1920x1080","","","","","","",""
"true","","","","","fullscreen","3","1666402","0.0-3.0","1920x1080","13:28 11/10/2022","","","","","",""
"","","","","","survey-html-form","4","1677942","0.0-4.0","1920x1080","","11536.699999928474","{""age"":""18"",""gender"":""Male""}","","","",""
"","","","","","html-button-response","5","1703838","0.0-5.0","1920x1080","","25894.600000023842","","<div class=""complex"">You are going to see a series of animations.<br><br></div><div class=""complex"">Move the slider to indicate how <strong style=""text-transform:capitalize"">COMPLEX</strong> you find each animation.<br><br></div><div class=""complex"">0 = Least Complex<br></div><div class=""complex"">1 = Most Complex<br><br></div><div class=""complex"">Remember to use the <strong><em>entire range</em></strong> of the slider to make your ratings.<br></div><div class=""complex"">Please <strong><em>take your time</em></strong> and carefully consider each rating you make.<br><br></div><div class=""complex"">The study has five sections and will take about 45 minutes to complete.<br><br></div>","0","",""
"","","","","","call-function","6","1703838","0.0-6.0","1920x1080","","","","","","",""
"","","","","","animation","7","1723894","0.0-7.0","1920x1080","","20052.800000071526","40.21","img/238/4/0.66667/bw/001.png","","","complex"
"","","","","","animation","8","1729982","0.0-8.0","1920x1080","","6086.600000023842","19.58","img/238/5.5/1/bw/001.png","","","complex"
"","","","","","animation","9","1736207","0.0-9.0","1920x1080","","6223.5","19.84","img/238/5.5/2/bw/001.png","","","complex"
"","","","","","animation","10","1743390","0.0-10.0","1920x1080","","7182.700000047684","75.13","img/314/2.5/1.5/bw/001.png","","","complex"
"","","","","","animation","11","1766478","0.0-11.0","1920x1080","","23086.600000023842","59.79","img/238/3.5/1.5/bw/001.png","","","complex"
"","","","","","animation","12","1774510","0.0-12.0","1920x1080","","8031.100000023842","78.70","img/117/2.5/0.5/bw/001.png","","","complex"
"","","","","","animation","13","1843094","0.0-13.0","1920x1080","","68583","26.98","img/117/5.5/1/bw/001.png","","","complex"
"","","","","","animation","14","1850167","0.0-14.0","1920x1080","","7071.399999976158","54.76","img/238/3.5/2/bw/001.png","","","complex"
"","","","","","animation","15","1853110","0.0-15.0","1920x1080","","2942.8000000715256","32.01","img/117/4.5/0.5/bw/001.png","","","complex"
"","","","","","animation","16","1859247","0.0-16.0","1920x1080","","6135.399999976158","43.78","img/314/4/2/bw/001.png","","","complex"
"","","","","","animation","17","1862447","0.0-17.0","1920x1080","","3199.0999999046326","74.21","img/117/2.5/1.5/bw/001.png","","","complex"
"","","","","","animation","18","1866214","0.0-18.0","1920x1080","","3767.100000023842","32.28","img/314/4.5/0.66667/bw/001.png","","","complex"
"","","","","","animation","19","1869240","0.0-19.0","1920x1080","","3024.8000000715256","46.83","img/117/4/1.5/bw/001.png","","","complex"
"","","","","","animation","20","1872271","0.0-20.0","1920x1080","","3030","23.54","img/314/5.5/0.5/bw/001.png","","","complex"
"","","","","","animation","21","1878126","0.0-21.0","1920x1080","","5855.200000047684","57.28","img/117/4/0.66667/bw/001.png","","","complex"
"","","","","","animation","22","1943343","0.0-22.0","1920x1080","","65223.699999928474","64.42","img/117/3.5/0.5/bw/001.png","","","complex"
"","","","","","animation","23","2025460","0.0-23.0","1920x1080","","82110.70000004768","70.50","img/314/3.5/2/bw/001.png","","","complex"
"","","","","","animation","24","2050980","0.0-24.0","1920x1080","","25519.100000023842","29","img/117/4.5/1.5/bw/001.png","","","complex"
"","","","","","animation","25","2055516","0.0-25.0","1920x1080","","4535.5","78.44","img/238/2.5/1/bw/001.png","","","complex"
"","","","","","animation","26","2057748","0.0-26.0","1920x1080","","2231","28.17","img/238/4.5/0.66667/bw/001.png","","","complex"
"","","","","","animation","27","2061108","0.0-27.0","1920x1080","","3359.2000000476837","44.58","img/238/4/1/bw/001.png","","","complex"
"","","","","","animation","28","2063020","0.0-28.0","1920x1080","","1911.8000000715256","22.49","img/117/5.5/2/bw/001.png","","","complex"
"","","","","","animation","29","2065228","0.0-29.0","1920x1080","","2207","44.58","img/238/3.5/0.5/bw/001.png","","","complex"
"","","","","","animation","30","2067820","0.0-30.0","1920x1080","","2591.399999976158","60.98","img/117/3.5/2/bw/001.png","","","complex"
"","","","","","animation","31","2070572","0.0-31.0","1920x1080","","2750.5","56.88","img/117/4/0.5/bw/001.png","","","complex"
"","","","","","animation","32","2075588","0.0-32.0","1920x1080","","5015.5","66","img/314/3.5/0.5/bw/001.png","","","complex"
"","","","","","animation","33","2079180","0.0-33.0","1920x1080","","3591.600000023842","34.79","img/238/4.5/1/bw/001.png","","","complex"
"","","","","","animation","34","2082156","0.0-34.0","1920x1080","","2974.899999976158","72.88","img/314/2.5/1/bw/001.png","","","complex"
"","","","","","animation","35","2084303","0.0-35.0","1920x1080","","2151.2000000476837","53.04","img/314/4/1.5/bw/001.png","","","complex"
"","","","","","animation","36","2087103","0.0-36.0","1920x1080","","2799.2000000476837","64.81","img/117/3.5/1.5/bw/001.png","","","complex"
"","","","","","animation","37","2090303","0.0-37.0","1920x1080","","3199.3000000715256","60.19","img/314/3.5/1/bw/001.png","","","complex"
"","","","","","animation","38","2093471","0.0-38.0","1920x1080","","3167.3000000715256","14.02","img/314/5.5/0.66667/bw/001.png","","","complex"
"","","","","","animation","39","2096600","0.0-39.0","1920x1080","","3126.7000000476837","22.88","img/314/4/0.5/bw/001.png","","","complex"
"","","","","","animation","40","2099496","0.0-40.0","1920x1080","","2894.899999976158","37.57","img/117/4.5/0.66667/bw/001.png","","","complex"
"","","","","","animation","41","2101823","0.0-41.0","1920x1080","","2326.9000000953674","52.91","img/117/3.5/0.66667/bw/001.png","","","complex"
"","","","","","animation","42","2104752","0.0-42.0","1920x1080","","2927.600000023842","25.53","img/314/4.5/1/bw/001.png","","","complex"
"","","","","","animation","43","2110519","0.0-43.0","1920x1080","","5766.600000023842","17.20","img/314/5.5/1.5/bw/001.png","","","complex"
"","","","","","animation","44","2114728","0.0-44.0","1920x1080","","4207.299999952316","89.15","img/314/2.5/2/bw/001.png","","","complex"
"","","","","","animation","45","2117256","0.0-45.0","1920x1080","","2527.2000000476837","83.20","img/314/2.5/0.66667/bw/001.png","","","complex"
"","","","","","animation","46","2119671","0.0-46.0","1920x1080","","2414.7000000476837","23.28","img/314/4.5/0.5/bw/001.png","","","complex"
"","","","","","animation","47","2124735","0.0-47.0","1920x1080","","5063.100000023842","25.26","img/238/4.5/1.5/bw/001.png","","","complex"
"","","","","","animation","48","2127480","0.0-48.0","1920x1080","","2743.600000023842","41.01","img/238/4/0.5/bw/001.png","","","complex"
"","","","","","animation","49","2131616","0.0-49.0","1920x1080","","4135.899999976158","31.08","img/238/4/1.5/bw/001.png","","","complex"
"","","","","","animation","50","2134033","0.0-50.0","1920x1080","","2415.100000023842","20.50","img/117/5.5/1.5/bw/001.png","","","complex"
"","","","","","animation","51","2136672","0.0-51.0","1920x1080","","2638","19.44","img/238/5.5/1.5/bw/001.png","","","complex"
"","","","","","animation","52","2140288","0.0-52.0","1920x1080","","3615.2999999523163","22.09","img/238/4.5/2/bw/001.png","","","complex"
"","","","","","animation","53","2142682","0.0-53.0","1920x1080","","2393.0999999046326","37.70","img/314/4.5/1.5/bw/001.png","","","complex"
"","","","","","animation","54","2146743","0.0-54.0","1920x1080","","4061.399999976158","40","img/117/4/2/bw/001.png","","","complex"
"","","","","","animation","55","2149455","0.0-55.0","1920x1080","","2710.7000000476837","73.28","img/117/2.5/1/bw/001.png","","","complex"
"","","","","","animation","56","2151655","0.0-56.0","1920x1080","","2199.0999999046326","31.61","img/117/4.5/2/bw/001.png","","","complex"
"","","","","","animation","57","2154682","0.0-57.0","1920x1080","","3025.899999976158","35.98","img/314/4/0.66667/bw/001.png","","","complex"
"","","","","","animation","58","2158959","0.0-58.0","1920x1080","","4276.5","34.79","img/314/4/1/bw/001.png","","","complex"
"","","","","","animation","59","2165666","0.0-59.0","1920x1080","","6705.800000071526","25.79","img/117/5.5/0.66667/bw/001.png","","","complex"
"","","","","","animation","60","2201807","0.0-60.0","1920x1080","","36140.299999952316","30.03","img/238/4/2/bw/001.png","","","complex"
"","","","","","animation","61","2205164","0.0-61.0","1920x1080","","3351","19.18","img/314/5.5/1/bw/001.png","","","complex"
"","","","","","animation","62","2208470","0.0-62.0","1920x1080","","3305.3000000715256","77.91","img/238/2.5/1.5/bw/001.png","","","complex"
"","","","","","animation","63","2211228","0.0-63.0","1920x1080","","2757","68.92","img/314/3.5/1.5/bw/001.png","","","complex"
"","","","","","animation","64","2213403","0.0-64.0","1920x1080","","2174.5","28.70","img/314/5.5/2/bw/001.png","","","complex"
"","","","","","animation","65","2215612","0.0-65.0","1920x1080","","2207.5","60.05","img/238/3.5/0.66667/bw/001.png","","","complex"
"","","","","","animation","66","2219500","0.0-66.0","1920x1080","","3887.600000023842","65.61","img/117/3.5/1/bw/001.png","","","complex"
"","","","","","animation","67","2222076","0.0-67.0","1920x1080","","2575","33.07","img/314/4.5/2/bw/001.png","","","complex"
"","","","","","animation","68","2224660","0.0-68.0","1920x1080","","2583.100000023842","72.88","img/117/2.5/0.66667/bw/001.png","","","complex"
"","","","","","animation","69","2226748","0.0-69.0","1920x1080","","2087.2999999523163","69.44","img/238/2.5/2/bw/001.png","","","complex"
"","","","","","animation","70","2228628","0.0-70.0","1920x1080","","1879","80","img/238/2.5/0.66667/bw/001.png","","","complex"
"","","","","","animation","71","2230908","0.0-71.0","1920x1080","","2278.7000000476837","39.95","img/238/3.5/1/bw/001.png","","","complex"
"","","","","","animation","72","2234123","0.0-72.0","1920x1080","","3215","73.81","img/238/2.5/0.5/bw/001.png","","","complex"
"","","","","","animation","73","2236716","0.0-73.0","1920x1080","","2591.600000023842","45.63","img/314/3.5/0.66667/bw/001.png","","","complex"
"","","","","","animation","74","2238796","0.0-74.0","1920x1080","","2078.7999999523163","19.05","img/238/5.5/0.66667/bw/001.png","","","complex"
"","","","","","animation","75","2240932","0.0-75.0","1920x1080","","2135","27.38","img/238/5.5/0.5/bw/001.png","","","complex"
"","","","","","animation","76","2243054","0.0-76.0","1920x1080","","2121.2000000476837","31.35","img/238/4.5/0.5/bw/001.png","","","complex"
"","","","","","animation","77","2244916","0.0-77.0","1920x1080","","1861","40.08","img/117/4/1/bw/001.png","","","complex"
"","","","","","animation","78","2249332","0.0-78.0","1920x1080","","4415.200000047684","63.62","img/117/2.5/2/bw/001.png","","","complex"
"","","","","","animation","79","2252789","0.0-79.0","1920x1080","","3455.7999999523163","28.44","img/117/5.5/0.5/bw/001.png","","","complex"
"","","","","","animation","80","2310955","0.0-80.0","1920x1080","","58165.700000047684","35.45","img/117/4.5/1/bw/001.png","","","complex"
"","","","","","animation","81","2313395","0.0-81.0","1920x1080","","2439.1999999284744","62.57","img/314/2.5/0.5/bw/001.png","","","complex"
"","","","","","html-button-response","82","2331928","0.0-82.0","1920x1080","","18527.399999976158","","<div class=""intro"">You are about to view a new series of animations.<br><br></div><div class=""intro"">You will evaluate them based on a different descriptor.<br><br></div><div class=""intro"">Move the slider to indicate how <strong style=""text-transform:capitalize"">RELAXING</strong> you find each animation.<br><br></div><div class=""intro"">0 = Least Relaxing<br></div><div class=""intro"">1 = Most Relaxing<br><br></div><div class=""intro"">Remember to use the <strong><em>entire range</em></strong> of the slider to make your ratings.<br></div><div class=""intro"">Please <strong><em>take your time</em></strong> and carefully consider each rating you make.<br><br></div>","0","",""
"","","","","","call-function","83","2331928","0.0-83.0","1920x1080","","","","","","",""
"","","","","","animation","84","2338783","0.0-84.0","1920x1080","","6854.399999976158","72.62","img/314/5.5/2/bw/001.png","","","relaxing"
"","","","","","animation","85","2344767","0.0-85.0","1920x1080","","5982.799999952316","52.78","img/238/4.5/1.5/bw/001.png","","","relaxing"
"","","","","","animation","86","2348473","0.0-86.0","1920x1080","","3704.2000000476837","39.68","img/314/5.5/0.5/bw/001.png","","","relaxing"
"","","","","","animation","87","2351663","0.0-87.0","1920x1080","","3189","28.44","img/314/3.5/0.5/bw/001.png","","","relaxing"
"","","","","","animation","88","2354074","0.0-88.0","1920x1080","","2409.2999999523163","48.28","img/117/4.5/2/bw/001.png","","","relaxing"
"","","","","","animation","89","2357024","0.0-89.0","1920x1080","","2949","59.79","img/117/5.5/1.5/bw/001.png","","","relaxing"
"","","","","","animation","90","2360535","0.0-90.0","1920x1080","","3510.3000000715256","10.05","img/117/2.5/1/bw/001.png","","","relaxing"
"","","","","","animation","91","2365241","0.0-91.0","1920x1080","","4705","25.79","img/117/3.5/1/bw/001.png","","","relaxing"
"","","","","","animation","92","2367575","0.0-92.0","1920x1080","","2332.899999976158","24.47","img/238/3.5/0.66667/bw/001.png","","","relaxing"
"","","","","","animation","93","2370856","0.0-93.0","1920x1080","","3280.2000000476837","30.82","img/238/3.5/0.5/bw/001.png","","","relaxing"
"","","","","","animation","94","2373207","0.0-94.0","1920x1080","","2349.899999976158","47.62","img/117/3.5/1.5/bw/001.png","","","relaxing"
"","","","","","animation","95","2376135","0.0-95.0","1920x1080","","2927.600000023842","44.58","img/314/4.5/1/bw/001.png","","","relaxing"
"","","","","","animation","96","2378135","0.0-96.0","1920x1080","","1999.2000000476837","30.69","img/117/4/0.66667/bw/001.png","","","relaxing"
"","","","","","animation","97","2380127","0.0-97.0","1920x1080","","1990.7999999523163","24.07","img/314/4/0.5/bw/001.png","","","relaxing"
"","","","","","animation","98","2385851","0.0-98.0","1920x1080","","5727.699999928474","44","img/117/2.5/1.5/bw/001.png","","","relaxing"
"","","","","","animation","99","2390570","0.0-99.0","1920x1080","","4718.399999976158","46","img/238/4.5/1/bw/001.png","","","relaxing"
"","","","","","animation","100","2393690","0.0-100.0","1920x1080","","3119.2999999523163","51.06","img/314/2.5/1.5/bw/001.png","","","relaxing"
"","","","","","animation","101","2395938","0.0-101.0","1920x1080","","2246.7000000476837","34.39","img/314/4/0.66667/bw/001.png","","","relaxing"
"","","","","","animation","102","2400402","0.0-102.0","1920x1080","","4463","16","img/314/2.5/0.66667/bw/001.png","","","relaxing"
"","","","","","animation","103","2402826","0.0-103.0","1920x1080","","2423.6999999284744","36.38","img/314/4/1.5/bw/001.png","","","relaxing"
"","","","","","animation","104","2407226","0.0-104.0","1920x1080","","4398.899999976158","71.43","img/238/5.5/0.66667/bw/001.png","","","relaxing"
"","","","","","animation","105","2409735","0.0-105.0","1920x1080","","2507.7999999523163","43.65","img/314/4/1/bw/001.png","","","relaxing"
"","","","","","animation","106","2414378","0.0-106.0","1920x1080","","4642.5","54.37","img/238/3.5/2/bw/001.png","","","relaxing"
"","","","","","animation","107","2418468","0.0-107.0","1920x1080","","4088.7000000476837","20","img/314/2.5/1/bw/001.png","","","relaxing"
"","","","","","animation","108","2422347","0.0-108.0","1920x1080","","3877.5","71.43","img/238/5.5/2/bw/001.png","","","relaxing"
"","","","","","animation","109","2425186","0.0-109.0","1920x1080","","2838.600000023842","31.61","img/314/2.5/0.5/bw/001.png","","","relaxing"
"","","","","","animation","110","2433068","0.0-110.0","1920x1080","","7880.200000047684","57","img/117/5.5/0.66667/bw/001.png","","","relaxing"
"","","","","","animation","111","2435252","0.0-111.0","1920x1080","","2183.899999976158","40.87","img/117/4/1.5/bw/001.png","","","relaxing"
"","","","","","animation","112","2437452","0.0-112.0","1920x1080","","2198.5","25.79","img/117/3.5/0.5/bw/001.png","","","relaxing"
"","","","","","animation","113","2466132","0.0-113.0","1920x1080","","28681.799999952316","21.83","img/238/2.5/0.5/bw/001.png","","","relaxing"
"","","","","","animation","114","2469515","0.0-114.0","1920x1080","","3382","70.24","img/238/5.5/1/bw/001.png","","","relaxing"
"","","","","","animation","115","2472532","0.0-115.0","1920x1080","","3016","29.76","img/117/4.5/0.66667/bw/001.png","","","relaxing"
"","","","","","animation","116","2474351","0.0-116.0","1920x1080","","1818.2999999523163","70.11","img/314/5.5/1.5/bw/001.png","","","relaxing"
"","","","","","animation","117","2477944","0.0-117.0","1920x1080","","3591.399999976158","51.72","img/314/2.5/2/bw/001.png","","","relaxing"
"","","","","","animation","118","2480176","0.0-118.0","1920x1080","","2231","28.70","img/314/3.5/0.66667/bw/001.png","","","relaxing"
"","","","","","animation","119","2481944","0.0-119.0","1920x1080","","1767.2999999523163","25.00","img/117/2.5/0.66667/bw/001.png","","","relaxing"
"","","","","","animation","120","2483592","0.0-120.0","1920x1080","","1647.1000000238419","22.88","img/238/4/0.66667/bw/001.png","","","relaxing"
"","","","","","animation","121","2485704","0.0-121.0","1920x1080","","2110.9000000953674","21.96","img/117/4/0.5/bw/001.png","","","relaxing"
"","","","","","animation","122","2487231","0.0-122.0","1920x1080","","1526.8000000715256","29.10","img/238/4/0.5/bw/001.png","","","relaxing"
"","","","","","animation","123","2489632","0.0-123.0","1920x1080","","2399.899999976158","51.85","img/117/4/2/bw/001.png","","","relaxing"
"","","","","","animation","124","2491767","0.0-124.0","1920x1080","","2134.3000000715256","71.03","img/117/5.5/1/bw/001.png","","","relaxing"
"","","","","","animation","125","2494040","0.0-125.0","1920x1080","","2271.5","77.12","img/314/5.5/0.66667/bw/001.png","","","relaxing"
"","","","","","animation","126","2496232","0.0-126.0","1920x1080","","2190.8000000715256","55.95","img/117/2.5/2/bw/001.png","","","relaxing"
"","","","","","animation","127","2498576","0.0-127.0","1920x1080","","2343.399999976158","79.76","img/117/5.5/2/bw/001.png","","","relaxing"
"","","","","","animation","128","2500298","0.0-128.0","1920x1080","","1721.6999999284744","42.20","img/238/4/1.5/bw/001.png","","","relaxing"
"","","","","","animation","129","2502608","0.0-129.0","1920x1080","","2308.7000000476837","32.41","img/117/4.5/1/bw/001.png","","","relaxing"
"","","","","","animation","130","2504102","0.0-130.0","1920x1080","","1489.5","48.54","img/314/4.5/0.66667/bw/001.png","","","relaxing"
"","","","","","animation","131","2506419","0.0-131.0","1920x1080","","2316.100000023842","40.08","img/238/2.5/2/bw/001.png","","","relaxing"
"","","","","","animation","132","2508502","0.0-132.0","1920x1080","","2081.899999976158","24.21","img/238/2.5/0.66667/bw/001.png","","","relaxing"
"","","","","","animation","133","2510563","0.0-133.0","1920x1080","","2060.600000023842","70.37","img/238/5.5/1.5/bw/001.png","","","relaxing"
"","","","","","animation","134","2513119","0.0-134.0","1920x1080","","2554.2000000476837","30.03","img/238/4/1/bw/001.png","","","relaxing"
"","","","","","animation","135","2515254","0.0-135.0","1920x1080","","2134","21.96","img/238/3.5/1/bw/001.png","","","relaxing"
"","","","","","animation","136","2517155","0.0-136.0","1920x1080","","1900.3000000715256","20.77","img/238/4.5/0.66667/bw/001.png","","","relaxing"
"","","","","","animation","137","2523052","0.0-137.0","1920x1080","","5895.600000023842","35.32","img/117/3.5/2/bw/001.png","","","relaxing"
"","","","","","animation","138","2636793","0.0-138.0","1920x1080","","113742.70000004768","65.48","img/314/5.5/1/bw/001.png","","","relaxing"
"","","","","","animation","139","2648616","0.0-139.0","1920x1080","","11822","41.93","img/117/3.5/0.66667/bw/001.png","","","relaxing"
"","","","","","animation","140","2652233","0.0-140.0","1920x1080","","3616.100000023842","47.22","img/238/3.5/1.5/bw/001.png","","","relaxing"
"","","","","","animation","141","2654117","0.0-141.0","1920x1080","","1882.7999999523163","66.01","img/238/5.5/0.5/bw/001.png","","","relaxing"
"","","","","","animation","142","2670016","0.0-142.0","1920x1080","","15898.200000047684","64.55","img/117/5.5/0.5/bw/001.png","","","relaxing"
"","","","","","animation","143","2701828","0.0-143.0","1920x1080","","31807.5","33.73","img/238/2.5/1/bw/001.png","","","relaxing"
"","","","","","animation","144","2721788","0.0-144.0","1920x1080","","19958.5","34.52","img/314/3.5/1/bw/001.png","","","relaxing"
"","","","","","animation","145","2725012","0.0-145.0","1920x1080","","3223.5","31.61","img/238/2.5/1.5/bw/001.png","","","relaxing"
"","","","","","animation","146","2727252","0.0-146.0","1920x1080","","2239.399999976158","21.83","img/117/2.5/0.5/bw/001.png","","","relaxing"
"","","","","","animation","147","2731124","0.0-147.0","1920x1080","","3870.7999999523163","39.68","img/117/4/1/bw/001.png","","","relaxing"
"","","","","","animation","148","2736101","0.0-148.0","1920x1080","","4976.300000071526","58","img/314/3.5/2/bw/001.png","","","relaxing"
"","","","","","animation","149","2738502","0.0-149.0","1920x1080","","2400","43.52","img/314/4.5/0.5/bw/001.png","","","relaxing"
"","","","","","animation","150","2740420","0.0-150.0","1920x1080","","1916.8000000715256","40.61","img/314/3.5/1.5/bw/001.png","","","relaxing"
"","","","","","animation","151","2742772","0.0-151.0","1920x1080","","2351.2000000476837","38.62","img/238/4/2/bw/001.png","","","relaxing"
"","","","","","animation","152","2752011","0.0-152.0","1920x1080","","9239.200000047684","50.26","img/117/4.5/1.5/bw/001.png","","","relaxing"
"","","","","","animation","153","2762486","0.0-153.0","1920x1080","","10473.700000047684","57.41","img/314/4.5/2/bw/001.png","","","relaxing"
"","","","","","animation","154","2797643","0.0-154.0","1920x1080","","35156.200000047684","58.20","img/314/4/2/bw/001.png","","","relaxing"
"","","","","","animation","155","2801459","0.0-155.0","1920x1080","","3814.7999999523163","59.52","img/314/4.5/1.5/bw/001.png","","","relaxing"
"","","","","","animation","156","2815290","0.0-156.0","1920x1080","","13831.200000047684","47.35","img/238/4.5/0.5/bw/001.png","","","relaxing"
"","","","","","animation","157","2818399","0.0-157.0","1920x1080","","3107.7000000476837","43.52","img/238/4.5/2/bw/001.png","","","relaxing"
"","","","","","animation","158","2820316","0.0-158.0","1920x1080","","1916.6000000238419","49.60","img/117/4.5/0.5/bw/001.png","","","relaxing"
"","","","","","html-button-response","159","2849751","0.0-159.0","1920x1080","","29433","","<div class=""intro"">You are about to view a new series of animations.<br><br></div><div class=""intro"">You will evaluate them based on a different descriptor.<br><br></div><div class=""intro"">Move the slider to indicate how <strong style=""text-transform:capitalize"">INTERESTING</strong> you find each animation.<br><br></div><div class=""intro"">0 = Least Interesting<br></div><div class=""intro"">1 = Most Interesting<br><br></div><div class=""intro"">Remember to use the <strong><em>entire range</em></strong> of the slider to make your ratings.<br></div><div class=""intro"">Please <strong><em>take your time</em></strong> and carefully consider each rating you make.<br><br></div>","0","",""
"","","","","","call-function","160","2849755","0.0-160.0","1920x1080","","","","","","",""
"","","","","","animation","161","2858154","0.0-161.0","1920x1080","","8398.199999928474","47.62","img/314/2.5/0.66667/bw/001.png","","","interesting"
"","","","","","animation","162","2860442","0.0-162.0","1920x1080","","2287","39.15","img/117/3.5/0.66667/bw/001.png","","","interesting"
"","","","","","animation","163","2862242","0.0-163.0","1920x1080","","1798.8999999761581","51.59","img/314/4.5/2/bw/001.png","","","interesting"
"","","","","","animation","164","2864236","0.0-164.0","1920x1080","","1990.7000000476837","61.11","img/117/4/0.5/bw/001.png","","","interesting"
"","","","","","animation","165","2866524","0.0-165.0","1920x1080","","2287.5","64.42","img/314/4/2/bw/001.png","","","interesting"
"","","","","","animation","166","2870285","0.0-166.0","1920x1080","","3759.7999999523163","19.84","img/314/5.5/2/bw/001.png","","","interesting"
"","","","","","animation","167","2873052","0.0-167.0","1920x1080","","2765.7000000476837","90.34","img/117/2.5/2/bw/001.png","","","interesting"
"","","","","","animation","168","2875492","0.0-168.0","1920x1080","","2439.2999999523163","44.84","img/314/4/0.5/bw/001.png","","","interesting"
"","","","","","animation","169","2878988","0.0-169.0","1920x1080","","3494.600000023842","57.80","img/117/4.5/0.66667/bw/001.png","","","interesting"
"","","","","","animation","170","2883302","0.0-170.0","1920x1080","","4313.5","40.21","img/314/4/1/bw/001.png","","","interesting"
"","","","","","animation","171","2887535","0.0-171.0","1920x1080","","4232.299999952316","44.44","img/117/5.5/1/bw/001.png","","","interesting"
"","","","","","animation","172","2889585","0.0-172.0","1920x1080","","2048.5","34.92","img/238/4.5/1.5/bw/001.png","","","interesting"
"","","","","","animation","173","2891892","0.0-173.0","1920x1080","","2306.2999999523163","57.14","img/238/2.5/0.66667/bw/001.png","","","interesting"
"","","","","","animation","174","2894436","0.0-174.0","1920x1080","","2542.5","88.36","img/238/2.5/1.5/bw/001.png","","","interesting"
"","","","","","animation","175","2896188","0.0-175.0","1920x1080","","1751.1000000238419","36.24","img/117/4/0.66667/bw/001.png","","","interesting"
"","","","","","animation","176","2898316","0.0-176.0","1920x1080","","2127.1999999284744","57.41","img/117/2.5/0.66667/bw/001.png","","","interesting"
"","","","","","animation","177","2900588","0.0-177.0","1920x1080","","2270.899999976158","43.65","img/238/3.5/0.66667/bw/001.png","","","interesting"
"","","","","","animation","178","2902801","0.0-178.0","1920x1080","","2212.600000023842","33.86","img/238/5.5/1/bw/001.png","","","interesting"
"","","","","","animation","179","2905460","0.0-179.0","1920x1080","","2658.100000023842","22.09","img/238/4/0.5/bw/001.png","","","interesting"
"","","","","","animation","180","2907852","0.0-180.0","1920x1080","","2390.600000023842","52.25","img/314/3.5/2/bw/001.png","","","interesting"
"","","","","","animation","181","2909892","0.0-181.0","1920x1080","","2039.6000000238419","40.74","img/238/4/2/bw/001.png","","","interesting"
"","","","","","animation","182","2911892","0.0-182.0","1920x1080","","1998.8999999761581","55.56","img/117/3.5/1.5/bw/001.png","","","interesting"
"","","","","","animation","183","2914236","0.0-183.0","1920x1080","","2342.7000000476837","69.31","img/238/2.5/0.5/bw/001.png","","","interesting"
"","","","","","animation","184","2973299","0.0-184.0","1920x1080","","59064.60000002384","61.64","img/117/4/1.5/bw/001.png","","","interesting"
"","","","","","animation","185","2976198","0.0-185.0","1920x1080","","2897.8000000715256","47.35","img/117/4.5/2/bw/001.png","","","interesting"
"","","","","","animation","186","2978273","0.0-186.0","1920x1080","","2074.5","59.52","img/117/2.5/0.5/bw/001.png","","","interesting"
"","","","","","animation","187","2997675","0.0-187.0","1920x1080","","19399","35.58","img/117/5.5/2/bw/001.png","","","interesting"
"","","","","","animation","188","3000387","0.0-188.0","1920x1080","","2710.7000000476837","49.87","img/238/4.5/1/bw/001.png","","","interesting"
"","","","","","animation","189","3009016","0.0-189.0","1920x1080","","8628.5","59","img/238/5.5/0.5/bw/001.png","","","interesting"
"","","","","","animation","190","3011555","0.0-190.0","1920x1080","","2537.8000000715256","45.37","img/314/5.5/0.66667/bw/001.png","","","interesting"
"","","","","","animation","191","3016955","0.0-191.0","1920x1080","","5398.899999976158","53.97","img/238/3.5/1/bw/001.png","","","interesting"
"","","","","","animation","192","3019166","0.0-192.0","1920x1080","","2210.399999976158","37.96","img/238/5.5/1.5/bw/001.png","","","interesting"
"","","","","","animation","193","3021600","0.0-193.0","1920x1080","","2432.7000000476837","53.70","img/117/5.5/0.5/bw/001.png","","","interesting"
"","","","","","animation","194","3024123","0.0-194.0","1920x1080","","2522.100000023842","63.23","img/314/2.5/2/bw/001.png","","","interesting"
"","","","","","animation","195","3026100","0.0-195.0","1920x1080","","1975.7999999523163","42.06","img/238/5.5/2/bw/001.png","","","interesting"
"","","","","","animation","196","3028233","0.0-196.0","1920x1080","","2132.2999999523163","55.03","img/314/3.5/0.66667/bw/001.png","","","interesting"
"","","","","","animation","197","3032619","0.0-197.0","1920x1080","","4384.700000047684","57.67","img/238/3.5/2/bw/001.png","","","interesting"
"","","","","","animation","198","3034767","0.0-198.0","1920x1080","","2147.6999999284744","61.11","img/238/2.5/1/bw/001.png","","","interesting"
"","","","","","animation","199","3036619","0.0-199.0","1920x1080","","1850.3999999761581","44.84","img/314/3.5/1.5/bw/001.png","","","interesting"
"","","","","","animation","200","3038419","0.0-200.0","1920x1080","","1799","62.83","img/117/2.5/1/bw/001.png","","","interesting"
"","","","","","animation","201","3042400","0.0-201.0","1920x1080","","3980.1999999284744","40","img/314/5.5/0.5/bw/001.png","","","interesting"
"","","","","","animation","202","3066986","0.0-202.0","1920x1080","","24586","48.81","img/238/4.5/0.5/bw/001.png","","","interesting"
"","","","","","animation","203","3069083","0.0-203.0","1920x1080","","2095.5","39.55","img/238/4.5/2/bw/001.png","","","interesting"
"","","","","","animation","204","3070883","0.0-204.0","1920x1080","","1798.7999999523163","46.43","img/238/4/1.5/bw/001.png","","","interesting"
"","","","","","animation","205","3073523","0.0-205.0","1920x1080","","2639.3000000715256","38.36","img/238/4/1/bw/001.png","","","interesting"
"","","","","","animation","206","3076602","0.0-206.0","1920x1080","","3078.3000000715256","49.74","img/314/4/1.5/bw/001.png","","","interesting"
"","","","","","animation","207","3078539","0.0-207.0","1920x1080","","1935","54.89","img/314/4.5/0.66667/bw/001.png","","","interesting"
"","","","","","animation","208","3080749","0.0-208.0","1920x1080","","2210","47.49","img/238/4/0.66667/bw/001.png","","","interesting"
"","","","","","animation","209","3090100","0.0-209.0","1920x1080","","9349.300000071526","54.23","img/314/4.5/1/bw/001.png","","","interesting"
"","","","","","animation","210","3094634","0.0-210.0","1920x1080","","4533.200000047684","49.74","img/117/4/2/bw/001.png","","","interesting"
"","","","","","animation","211","3096434","0.0-211.0","1920x1080","","1799.2000000476837","63.62","img/314/3.5/0.5/bw/001.png","","","interesting"
"","","","","","animation","212","3097755","0.0-212.0","1920x1080","","1319.5","65.21","img/314/4/0.66667/bw/001.png","","","interesting"
"","","","","","animation","213","3099650","0.0-213.0","1920x1080","","1894.7000000476837","50.00","img/314/5.5/1/bw/001.png","","","interesting"
"","","","","","animation","214","3101216","0.0-214.0","1920x1080","","1565.1000000238419","57.94","img/314/4.5/0.5/bw/001.png","","","interesting"
"","","","","","animation","215","3104169","0.0-215.0","1920x1080","","2953.600000023842","43.52","img/238/3.5/1.5/bw/001.png","","","interesting"
"","","","","","animation","216","3107521","0.0-216.0","1920x1080","","3350.2999999523163","44.05","img/117/4.5/1.5/bw/001.png","","","interesting"
"","","","","","animation","217","3109185","0.0-217.0","1920x1080","","1662.7999999523163","52.65","img/314/5.5/1.5/bw/001.png","","","interesting"
"","","","","","animation","218","3110864","0.0-218.0","1920x1080","","1678.8000000715256","39.42","img/117/4.5/1/bw/001.png","","","interesting"
"","","","","","animation","219","3112747","0.0-219.0","1920x1080","","1881.9000000953674","62.17","img/117/3.5/0.5/bw/001.png","","","interesting"
"","","","","","animation","220","3114680","0.0-220.0","1920x1080","","1932","66","img/314/4.5/1.5/bw/001.png","","","interesting"
"","","","","","animation","221","3117031","0.0-221.0","1920x1080","","2350","61.51","img/117/3.5/2/bw/001.png","","","interesting"
"","","","","","animation","222","3119489","0.0-222.0","1920x1080","","2456.600000023842","73.02","img/117/3.5/1/bw/001.png","","","interesting"
"","","","","","animation","223","3122397","0.0-223.0","1920x1080","","2907.7000000476837","67.72","img/117/4.5/0.5/bw/001.png","","","interesting"
"","","","","","animation","224","3124337","0.0-224.0","1920x1080","","1938.3999999761581","48.94","img/238/3.5/0.5/bw/001.png","","","interesting"
"","","","","","animation","225","3126147","0.0-225.0","1920x1080","","1809.6000000238419","42.33","img/117/5.5/1.5/bw/001.png","","","interesting"
"","","","","","animation","226","3127800","0.0-226.0","1920x1080","","1651.5","41.14","img/238/4.5/0.66667/bw/001.png","","","interesting"
"","","","","","animation","227","3129953","0.0-227.0","1920x1080","","2151.600000023842","56.75","img/238/5.5/0.66667/bw/001.png","","","interesting"
"","","","","","animation","228","3133048","0.0-228.0","1920x1080","","3094.7000000476837","39.29","img/117/4/1/bw/001.png","","","interesting"
"","","","","","animation","229","3135848","0.0-229.0","1920x1080","","2799","89.95","img/238/2.5/2/bw/001.png","","","interesting"
"","","","","","animation","230","3138457","0.0-230.0","1920x1080","","2607.5999999046326","29.23","img/117/5.5/0.66667/bw/001.png","","","interesting"
"","","","","","animation","231","3140231","0.0-231.0","1920x1080","","1772.6000000238419","71.96","img/314/2.5/1/bw/001.png","","","interesting"
"","","","","","animation","232","3143057","0.0-232.0","1920x1080","","2824.9000000953674","82.67","img/314/2.5/0.5/bw/001.png","","","interesting"
"","","","","","animation","233","3145369","0.0-233.0","1920x1080","","2310.600000023842","81.08","img/314/2.5/1.5/bw/001.png","","","interesting"
"","","","","","animation","234","3147881","0.0-234.0","1920x1080","","2510.9000000953674","76.46","img/314/3.5/1/bw/001.png","","","interesting"
"","","","","","animation","235","3150347","0.0-235.0","1920x1080","","2465.899999976158","87.83","img/117/2.5/1.5/bw/001.png","","","interesting"
"","","","","","html-button-response","236","3305821","0.0-236.0","1920x1080","","155464.19999992847","","<div class=""intro"">You are about to view a new series of animations.<br><br></div><div class=""intro"">You will evaluate them based on a different descriptor.<br><br></div><div class=""intro"">Move the slider to indicate how <strong style=""text-transform:capitalize"">NATURAL</strong> you find each animation.<br><br></div><div class=""intro"">0 = Least Natural<br></div><div class=""intro"">1 = Most Natural<br><br></div><div class=""intro"">Remember to use the <strong><em>entire range</em></strong> of the slider to make your ratings.<br></div><div class=""intro"">Please <strong><em>take your time</em></strong> and carefully consider each rating you make.<br><br></div>","0","",""
"","","","","","call-function","237","3305825","0.0-237.0","1920x1080","","","","","","",""
"","","","","","animation","238","3313497","0.0-238.0","1920x1080","","7670.700000047684","37.43","img/238/4.5/2/bw/001.png","","","natural"
"","","","","","animation","239","3450865","0.0-239.0","1920x1080","","137372.60000002384","36.51","img/117/2.5/2/bw/001.png","","","natural"
"","","","","","animation","240","3453766","0.0-240.0","1920x1080","","2899.7000000476837","24.07","img/314/3.5/0.5/bw/001.png","","","natural"
"","","","","","animation","241","3457231","0.0-241.0","1920x1080","","3463.600000023842","85.98","img/238/5.5/2/bw/001.png","","","natural"
"","","","","","animation","242","3460731","0.0-242.0","1920x1080","","3498.7000000476837","42.33","img/314/4/0.66667/bw/001.png","","","natural"
"","","","","","animation","243","3463339","0.0-243.0","1920x1080","","2607.3000000715256","37.70","img/238/3.5/2/bw/001.png","","","natural"
"","","","","","animation","244","3556662","0.0-244.0","1920x1080","","93323.39999997616","73.68","img/117/5.5/1.5/bw/001.png","","","natural"
"","","","","","animation","245","3563265","0.0-245.0","1920x1080","","6601.699999928474","38.49","img/238/3.5/1.5/bw/001.png","","","natural"
"","","","","","animation","246","3565769","0.0-246.0","1920x1080","","2502","51.85","img/238/4.5/1/bw/001.png","","","natural"
"","","","","","animation","247","3567934","0.0-247.0","1920x1080","","2164","45.63","img/117/4.5/2/bw/001.png","","","natural"
"","","","","","animation","248","3582513","0.0-248.0","1920x1080","","14576.699999928474","63.10","img/314/2.5/1/bw/001.png","","","natural"
"","","","","","animation","249","3584761","0.0-249.0","1920x1080","","2247.100000023842","55.69","img/117/2.5/1/bw/001.png","","","natural"
"","","","","","animation","250","3593360","0.0-250.0","1920x1080","","8598.200000047684","60.19","img/117/4.5/0.66667/bw/001.png","","","natural"
"","","","","","animation","251","3599584","0.0-251.0","1920x1080","","6222","59","img/238/4.5/0.5/bw/001.png","","","natural"
"","","","","","animation","252","3604648","0.0-252.0","1920x1080","","5061","31.75","img/314/2.5/1.5/bw/001.png","","","natural"
"","","","","","animation","253","3608128","0.0-253.0","1920x1080","","3478.2000000476837","41.40","img/117/5.5/0.5/bw/001.png","","","natural"
"","","","","","animation","254","3610511","0.0-254.0","1920x1080","","2382.399999976158","29","img/117/3.5/1.5/bw/001.png","","","natural"
"","","","","","animation","255","3612416","0.0-255.0","1920x1080","","1904.6999999284744","58.07","img/314/2.5/2/bw/001.png","","","natural"
"","","","","","animation","256","3614311","0.0-256.0","1920x1080","","1893.7999999523163","35.71","img/117/4/0.5/bw/001.png","","","natural"
"","","","","","animation","257","3615716","0.0-257.0","1920x1080","","1403.3999999761581","36.24","img/117/4/1/bw/001.png","","","natural"
"","","","","","animation","258","3617528","0.0-258.0","1920x1080","","1810.6000000238419","35.45","img/238/3.5/0.66667/bw/001.png","","","natural"
"","","","","","animation","259","3619495","0.0-259.0","1920x1080","","1965.8999999761581","29.76","img/117/2.5/0.5/bw/001.png","","","natural"
"","","","","","animation","260","3622078","0.0-260.0","1920x1080","","2582.399999976158","46.03","img/238/4.5/0.66667/bw/001.png","","","natural"
"","","","","","animation","261","3624664","0.0-261.0","1920x1080","","2584.6999999284744","65.08","img/314/5.5/1.5/bw/001.png","","","natural"
"","","","","","animation","262","3627848","0.0-262.0","1920x1080","","3182.899999976158","65.08","img/238/5.5/0.66667/bw/001.png","","","natural"
"","","","","","animation","263","3630752","0.0-263.0","1920x1080","","2903","47.88","img/314/4.5/2/bw/001.png","","","natural"
"","","","","","animation","264","3633078","0.0-264.0","1920x1080","","2323.3000000715256","39.55","img/314/4.5/0.66667/bw/001.png","","","natural"
"","","","","","animation","265","3636464","0.0-265.0","1920x1080","","3385.1999999284744","37.83","img/314/4.5/0.5/bw/001.png","","","natural"
"","","","","","animation","266","3671761","0.0-266.0","1920x1080","","35296.39999997616","39.15","img/117/3.5/0.5/bw/001.png","","","natural"
"","","","","","animation","267","3673894","0.0-267.0","1920x1080","","2132.2000000476837","61.90","img/238/5.5/1.5/bw/001.png","","","natural"
"","","","","","animation","268","3676112","0.0-268.0","1920x1080","","2216.5","62.04","img/117/5.5/0.66667/bw/001.png","","","natural"
"","","","","","animation","269","3677844","0.0-269.0","1920x1080","","1730.7000000476837","41.01","img/314/3.5/1.5/bw/001.png","","","natural"
"","","","","","animation","270","3679928","0.0-270.0","1920x1080","","2082.600000023842","33","img/238/2.5/0.66667/bw/001.png","","","natural"
"","","","","","animation","271","3682011","0.0-271.0","1920x1080","","2082.5","38.10","img/238/4/0.5/bw/001.png","","","natural"
"","","","","","animation","272","3683594","0.0-272.0","1920x1080","","1582.2000000476837","42.72","img/238/4/1.5/bw/001.png","","","natural"
"","","","","","animation","273","3685496","0.0-273.0","1920x1080","","1900.6999999284744","62.57","img/314/5.5/0.5/bw/001.png","","","natural"
"","","","","","animation","274","3773128","0.0-274.0","1920x1080","","87631","41.01","img/314/3.5/2/bw/001.png","","","natural"
"","","","","","animation","275","3776577","0.0-275.0","1920x1080","","3447.399999976158","47.88","img/117/4/0.66667/bw/001.png","","","natural"
"","","","","","animation","276","3780962","0.0-276.0","1920x1080","","4383.5","38.10","img/314/2.5/0.66667/bw/001.png","","","natural"
"","","","","","animation","277","3784312","0.0-277.0","1920x1080","","3347.1999999284744","47.22","img/117/4/2/bw/001.png","","","natural"
"","","","","","animation","278","3833345","0.0-278.0","1920x1080","","49030","41.14","img/117/3.5/1/bw/001.png","","","natural"
"","","","","","animation","279","3835696","0.0-279.0","1920x1080","","2349.1999999284744","41.40","img/238/4.5/1.5/bw/001.png","","","natural"
"","","","","","animation","280","3851696","0.0-280.0","1920x1080","","15998.899999976158","36.51","img/238/2.5/2/bw/001.png","","","natural"
"","","","","","animation","281","3853866","0.0-281.0","1920x1080","","2169.0999999046326","43.25","img/314/3.5/1/bw/001.png","","","natural"
"","","","","","animation","282","3855387","0.0-282.0","1920x1080","","1518.7999999523163","33.73","img/314/4/1/bw/001.png","","","natural"
"","","","","","animation","283","3856929","0.0-283.0","1920x1080","","1541.2999999523163","42.99","img/238/4/0.66667/bw/001.png","","","natural"
"","","","","","animation","284","3858362","0.0-284.0","1920x1080","","1432.1999999284744","32.67","img/117/3.5/0.66667/bw/001.png","","","natural"
"","","","","","animation","285","3860034","0.0-285.0","1920x1080","","1671","38.36","img/117/4.5/1/bw/001.png","","","natural"
"","","","","","animation","286","3862046","0.0-286.0","1920x1080","","2010.8000000715256","67.99","img/117/5.5/1/bw/001.png","","","natural"
"","","","","","animation","287","3864412","0.0-287.0","1920x1080","","2365.3000000715256","40.08","img/314/4/2/bw/001.png","","","natural"
"","","","","","animation","288","3866162","0.0-288.0","1920x1080","","1748.5","46.03","img/238/4/2/bw/001.png","","","natural"
"","","","","","animation","289","3868646","0.0-289.0","1920x1080","","2482.399999976158","68.65","img/314/5.5/2/bw/001.png","","","natural"
"","","","","","animation","290","3871612","0.0-290.0","1920x1080","","2965.600000023842","39.81","img/314/4.5/1.5/bw/001.png","","","natural"
"","","","","","animation","291","3873462","0.0-291.0","1920x1080","","1849.0999999046326","57.94","img/314/5.5/1/bw/001.png","","","natural"
"","","","","","animation","292","3875312","0.0-292.0","1920x1080","","1848.6000000238419","38.10","img/314/4.5/1/bw/001.png","","","natural"
"","","","","","animation","293","3876812","0.0-293.0","1920x1080","","1499.1999999284744","41.40","img/314/4/1.5/bw/001.png","","","natural"
"","","","","","animation","294","3879786","0.0-294.0","1920x1080","","2972.600000023842","36.51","img/117/4/1.5/bw/001.png","","","natural"
"","","","","","animation","295","3883245","0.0-295.0","1920x1080","","3457.399999976158","45.63","img/238/5.5/0.5/bw/001.png","","","natural"
"","","","","","animation","296","3885216","0.0-296.0","1920x1080","","1972.1999999284744","27.38","img/117/2.5/0.66667/bw/001.png","","","natural"
"","","","","","animation","297","3888277","0.0-297.0","1920x1080","","3059.600000023842","40","img/238/2.5/1.5/bw/001.png","","","natural"
"","","","","","animation","298","3890127","0.0-298.0","1920x1080","","1849.6999999284744","37.96","img/238/4/1/bw/001.png","","","natural"
"","","","","","animation","299","3892048","0.0-299.0","1920x1080","","1919.1000000238419","52.38","img/314/5.5/0.66667/bw/001.png","","","natural"
"","","","","","animation","300","3894527","0.0-300.0","1920x1080","","2478.5","18.92","img/238/3.5/0.5/bw/001.png","","","natural"
"","","","","","animation","301","3896193","0.0-301.0","1920x1080","","1663.8999999761581","32.01","img/238/3.5/1/bw/001.png","","","natural"
"","","","","","animation","302","3898513","0.0-302.0","1920x1080","","2319.7999999523163","61.90","img/117/5.5/2/bw/001.png","","","natural"
"","","","","","animation","303","3900463","0.0-303.0","1920x1080","","1948.6999999284744","42.33","img/238/2.5/1/bw/001.png","","","natural"
"","","","","","animation","304","3902993","0.0-304.0","1920x1080","","2528","32.94","img/238/2.5/0.5/bw/001.png","","","natural"
"","","","","","animation","305","3906232","0.0-305.0","1920x1080","","3237.899999976158","54.10","img/117/3.5/2/bw/001.png","","","natural"
"","","","","","animation","306","3908343","0.0-306.0","1920x1080","","2110.600000023842","41.14","img/314/2.5/0.5/bw/001.png","","","natural"
"","","","","","animation","307","3910584","0.0-307.0","1920x1080","","2239.399999976158","38.10","img/117/4.5/0.5/bw/001.png","","","natural"
"","","","","","animation","308","3912333","0.0-308.0","1920x1080","","1747.7999999523163","48.02","img/117/4.5/1.5/bw/001.png","","","natural"
"","","","","","animation","309","3914298","0.0-309.0","1920x1080","","1963.7999999523163","63.76","img/117/2.5/1.5/bw/001.png","","","natural"
"","","","","","animation","310","3918822","0.0-310.0","1920x1080","","4523.199999928474","92","img/238/5.5/1/bw/001.png","","","natural"
"","","","","","animation","311","3921381","0.0-311.0","1920x1080","","2557.600000023842","38.10","img/314/3.5/0.66667/bw/001.png","","","natural"
"","","","","","animation","312","3923360","0.0-312.0","1920x1080","","1977.8000000715256","59.66","img/314/4/0.5/bw/001.png","","","natural"
"","","","","","html-button-response","313","4038157","0.0-313.0","1920x1080","","114784","","<div class=""intro"">You are about to view a new series of animations.<br><br></div><div class=""intro"">You will evaluate them based on a different descriptor.<br><br></div><div class=""intro"">Move the slider to indicate how <strong style=""text-transform:capitalize"">APPEALING</strong> you find each animation.<br><br></div><div class=""intro"">0 = Least Appealing<br></div><div class=""intro"">1 = Most Appealing<br><br></div><div class=""intro"">Remember to use the <strong><em>entire range</em></strong> of the slider to make your ratings.<br></div><div class=""intro"">Please <strong><em>take your time</em></strong> and carefully consider each rating you make.<br><br></div>","0","",""
"","","","","","call-function","314","4038161","0.0-314.0","1920x1080","","","","","","",""
"","","","","","animation","315","4040779","0.0-315.0","1920x1080","","2573.399999976158","42.20","img/314/3.5/1.5/bw/001.png","","","appealing"
"","","","","","animation","316","4043786","0.0-316.0","1920x1080","","3006.0999999046326","49.74","img/238/3.5/2/bw/001.png","","","appealing"
"","","","","","animation","317","4045866","0.0-317.0","1920x1080","","2078.7999999523163","36.11","img/314/4/1.5/bw/001.png","","","appealing"
"","","","","","animation","318","4048706","0.0-318.0","1920x1080","","2838.100000023842","36.38","img/117/3.5/1/bw/001.png","","","appealing"
"","","","","","animation","319","4050658","0.0-319.0","1920x1080","","1950.6000000238419","44.97","img/314/3.5/2/bw/001.png","","","appealing"
"","","","","","animation","320","4052825","0.0-320.0","1920x1080","","2164.7999999523163","34.39","img/117/4/1.5/bw/001.png","","","appealing"
"","","","","","animation","321","4055904","0.0-321.0","1920x1080","","3077.100000023842","26.32","img/117/4.5/0.5/bw/001.png","","","appealing"
"","","","","","animation","322","4067809","0.0-322.0","1920x1080","","11915.5","31.35","img/238/4.5/0.5/bw/001.png","","","appealing"
"","","","","","animation","323","4106079","0.0-323.0","1920x1080","","38264.39999997616","36.38","img/314/4.5/2/bw/001.png","","","appealing"
"","","","","","animation","324","4108575","0.0-324.0","1920x1080","","2494.2999999523163","21.96","img/117/3.5/0.66667/bw/001.png","","","appealing"
"","","","","","animation","325","4111361","0.0-325.0","1920x1080","","2785","59.66","img/238/5.5/1.5/bw/001.png","","","appealing"
"","","","","","animation","326","4113791","0.0-326.0","1920x1080","","2428.5","75.40","img/238/2.5/2/bw/001.png","","","appealing"
"","","","","","animation","327","4115608","0.0-327.0","1920x1080","","1816","31.75","img/314/4.5/0.66667/bw/001.png","","","appealing"
"","","","","","animation","328","4118911","0.0-328.0","1920x1080","","3301.399999976158","34.52","img/238/3.5/0.5/bw/001.png","","","appealing"
"","","","","","animation","329","4121034","0.0-329.0","1920x1080","","2121.7999999523163","39.95","img/238/3.5/1.5/bw/001.png","","","appealing"
"","","","","","animation","330","4122831","0.0-330.0","1920x1080","","1795.9000000953674","33.99","img/117/3.5/0.5/bw/001.png","","","appealing"
"","","","","","animation","331","4124625","0.0-331.0","1920x1080","","1792.8000000715256","52.38","img/117/5.5/0.66667/bw/001.png","","","appealing"
"","","","","","animation","332","4127227","0.0-332.0","1920x1080","","2600.7000000476837","64.81","img/117/5.5/1.5/bw/001.png","","","appealing"
"","","","","","animation","333","4129608","0.0-333.0","1920x1080","","2378.5999999046326","43.12","img/238/4.5/1.5/bw/001.png","","","appealing"
"","","","","","animation","334","4133925","0.0-334.0","1920x1080","","4315.600000023842","33.33","img/314/2.5/0.66667/bw/001.png","","","appealing"
"","","","","","animation","335","4136012","0.0-335.0","1920x1080","","2085.7999999523163","32.94","img/238/4.5/1/bw/001.png","","","appealing"
"","","","","","animation","336","4138733","0.0-336.0","1920x1080","","2720.4000000953674","60.85","img/314/5.5/1/bw/001.png","","","appealing"
"","","","","","animation","337","4141825","0.0-337.0","1920x1080","","3090.2999999523163","54","img/314/2.5/1/bw/001.png","","","appealing"
"","","","","","animation","338","4144225","0.0-338.0","1920x1080","","2399.2000000476837","69.31","img/238/5.5/2/bw/001.png","","","appealing"
"","","","","","animation","339","4146159","0.0-339.0","1920x1080","","1932.2000000476837","39.95","img/117/4/0.66667/bw/001.png","","","appealing"
"","","","","","animation","340","4148276","0.0-340.0","1920x1080","","2115.7000000476837","59.39","img/314/2.5/2/bw/001.png","","","appealing"
"","","","","","animation","341","4151847","0.0-341.0","1920x1080","","3570.7999999523163","29","img/117/2.5/0.5/bw/001.png","","","appealing"
"","","","","","animation","342","4155447","0.0-342.0","1920x1080","","3597.899999976158","40.34","img/117/2.5/2/bw/001.png","","","appealing"
"","","","","","animation","343","4203053","0.0-343.0","1920x1080","","47602.299999952316","32.67","img/314/3.5/0.66667/bw/001.png","","","appealing"
"","","","","","animation","344","4205666","0.0-344.0","1920x1080","","2611.600000023842","34.66","img/238/3.5/1/bw/001.png","","","appealing"
"","","","","","animation","345","4208210","0.0-345.0","1920x1080","","2542.899999976158","62.96","img/238/5.5/0.5/bw/001.png","","","appealing"
"","","","","","animation","346","4211145","0.0-346.0","1920x1080","","2933.600000023842","34.79","img/117/4.5/0.66667/bw/001.png","","","appealing"
"","","","","","animation","347","4214265","0.0-347.0","1920x1080","","3117.3000000715256","29.10","img/238/4.5/2/bw/001.png","","","appealing"
"","","","","","animation","348","4216417","0.0-348.0","1920x1080","","2150.100000023842","61.24","img/238/5.5/0.66667/bw/001.png","","","appealing"
"","","","","","animation","349","4218944","0.0-349.0","1920x1080","","2525.3000000715256","32.54","img/238/4/0.66667/bw/001.png","","","appealing"
"","","","","","animation","350","4221077","0.0-350.0","1920x1080","","2132.2999999523163","31.88","img/238/4/1.5/bw/001.png","","","appealing"
"","","","","","animation","351","4226627","0.0-351.0","1920x1080","","5548.299999952316","29.76","img/117/4.5/2/bw/001.png","","","appealing"
"","","","","","animation","352","4228749","0.0-352.0","1920x1080","","2120.899999976158","26.46","img/314/4.5/1.5/bw/001.png","","","appealing"
"","","","","","animation","353","4231027","0.0-353.0","1920x1080","","2276","25.93","img/238/2.5/0.66667/bw/001.png","","","appealing"
"","","","","","animation","354","4232950","0.0-354.0","1920x1080","","1922.1000000238419","68.52","img/238/5.5/1/bw/001.png","","","appealing"
"","","","","","animation","355","4234916","0.0-355.0","1920x1080","","1964.6999999284744","39.68","img/238/4.5/0.66667/bw/001.png","","","appealing"
"","","","","","animation","356","4236745","0.0-356.0","1920x1080","","1826.8999999761581","34.92","img/117/4/1/bw/001.png","","","appealing"
"","","","","","animation","357","4238428","0.0-357.0","1920x1080","","1681.3999999761581","32.80","img/314/4/0.66667/bw/001.png","","","appealing"
"","","","","","animation","358","4240833","0.0-358.0","1920x1080","","2404.7999999523163","35.71","img/314/4.5/0.5/bw/001.png","","","appealing"
"","","","","","animation","359","4243577","0.0-359.0","1920x1080","","2742.7999999523163","48.81","img/117/2.5/1/bw/001.png","","","appealing"
"","","","","","animation","360","4245697","0.0-360.0","1920x1080","","2118.7000000476837","63.89","img/117/5.5/1/bw/001.png","","","appealing"
"","","","","","animation","361","4247469","0.0-361.0","1920x1080","","1771.3999999761581","46.03","img/117/4/0.5/bw/001.png","","","appealing"
"","","","","","animation","362","4252196","0.0-362.0","1920x1080","","4725.099999904633","38.76","img/238/2.5/0.5/bw/001.png","","","appealing"
"","","","","","animation","363","4254203","0.0-363.0","1920x1080","","2005.5","61.90","img/117/2.5/1.5/bw/001.png","","","appealing"
"","","","","","animation","364","4255993","0.0-364.0","1920x1080","","1787.8000000715256","35.58","img/117/3.5/1.5/bw/001.png","","","appealing"
"","","","","","animation","365","4258726","0.0-365.0","1920x1080","","2731.399999976158","38.89","img/117/2.5/0.66667/bw/001.png","","","appealing"
"","","","","","animation","366","4261249","0.0-366.0","1920x1080","","2522","63.76","img/314/5.5/0.66667/bw/001.png","","","appealing"
"","","","","","animation","367","4263451","0.0-367.0","1920x1080","","2200.2999999523163","72.62","img/117/5.5/2/bw/001.png","","","appealing"
"","","","","","animation","368","4265281","0.0-368.0","1920x1080","","1828.6000000238419","46.16","img/238/2.5/1/bw/001.png","","","appealing"
"","","","","","animation","369","4267496","0.0-369.0","1920x1080","","2214.600000023842","35.45","img/314/4/0.5/bw/001.png","","","appealing"
"","","","","","animation","370","4487552","0.0-370.0","1920x1080","","220044.39999997616","29.76","img/314/3.5/0.5/bw/001.png","","","appealing"
"","","","","","animation","371","4490885","0.0-371.0","1920x1080","","3331.600000023842","81.75","img/314/2.5/1.5/bw/001.png","","","appealing"
"","","","","","animation","372","4492435","0.0-372.0","1920x1080","","1548.3000000715256","35.58","img/314/2.5/0.5/bw/001.png","","","appealing"
"","","","","","animation","373","4494464","0.0-373.0","1920x1080","","2027.7000000476837","30.42","img/117/4/2/bw/001.png","","","appealing"
"","","","","","animation","374","4496102","0.0-374.0","1920x1080","","1591.3999999761581","39.15","img/238/4/2/bw/001.png","","","appealing"
"","","","","","animation","375","4498076","0.0-375.0","1920x1080","","1972.2999999523163","62.96","img/314/5.5/0.5/bw/001.png","","","appealing"
"","","","","","animation","376","4499820","0.0-376.0","1920x1080","","1742.6999999284744","38.10","img/117/3.5/2/bw/001.png","","","appealing"
"","","","","","animation","377","4501355","0.0-377.0","1920x1080","","1534.1000000238419","35.05","img/117/4.5/1.5/bw/001.png","","","appealing"
"","","","","","animation","378","4503213","0.0-378.0","1920x1080","","1856.7999999523163","39.81","img/314/4.5/1/bw/001.png","","","appealing"
"","","","","","animation","379","4504735","0.0-379.0","1920x1080","","1520.8999999761581","41.53","img/238/3.5/0.66667/bw/001.png","","","appealing"
"","","","","","animation","380","4506172","0.0-380.0","1920x1080","","1436","32.28","img/238/4/1/bw/001.png","","","appealing"
"","","","","","animation","381","4507707","0.0-381.0","1920x1080","","1533.5","29.89","img/314/4/1/bw/001.png","","","appealing"
"","","","","","animation","382","4509736","0.0-382.0","1920x1080","","2027.5","34.39","img/314/4/2/bw/001.png","","","appealing"
"","","","","","animation","383","4512111","0.0-383.0","1920x1080","","2374","64.02","img/314/5.5/2/bw/001.png","","","appealing"
"","","","","","animation","384","4514165","0.0-384.0","1920x1080","","2053.2000000476837","64.02","img/314/5.5/1.5/bw/001.png","","","appealing"
"","","","","","animation","385","4517291","0.0-385.0","1920x1080","","3124.6999999284744","60.71","img/117/5.5/0.5/bw/001.png","","","appealing"
"","","","","","animation","386","4518918","0.0-386.0","1920x1080","","1625.8999999761581","37.17","img/238/4/0.5/bw/001.png","","","appealing"
"","","","","","animation","387","4520652","0.0-387.0","1920x1080","","1732.6999999284744","35.05","img/117/4.5/1/bw/001.png","","","appealing"
"","","","","","animation","388","4522955","0.0-388.0","1920x1080","","2301.399999976158","67.06","img/238/2.5/1.5/bw/001.png","","","appealing"
"","","","","","animation","389","4525253","0.0-389.0","1920x1080","","2296.4000000953674","38.36","img/314/3.5/1/bw/001.png","","","appealing"
"","","","","","html-button-response","390","4547964","0.0-390.0","1920x1080","","22710.100000023842","","<strong>Study Debriefing</strong><br><p class=""debrief""><strong>Background:</strong> The patterns you rated are called <em>fractals</em>. The term fractal describes a class of irregular curves or shapes for which any suitably chosen part is similar in shape to a given larger or smaller part when magnified or reduced to the same size. Fractal properties are found throughout the natural and manmade world. The series of animations you saw today displayed animated fractal patterns of a varying complexity.</p><p class=""debrief""><strong>Purpose of this study:</strong> We hope to better understand how the perception of static fractals differs from the perception of animated fractals, and how the speed of the animated patterns influences people&apos;s perception of them. Fractals allow us to study the perception of aesthetic properties (e.g. the perceived level of beauty in an image) without using recognizable content, which makes them an excellent tool for studying abstract aesthetic judgement.</p><p class=""debrief""><strong>Your part:</strong> Your participation has helped us to further understand how humans perceive these patterns across different levels of speed and complexity. This research with allow us to better understand how the visual system and brain process our ever-changing visual environments.<p class=""debrief""><strong>Feedback and Further information:</strong> If you have additional questions about this study, please feel free to ask the researcher, Nathan Gonzales-Hess at nhess @ uoregon.edu. If you have any questions concerning your rights as a research participant, please contact Research Compliance Services, 5237 University of Oregon, Eugene, OR 97403, 541-346-2510, or email researchCompliance @ uoregon.edu. You can also email the Human Subjects Coordinator for psychology and linguistics research at hscoord @ uoregon.edu. ","0","",""
"","","","","","html-button-response","391","4550371","0.0-391.0","1920x1080","","2402.5","","Thank you for participating in this study. <br>Please click below to finish the experiment and submit your responses.<br><br>","0","",""
"true","","","","","fullscreen","392","4551376","0.0-392.0","1920x1080","14:44 11/10/2022","","","","","",""
