"success","timeout","failed_images","failed_audio","failed_video","trial_type","trial_index","time_elapsed","internal_node_id","resolution","timeStamp","rt","response","stimulus","button_pressed","value","descriptor"
"true","false","[]","[]","[]","preload","0","17258","0.0-0.0","1920x1080","","","","","","",""
"true","false","[]","[]","[]","preload","1","35378","0.0-1.0","1920x1080","","","","","","",""
"true","false","[]","[]","[]","preload","2","53482","0.0-2.0","1920x1080","","","","","","",""
"true","","","","","fullscreen","3","87546","0.0-3.0","1920x1080","12:57 11/10/2022","","","","","",""
"","","","","","survey-html-form","4","98770","0.0-4.0","1920x1080","","11221.799999952316","{""age"":""19"",""gender"":""female""}","","","",""
"","","","","","html-button-response","5","138546","0.0-5.0","1920x1080","","39775.10000002384","","<div class=""complex"">You are going to see a series of animations.<br><br></div><div class=""complex"">Move the slider to indicate how <strong style=""text-transform:capitalize"">COMPLEX</strong> you find each animation.<br><br></div><div class=""complex"">0 = Least Complex<br></div><div class=""complex"">1 = Most Complex<br><br></div><div class=""complex"">Remember to use the <strong><em>entire range</em></strong> of the slider to make your ratings.<br></div><div class=""complex"">Please <strong><em>take your time</em></strong> and carefully consider each rating you make.<br><br></div><div class=""complex"">The study has five sections and will take about 45 minutes to complete.<br><br></div>","0","",""
"","","","","","call-function","6","138547","0.0-6.0","1920x1080","","","","","","",""
"","","","","","animation","7","148138","0.0-7.0","1920x1080","","9588.399999976158","82.54","img/314/3.5/1/bw/001.png","","","complex"
"","","","","","animation","8","154514","0.0-8.0","1920x1080","","6374.699999928474","39.55","img/314/2.5/1.5/bw/001.png","","","complex"
"","","","","","animation","9","161170","0.0-9.0","1920x1080","","6654.5","60.85","img/314/5.5/0.66667/bw/001.png","","","complex"
"","","","","","animation","10","164866","0.0-10.0","1920x1080","","3695.899999976158","85.32","img/238/2.5/1/bw/001.png","","","complex"
"","","","","","animation","11","169362","0.0-11.0","1920x1080","","4494.699999928474","69.97","img/238/2.5/2/bw/001.png","","","complex"
"","","","","","animation","12","177562","0.0-12.0","1920x1080","","8199","53.70","img/238/4/1.5/bw/001.png","","","complex"
"","","","","","animation","13","181930","0.0-13.0","1920x1080","","4366.699999928474","12.43","img/314/5.5/1/bw/001.png","","","complex"
"","","","","","animation","14","188730","0.0-14.0","1920x1080","","6799.899999976158","88","img/117/3.5/2/bw/001.png","","","complex"
"","","","","","animation","15","193114","0.0-15.0","1920x1080","","4383.200000047684","91.14","img/314/4/0.5/bw/001.png","","","complex"
"","","","","","animation","16","197882","0.0-16.0","1920x1080","","4767","93.25","img/117/4/0.5/bw/001.png","","","complex"
"","","","","","animation","17","203186","0.0-17.0","1920x1080","","5302.5","39.95","img/117/5.5/1.5/bw/001.png","","","complex"
"","","","","","animation","18","208331","0.0-18.0","1920x1080","","5143.700000047684","56.35","img/238/3.5/1/bw/001.png","","","complex"
"","","","","","animation","19","212986","0.0-19.0","1920x1080","","4654.799999952316","43.12","img/117/4.5/2/bw/001.png","","","complex"
"","","","","","animation","20","219370","0.0-20.0","1920x1080","","6382.899999976158","89.42","img/117/3.5/0.66667/bw/001.png","","","complex"
"","","","","","animation","21","224578","0.0-21.0","1920x1080","","5207.600000023842","30.82","img/238/4.5/1/bw/001.png","","","complex"
"","","","","","animation","22","229778","0.0-22.0","1920x1080","","5199.299999952316","51.59","img/117/4.5/1.5/bw/001.png","","","complex"
"","","","","","animation","23","233586","0.0-23.0","1920x1080","","3806.8000000715256","44.44","img/314/4.5/1/bw/001.png","","","complex"
"","","","","","animation","24","241146","0.0-24.0","1920x1080","","7559.399999976158","34","img/238/4.5/2/bw/001.png","","","complex"
"","","","","","animation","25","246714","0.0-25.0","1920x1080","","5567.199999928474","66.27","img/238/4/0.5/bw/001.png","","","complex"
"","","","","","animation","26","253122","0.0-26.0","1920x1080","","6406.700000047684","68","img/238/2.5/1.5/bw/001.png","","","complex"
"","","","","","animation","27","256452","0.0-27.0","1920x1080","","3328.8000000715256","87.96","img/117/2.5/0.66667/bw/001.png","","","complex"
"","","","","","animation","28","262938","0.0-28.0","1920x1080","","6485.700000047684","24.87","img/238/4/0.66667/bw/001.png","","","complex"
"","","","","","animation","29","268881","0.0-29.0","1920x1080","","5943.600000023842","31.22","img/238/4.5/0.66667/bw/001.png","","","complex"
"","","","","","animation","30","272793","0.0-30.0","1920x1080","","3911.100000023842","4.10","img/117/5.5/2/bw/001.png","","","complex"
"","","","","","animation","31","278377","0.0-31.0","1920x1080","","5582.899999976158","62.70","img/238/3.5/0.5/bw/001.png","","","complex"
"","","","","","animation","32","281841","0.0-32.0","1920x1080","","3463.2999999523163","46.96","img/117/3.5/1/bw/001.png","","","complex"
"","","","","","animation","33","288433","0.0-33.0","1920x1080","","6591.700000047684","35.98","img/117/5.5/0.66667/bw/001.png","","","complex"
"","","","","","animation","34","294177","0.0-34.0","1920x1080","","5742.899999976158","56.48","img/238/4/1/bw/001.png","","","complex"
"","","","","","animation","35","297250","0.0-35.0","1920x1080","","3072.3000000715256","44.58","img/117/4/2/bw/001.png","","","complex"
"","","","","","animation","36","301681","0.0-36.0","1920x1080","","4430","71","img/314/3.5/1.5/bw/001.png","","","complex"
"","","","","","animation","37","304697","0.0-37.0","1920x1080","","3015.2000000476837","80.56","img/314/3.5/0.5/bw/001.png","","","complex"
"","","","","","animation","38","308448","0.0-38.0","1920x1080","","3750.5","3.57","img/238/5.5/0.66667/bw/001.png","","","complex"
"","","","","","animation","39","313072","0.0-39.0","1920x1080","","4623.5","3.31","img/238/5.5/1.5/bw/001.png","","","complex"
"","","","","","animation","40","317297","0.0-40.0","1920x1080","","4223.199999928474","42.86","img/238/4/2/bw/001.png","","","complex"
"","","","","","animation","41","319657","0.0-41.0","1920x1080","","2359.5","93.65","img/117/2.5/0.5/bw/001.png","","","complex"
"","","","","","animation","42","322561","0.0-42.0","1920x1080","","2903.399999976158","52.51","img/314/4/1.5/bw/001.png","","","complex"
"","","","","","animation","43","326397","0.0-43.0","1920x1080","","3839.0999999046326","95","img/117/3.5/0.5/bw/001.png","","","complex"
"","","","","","animation","44","330021","0.0-44.0","1920x1080","","3623.5","91.27","img/314/3.5/0.66667/bw/001.png","","","complex"
"","","","","","animation","45","335093","0.0-45.0","1920x1080","","5070.899999976158","16.80","img/314/5.5/2/bw/001.png","","","complex"
"","","","","","animation","46","338764","0.0-46.0","1920x1080","","3670.600000023842","45.24","img/314/4/2/bw/001.png","","","complex"
"","","","","","animation","47","341205","0.0-47.0","1920x1080","","2439.7999999523163","40.21","img/314/4.5/1.5/bw/001.png","","","complex"
"","","","","","animation","48","349173","0.0-48.0","1920x1080","","7967.200000047684","72.88","img/314/4.5/0.66667/bw/001.png","","","complex"
"","","","","","animation","49","353197","0.0-49.0","1920x1080","","4023.600000023842","87.17","img/238/3.5/0.66667/bw/001.png","","","complex"
"","","","","","animation","50","358581","0.0-50.0","1920x1080","","5382.400000095367","59.66","img/238/4.5/0.5/bw/001.png","","","complex"
"","","","","","animation","51","363373","0.0-51.0","1920x1080","","4791.399999976158","30.29","img/117/4.5/1/bw/001.png","","","complex"
"","","","","","animation","52","369013","0.0-52.0","1920x1080","","5639.399999976158","11.38","img/314/5.5/1.5/bw/001.png","","","complex"
"","","","","","animation","53","376301","0.0-53.0","1920x1080","","7286.399999976158","40.74","img/117/2.5/2/bw/001.png","","","complex"
"","","","","","animation","54","379381","0.0-54.0","1920x1080","","3079.399999976158","62.83","img/314/4/1/bw/001.png","","","complex"
"","","","","","animation","55","382333","0.0-55.0","1920x1080","","2950.7999999523163","94","img/314/2.5/0.5/bw/001.png","","","complex"
"","","","","","animation","56","387257","0.0-56.0","1920x1080","","4919.599999904633","30.29","img/117/5.5/0.5/bw/001.png","","","complex"
"","","","","","animation","57","391545","0.0-57.0","1920x1080","","4287.299999952316","78.44","img/238/3.5/2/bw/001.png","","","complex"
"","","","","","animation","58","394729","0.0-58.0","1920x1080","","3183","69.05","img/117/4/1/bw/001.png","","","complex"
"","","","","","animation","59","397618","0.0-59.0","1920x1080","","2887.5","59","img/117/3.5/1.5/bw/001.png","","","complex"
"","","","","","animation","60","402473","0.0-60.0","1920x1080","","4855","39.29","img/314/5.5/0.5/bw/001.png","","","complex"
"","","","","","animation","61","408569","0.0-61.0","1920x1080","","6094.799999952316","52.25","img/117/2.5/1.5/bw/001.png","","","complex"
"","","","","","animation","62","414193","0.0-62.0","1920x1080","","5623.600000023842","39.81","img/117/5.5/1/bw/001.png","","","complex"
"","","","","","animation","63","418034","0.0-63.0","1920x1080","","3839.5","59.79","img/117/4.5/0.66667/bw/001.png","","","complex"
"","","","","","animation","64","421121","0.0-64.0","1920x1080","","3086.5","12.17","img/238/5.5/2/bw/001.png","","","complex"
"","","","","","animation","65","424385","0.0-65.0","1920x1080","","3263","69.31","img/117/4.5/0.5/bw/001.png","","","complex"
"","","","","","animation","66","427489","0.0-66.0","1920x1080","","3103.6999999284744","81.61","img/117/4/0.66667/bw/001.png","","","complex"
"","","","","","animation","67","432289","0.0-67.0","1920x1080","","4799.100000023842","14","img/238/4.5/1.5/bw/001.png","","","complex"
"","","","","","animation","68","437121","0.0-68.0","1920x1080","","4830.899999976158","36.24","img/117/4/1.5/bw/001.png","","","complex"
"","","","","","animation","69","442252","0.0-69.0","1920x1080","","5129.899999976158","20.90","img/238/5.5/1/bw/001.png","","","complex"
"","","","","","animation","70","446488","0.0-70.0","1920x1080","","4236.300000071526","82.94","img/314/3.5/2/bw/001.png","","","complex"
"","","","","","animation","71","449712","0.0-71.0","1920x1080","","3223.600000023842","89.29","img/238/2.5/0.5/bw/001.png","","","complex"
"","","","","","animation","72","452472","0.0-72.0","1920x1080","","2758.7999999523163","88.10","img/314/2.5/1/bw/001.png","","","complex"
"","","","","","animation","73","455584","0.0-73.0","1920x1080","","3110.5","22.62","img/238/5.5/0.5/bw/001.png","","","complex"
"","","","","","animation","74","457968","0.0-74.0","1920x1080","","2383.2000000476837","89.81","img/238/2.5/0.66667/bw/001.png","","","complex"
"","","","","","animation","75","461504","0.0-75.0","1920x1080","","3535.100000023842","22.88","img/314/4.5/0.5/bw/001.png","","","complex"
"","","","","","animation","76","464072","0.0-76.0","1920x1080","","2567.2000000476837","94","img/314/2.5/0.66667/bw/001.png","","","complex"
"","","","","","animation","77","467234","0.0-77.0","1920x1080","","3161.1999999284744","32.41","img/314/4.5/2/bw/001.png","","","complex"
"","","","","","animation","78","470056","0.0-78.0","1920x1080","","2820.899999976158","89.42","img/314/2.5/2/bw/001.png","","","complex"
"","","","","","animation","79","472466","0.0-79.0","1920x1080","","2408.7000000476837","69.58","img/314/4/0.66667/bw/001.png","","","complex"
"","","","","","animation","80","474920","0.0-80.0","1920x1080","","2452.7000000476837","88.49","img/238/3.5/1.5/bw/001.png","","","complex"
"","","","","","animation","81","477288","0.0-81.0","1920x1080","","2367.5999999046326","74.07","img/117/2.5/1/bw/001.png","","","complex"
"","","","","","html-button-response","82","495761","0.0-82.0","1920x1080","","18471.399999976158","","<div class=""intro"">You are about to view a new series of animations.<br><br></div><div class=""intro"">You will evaluate them based on a different descriptor.<br><br></div><div class=""intro"">Move the slider to indicate how <strong style=""text-transform:capitalize"">RELAXING</strong> you find each animation.<br><br></div><div class=""intro"">0 = Least Relaxing<br></div><div class=""intro"">1 = Most Relaxing<br><br></div><div class=""intro"">Remember to use the <strong><em>entire range</em></strong> of the slider to make your ratings.<br></div><div class=""intro"">Please <strong><em>take your time</em></strong> and carefully consider each rating you make.<br><br></div>","0","",""
"","","","","","call-function","83","495762","0.0-83.0","1920x1080","","","","","","",""
"","","","","","animation","84","500240","0.0-84.0","1920x1080","","4477.5","15.87","img/117/4/0.5/bw/001.png","","","relaxing"
"","","","","","animation","85","503120","0.0-85.0","1920x1080","","2878.7000000476837","9.66","img/117/3.5/0.66667/bw/001.png","","","relaxing"
"","","","","","animation","86","505726","0.0-86.0","1920x1080","","2607.7999999523163","9.52","img/314/3.5/0.66667/bw/001.png","","","relaxing"
"","","","","","animation","87","508341","0.0-87.0","1920x1080","","2615.100000023842","19","img/314/4/0.66667/bw/001.png","","","relaxing"
"","","","","","animation","88","511437","0.0-88.0","1920x1080","","3095.1999999284744","41.80","img/314/4.5/0.66667/bw/001.png","","","relaxing"
"","","","","","animation","89","514270","0.0-89.0","1920x1080","","2832.1999999284744","67.33","img/238/2.5/1.5/bw/001.png","","","relaxing"
"","","","","","animation","90","518494","0.0-90.0","1920x1080","","4221.600000023842","8","img/238/4.5/0.5/bw/001.png","","","relaxing"
"","","","","","animation","91","522310","0.0-91.0","1920x1080","","3815","59","img/314/5.5/0.5/bw/001.png","","","relaxing"
"","","","","","animation","92","526264","0.0-92.0","1920x1080","","3953.5","43.52","img/117/2.5/0.5/bw/001.png","","","relaxing"
"","","","","","animation","93","530589","0.0-93.0","1920x1080","","4324.600000023842","73.54","img/117/3.5/1/bw/001.png","","","relaxing"
"","","","","","animation","94","533285","0.0-94.0","1920x1080","","2695.100000023842","89.68","img/117/5.5/0.66667/bw/001.png","","","relaxing"
"","","","","","animation","95","536653","0.0-95.0","1920x1080","","3367.1999999284744","10.58","img/117/3.5/0.5/bw/001.png","","","relaxing"
"","","","","","animation","96","540621","0.0-96.0","1920x1080","","3967","29","img/238/3.5/2/bw/001.png","","","relaxing"
"","","","","","animation","97","547333","0.0-97.0","1920x1080","","6710.5","37.43","img/117/3.5/1.5/bw/001.png","","","relaxing"
"","","","","","animation","98","550141","0.0-98.0","1920x1080","","2807.5","61.24","img/117/2.5/2/bw/001.png","","","relaxing"
"","","","","","animation","99","553597","0.0-99.0","1920x1080","","3454.5","82.14","img/314/4/2/bw/001.png","","","relaxing"
"","","","","","animation","100","558141","0.0-100.0","1920x1080","","4543.799999952316","25.40","img/238/4/1/bw/001.png","","","relaxing"
"","","","","","animation","101","561133","0.0-101.0","1920x1080","","2990.899999976158","90.34","img/314/2.5/2/bw/001.png","","","relaxing"
"","","","","","animation","102","567648","0.0-102.0","1920x1080","","6513.800000071526","73.28","img/117/3.5/2/bw/001.png","","","relaxing"
"","","","","","animation","103","571480","0.0-103.0","1920x1080","","3831.399999976158","13.10","img/314/4/0.5/bw/001.png","","","relaxing"
"","","","","","animation","104","575447","0.0-104.0","1920x1080","","3966.3000000715256","57.01","img/238/3.5/1.5/bw/001.png","","","relaxing"
"","","","","","animation","105","578566","0.0-105.0","1920x1080","","3117.6999999284744","37.04","img/117/4/1.5/bw/001.png","","","relaxing"
"","","","","","animation","106","583325","0.0-106.0","1920x1080","","4758.100000023842","60.45","img/117/4/1/bw/001.png","","","relaxing"
"","","","","","animation","107","587047","0.0-107.0","1920x1080","","3721.7000000476837","42.20","img/314/3.5/1.5/bw/001.png","","","relaxing"
"","","","","","animation","108","589846","0.0-108.0","1920x1080","","2798","8.33","img/314/3.5/0.5/bw/001.png","","","relaxing"
"","","","","","animation","109","592398","0.0-109.0","1920x1080","","2550.5","22.35","img/314/3.5/1/bw/001.png","","","relaxing"
"","","","","","animation","110","595997","0.0-110.0","1920x1080","","3597.8000000715256","78.97","img/314/5.5/0.66667/bw/001.png","","","relaxing"
"","","","","","animation","111","599717","0.0-111.0","1920x1080","","3719.2999999523163","17.46","img/117/4/2/bw/001.png","","","relaxing"
"","","","","","animation","112","603164","0.0-112.0","1920x1080","","3446.5","9.13","img/238/3.5/1/bw/001.png","","","relaxing"
"","","","","","animation","113","605925","0.0-113.0","1920x1080","","2759.7999999523163","15.21","img/314/4.5/0.5/bw/001.png","","","relaxing"
"","","","","","animation","114","608637","0.0-114.0","1920x1080","","2710.7999999523163","2.65","img/117/4.5/0.5/bw/001.png","","","relaxing"
"","","","","","animation","115","613396","0.0-115.0","1920x1080","","4758.600000023842","54.89","img/238/4/2/bw/001.png","","","relaxing"
"","","","","","animation","116","615437","0.0-116.0","1920x1080","","2039.8999999761581","5.16","img/238/4/0.5/bw/001.png","","","relaxing"
"","","","","","animation","117","620164","0.0-117.0","1920x1080","","4726.700000047684","76.06","img/238/5.5/0.5/bw/001.png","","","relaxing"
"","","","","","animation","118","623047","0.0-118.0","1920x1080","","2881.7000000476837","68.78","img/238/2.5/0.5/bw/001.png","","","relaxing"
"","","","","","animation","119","625383","0.0-119.0","1920x1080","","2332.5","75.79","img/314/2.5/0.66667/bw/001.png","","","relaxing"
"","","","","","animation","120","629128","0.0-120.0","1920x1080","","3743.7999999523163","81.61","img/238/2.5/0.66667/bw/001.png","","","relaxing"
"","","","","","animation","121","632551","0.0-121.0","1920x1080","","3422.5","44.31","img/238/4.5/1/bw/001.png","","","relaxing"
"","","","","","animation","122","635856","0.0-122.0","1920x1080","","3303.600000023842","19.31","img/238/3.5/0.66667/bw/001.png","","","relaxing"
"","","","","","animation","123","638519","0.0-123.0","1920x1080","","2662.7000000476837","14.42","img/314/4/1.5/bw/001.png","","","relaxing"
"","","","","","animation","124","642719","0.0-124.0","1920x1080","","4199.200000047684","31","img/238/4/1.5/bw/001.png","","","relaxing"
"","","","","","animation","125","645536","0.0-125.0","1920x1080","","2815.0999999046326","75.40","img/238/2.5/2/bw/001.png","","","relaxing"
"","","","","","animation","126","649040","0.0-126.0","1920x1080","","3503.2999999523163","86.24","img/314/5.5/2/bw/001.png","","","relaxing"
"","","","","","animation","127","653119","0.0-127.0","1920x1080","","4078.7000000476837","71.43","img/314/4.5/1.5/bw/001.png","","","relaxing"
"","","","","","animation","128","656592","0.0-128.0","1920x1080","","3471.5","50.79","img/117/5.5/1/bw/001.png","","","relaxing"
"","","","","","animation","129","660728","0.0-129.0","1920x1080","","4135.199999928474","66.27","img/314/5.5/1/bw/001.png","","","relaxing"
"","","","","","animation","130","665344","0.0-130.0","1920x1080","","4615","90.08","img/238/5.5/1.5/bw/001.png","","","relaxing"
"","","","","","animation","131","668144","0.0-131.0","1920x1080","","2799.100000023842","62.04","img/117/2.5/1/bw/001.png","","","relaxing"
"","","","","","animation","132","671300","0.0-132.0","1920x1080","","3155.100000023842","27.25","img/117/5.5/0.5/bw/001.png","","","relaxing"
"","","","","","animation","133","674520","0.0-133.0","1920x1080","","3219","40.08","img/238/4.5/2/bw/001.png","","","relaxing"
"","","","","","animation","134","678249","0.0-134.0","1920x1080","","3728.9000000953674","41.53","img/117/4.5/0.66667/bw/001.png","","","relaxing"
"","","","","","animation","135","681135","0.0-135.0","1920x1080","","2885","61.64","img/117/2.5/0.66667/bw/001.png","","","relaxing"
"","","","","","animation","136","683499","0.0-136.0","1920x1080","","2363.2000000476837","3.57","img/238/3.5/0.5/bw/001.png","","","relaxing"
"","","","","","animation","137","687281","0.0-137.0","1920x1080","","3783.3000000715256","31.35","img/117/4.5/2/bw/001.png","","","relaxing"
"","","","","","animation","138","692314","0.0-138.0","1920x1080","","5031.700000047684","39.15","img/314/4/1/bw/001.png","","","relaxing"
"","","","","","animation","139","695247","0.0-139.0","1920x1080","","2932.100000023842","84.92","img/117/5.5/1.5/bw/001.png","","","relaxing"
"","","","","","animation","140","702648","0.0-140.0","1920x1080","","7399.899999976158","28","img/238/4.5/0.66667/bw/001.png","","","relaxing"
"","","","","","animation","141","704813","0.0-141.0","1920x1080","","2164.5","88.49","img/314/2.5/1/bw/001.png","","","relaxing"
"","","","","","animation","142","709357","0.0-142.0","1920x1080","","4543.399999976158","10.32","img/314/4.5/1/bw/001.png","","","relaxing"
"","","","","","animation","143","712714","0.0-143.0","1920x1080","","3356","64.55","img/117/4.5/1.5/bw/001.png","","","relaxing"
"","","","","","animation","144","715614","0.0-144.0","1920x1080","","2898.7999999523163","78.31","img/238/5.5/1/bw/001.png","","","relaxing"
"","","","","","animation","145","718701","0.0-145.0","1920x1080","","3086.4000000953674","26.06","img/117/4/0.66667/bw/001.png","","","relaxing"
"","","","","","animation","146","722713","0.0-146.0","1920x1080","","4011.7000000476837","58.20","img/314/5.5/1.5/bw/001.png","","","relaxing"
"","","","","","animation","147","727605","0.0-147.0","1920x1080","","4890.899999976158","70.63","img/238/5.5/0.66667/bw/001.png","","","relaxing"
"","","","","","animation","148","731298","0.0-148.0","1920x1080","","3691.3000000715256","51","img/314/4.5/2/bw/001.png","","","relaxing"
"","","","","","animation","149","733749","0.0-149.0","1920x1080","","2449.899999976158","78","img/314/2.5/1.5/bw/001.png","","","relaxing"
"","","","","","animation","150","738301","0.0-150.0","1920x1080","","4551.199999928474","34.26","img/238/4.5/1.5/bw/001.png","","","relaxing"
"","","","","","animation","151","740232","0.0-151.0","1920x1080","","1929.5","84.13","img/117/2.5/1.5/bw/001.png","","","relaxing"
"","","","","","animation","152","743333","0.0-152.0","1920x1080","","3100.600000023842","39","img/238/5.5/2/bw/001.png","","","relaxing"
"","","","","","animation","153","746636","0.0-153.0","1920x1080","","3303.600000023842","75.79","img/238/2.5/1/bw/001.png","","","relaxing"
"","","","","","animation","154","749636","0.0-154.0","1920x1080","","2999","86.51","img/314/3.5/2/bw/001.png","","","relaxing"
"","","","","","animation","155","752396","0.0-155.0","1920x1080","","2759","54.10","img/117/4.5/1/bw/001.png","","","relaxing"
"","","","","","animation","156","754700","0.0-156.0","1920x1080","","2303.1999999284744","11.64","img/238/4/0.66667/bw/001.png","","","relaxing"
"","","","","","animation","157","758012","0.0-157.0","1920x1080","","3311.899999976158","0","img/314/2.5/0.5/bw/001.png","","","relaxing"
"","","","","","animation","158","762172","0.0-158.0","1920x1080","","4157.899999976158","62.17","img/117/5.5/2/bw/001.png","","","relaxing"
"","","","","","html-button-response","159","782150","0.0-159.0","1920x1080","","19976.899999976158","","<div class=""intro"">You are about to view a new series of animations.<br><br></div><div class=""intro"">You will evaluate them based on a different descriptor.<br><br></div><div class=""intro"">Move the slider to indicate how <strong style=""text-transform:capitalize"">APPEALING</strong> you find each animation.<br><br></div><div class=""intro"">0 = Least Appealing<br></div><div class=""intro"">1 = Most Appealing<br><br></div><div class=""intro"">Remember to use the <strong><em>entire range</em></strong> of the slider to make your ratings.<br></div><div class=""intro"">Please <strong><em>take your time</em></strong> and carefully consider each rating you make.<br><br></div>","0","",""
"","","","","","call-function","160","782151","0.0-160.0","1920x1080","","","","","","",""
"","","","","","animation","161","785283","0.0-161.0","1920x1080","","3131.8000000715256","78.17","img/314/4/1.5/bw/001.png","","","appealing"
"","","","","","animation","162","787984","0.0-162.0","1920x1080","","2699.2999999523163","89.29","img/117/4/2/bw/001.png","","","appealing"
"","","","","","animation","163","790852","0.0-163.0","1920x1080","","2866.5","97","img/117/2.5/2/bw/001.png","","","appealing"
"","","","","","animation","164","793395","0.0-164.0","1920x1080","","2542.8000000715256","80.82","img/314/3.5/1.5/bw/001.png","","","appealing"
"","","","","","animation","165","798036","0.0-165.0","1920x1080","","4639.399999976158","86.24","img/238/4/1.5/bw/001.png","","","appealing"
"","","","","","animation","166","801413","0.0-166.0","1920x1080","","3375.899999976158","71.16","img/117/3.5/0.5/bw/001.png","","","appealing"
"","","","","","animation","167","807855","0.0-167.0","1920x1080","","6438.100000023842","62.04","img/238/3.5/1.5/bw/001.png","","","appealing"
"","","","","","animation","168","811487","0.0-168.0","1920x1080","","3630.7999999523163","41.67","img/314/4/0.5/bw/001.png","","","appealing"
"","","","","","animation","169","816448","0.0-169.0","1920x1080","","4960.299999952316","25.13","img/117/4.5/1.5/bw/001.png","","","appealing"
"","","","","","animation","170","820633","0.0-170.0","1920x1080","","4183.5","73.15","img/117/4/1/bw/001.png","","","appealing"
"","","","","","animation","171","824499","0.0-171.0","1920x1080","","3865.100000023842","64.81","img/117/5.5/0.66667/bw/001.png","","","appealing"
"","","","","","animation","172","828887","0.0-172.0","1920x1080","","4387.100000023842","83.33","img/238/5.5/0.5/bw/001.png","","","appealing"
"","","","","","animation","173","832023","0.0-173.0","1920x1080","","3135","77.38","img/238/3.5/2/bw/001.png","","","appealing"
"","","","","","animation","174","834567","0.0-174.0","1920x1080","","2542.8000000715256","77.65","img/314/5.5/1.5/bw/001.png","","","appealing"
"","","","","","animation","175","837135","0.0-175.0","1920x1080","","2567","88","img/314/3.5/1/bw/001.png","","","appealing"
"","","","","","animation","176","839232","0.0-176.0","1920x1080","","2096.600000023842","36.38","img/117/4.5/2/bw/001.png","","","appealing"
"","","","","","animation","177","842703","0.0-177.0","1920x1080","","3469.7999999523163","77.12","img/314/4/1/bw/001.png","","","appealing"
"","","","","","animation","178","845359","0.0-178.0","1920x1080","","2655.2000000476837","97","img/238/2.5/2/bw/001.png","","","appealing"
"","","","","","animation","179","849583","0.0-179.0","1920x1080","","4222.399999976158","72.88","img/238/4.5/1.5/bw/001.png","","","appealing"
"","","","","","animation","180","852415","0.0-180.0","1920x1080","","2831.899999976158","87.57","img/314/3.5/2/bw/001.png","","","appealing"
"","","","","","animation","181","854449","0.0-181.0","1920x1080","","2032.4000000953674","86.51","img/117/2.5/1/bw/001.png","","","appealing"
"","","","","","animation","182","857303","0.0-182.0","1920x1080","","2853.399999976158","64.81","img/314/4.5/0.5/bw/001.png","","","appealing"
"","","","","","animation","183","861065","0.0-183.0","1920x1080","","3761.0999999046326","64.29","img/238/4/0.66667/bw/001.png","","","appealing"
"","","","","","animation","184","863687","0.0-184.0","1920x1080","","2620.7999999523163","58.73","img/314/4/0.66667/bw/001.png","","","appealing"
"","","","","","animation","185","867749","0.0-185.0","1920x1080","","4062.7000000476837","34.13","img/117/4.5/1/bw/001.png","","","appealing"
"","","","","","animation","186","873269","0.0-186.0","1920x1080","","5519","89.02","img/117/3.5/1/bw/001.png","","","appealing"
"","","","","","animation","187","877830","0.0-187.0","1920x1080","","4559.600000023842","67.46","img/314/5.5/0.5/bw/001.png","","","appealing"
"","","","","","animation","188","881173","0.0-188.0","1920x1080","","3342.4000000953674","90.48","img/238/3.5/0.66667/bw/001.png","","","appealing"
"","","","","","animation","189","883981","0.0-189.0","1920x1080","","2806.399999976158","10.71","img/314/5.5/1/bw/001.png","","","appealing"
"","","","","","animation","190","887005","0.0-190.0","1920x1080","","3023.2999999523163","97","img/117/2.5/0.66667/bw/001.png","","","appealing"
"","","","","","animation","191","890169","0.0-191.0","1920x1080","","3163.5","62.17","img/117/4.5/0.5/bw/001.png","","","appealing"
"","","","","","animation","192","893080","0.0-192.0","1920x1080","","2907.5","78","img/117/4/0.5/bw/001.png","","","appealing"
"","","","","","animation","193","896397","0.0-193.0","1920x1080","","3315.8000000715256","97","img/238/2.5/0.5/bw/001.png","","","appealing"
"","","","","","animation","194","899821","0.0-194.0","1920x1080","","3423.2000000476837","76","img/314/3.5/0.66667/bw/001.png","","","appealing"
"","","","","","animation","195","902789","0.0-195.0","1920x1080","","2967","30.03","img/314/4.5/2/bw/001.png","","","appealing"
"","","","","","animation","196","908349","0.0-196.0","1920x1080","","5558.399999976158","65","img/117/3.5/2/bw/001.png","","","appealing"
"","","","","","animation","197","913357","0.0-197.0","1920x1080","","5007.200000047684","34.26","img/314/4.5/1/bw/001.png","","","appealing"
"","","","","","animation","198","917147","0.0-198.0","1920x1080","","3789","21.16","img/117/5.5/2/bw/001.png","","","appealing"
"","","","","","animation","199","921333","0.0-199.0","1920x1080","","4184.700000047684","27.65","img/117/5.5/0.5/bw/001.png","","","appealing"
"","","","","","animation","200","923380","0.0-200.0","1920x1080","","2046.7999999523163","89.95","img/117/2.5/1.5/bw/001.png","","","appealing"
"","","","","","animation","201","926865","0.0-201.0","1920x1080","","3481.7999999523163","79.63","img/117/4/1.5/bw/001.png","","","appealing"
"","","","","","animation","202","929239","0.0-202.0","1920x1080","","2372.2999999523163","87.04","img/314/2.5/2/bw/001.png","","","appealing"
"","","","","","animation","203","931683","0.0-203.0","1920x1080","","2443.5","85.58","img/314/2.5/0.5/bw/001.png","","","appealing"
"","","","","","animation","204","935681","0.0-204.0","1920x1080","","3997.5","74.34","img/314/4.5/1.5/bw/001.png","","","appealing"
"","","","","","animation","205","938515","0.0-205.0","1920x1080","","2832.399999976158","83","img/314/2.5/0.66667/bw/001.png","","","appealing"
"","","","","","animation","206","940719","0.0-206.0","1920x1080","","2202.7999999523163","89.55","img/117/2.5/0.5/bw/001.png","","","appealing"
"","","","","","animation","207","943798","0.0-207.0","1920x1080","","3078.5","86.90","img/314/2.5/1/bw/001.png","","","appealing"
"","","","","","animation","208","948082","0.0-208.0","1920x1080","","4282.199999928474","52","img/117/5.5/1.5/bw/001.png","","","appealing"
"","","","","","animation","209","951598","0.0-209.0","1920x1080","","3515.100000023842","52.51","img/314/5.5/2/bw/001.png","","","appealing"
"","","","","","animation","210","955855","0.0-210.0","1920x1080","","4255.5","69.84","img/238/3.5/1/bw/001.png","","","appealing"
"","","","","","animation","211","960931","0.0-211.0","1920x1080","","5075.599999904633","70.11","img/314/4.5/0.66667/bw/001.png","","","appealing"
"","","","","","animation","212","967348","0.0-212.0","1920x1080","","6415.699999928474","49","img/314/5.5/0.66667/bw/001.png","","","appealing"
"","","","","","animation","213","971498","0.0-213.0","1920x1080","","4149.300000071526","59.26","img/238/5.5/0.66667/bw/001.png","","","appealing"
"","","","","","animation","214","975731","0.0-214.0","1920x1080","","4231.700000047684","72.49","img/238/4.5/1/bw/001.png","","","appealing"
"","","","","","animation","215","979539","0.0-215.0","1920x1080","","3806.3000000715256","36.11","img/238/5.5/1.5/bw/001.png","","","appealing"
"","","","","","animation","216","982182","0.0-216.0","1920x1080","","2641.899999976158","74.60","img/117/4.5/0.66667/bw/001.png","","","appealing"
"","","","","","animation","217","987036","0.0-217.0","1920x1080","","4855.5","78.31","img/238/4/1/bw/001.png","","","appealing"
"","","","","","animation","218","989813","0.0-218.0","1920x1080","","2775.2999999523163","97","img/238/2.5/1.5/bw/001.png","","","appealing"
"","","","","","animation","219","993663","0.0-219.0","1920x1080","","3848.399999976158","85.05","img/117/4/0.66667/bw/001.png","","","appealing"
"","","","","","animation","220","998372","0.0-220.0","1920x1080","","4708.299999952316","81.61","img/238/4/0.5/bw/001.png","","","appealing"
"","","","","","animation","221","1004013","0.0-221.0","1920x1080","","5639.200000047684","73.15","img/238/4.5/0.5/bw/001.png","","","appealing"
"","","","","","animation","222","1008548","0.0-222.0","1920x1080","","4534.300000071526","31.88","img/238/5.5/1/bw/001.png","","","appealing"
"","","","","","animation","223","1010820","0.0-223.0","1920x1080","","2271.3000000715256","58.33","img/314/4/2/bw/001.png","","","appealing"
"","","","","","animation","224","1013396","0.0-224.0","1920x1080","","2574.7000000476837","55","img/238/3.5/0.5/bw/001.png","","","appealing"
"","","","","","animation","225","1015684","0.0-225.0","1920x1080","","2287.1999999284744","68.39","img/238/4/2/bw/001.png","","","appealing"
"","","","","","animation","226","1019129","0.0-226.0","1920x1080","","3443.100000023842","58.73","img/238/4.5/0.66667/bw/001.png","","","appealing"
"","","","","","animation","227","1021446","0.0-227.0","1920x1080","","2315.1999999284744","33.07","img/117/5.5/1/bw/001.png","","","appealing"
"","","","","","animation","228","1026413","0.0-228.0","1920x1080","","4965.899999976158","67.46","img/238/5.5/2/bw/001.png","","","appealing"
"","","","","","animation","229","1029063","0.0-229.0","1920x1080","","2648.5999999046326","94","img/238/2.5/1/bw/001.png","","","appealing"
"","","","","","animation","230","1031846","0.0-230.0","1920x1080","","2781.600000023842","72.62","img/314/3.5/0.5/bw/001.png","","","appealing"
"","","","","","animation","231","1034762","0.0-231.0","1920x1080","","2915.4000000953674","92.20","img/238/2.5/0.66667/bw/001.png","","","appealing"
"","","","","","animation","232","1037164","0.0-232.0","1920x1080","","2400.2000000476837","57.94","img/238/4.5/2/bw/001.png","","","appealing"
"","","","","","animation","233","1039478","0.0-233.0","1920x1080","","2313.600000023842","90.08","img/314/2.5/1.5/bw/001.png","","","appealing"
"","","","","","animation","234","1043732","0.0-234.0","1920x1080","","4252.700000047684","55.95","img/117/3.5/0.66667/bw/001.png","","","appealing"
"","","","","","animation","235","1054445","0.0-235.0","1920x1080","","10712.600000023842","31.75","img/117/3.5/1.5/bw/001.png","","","appealing"
"","","","","","html-button-response","236","1074036","0.0-236.0","1920x1080","","19589.200000047684","","<div class=""intro"">You are about to view a new series of animations.<br><br></div><div class=""intro"">You will evaluate them based on a different descriptor.<br><br></div><div class=""intro"">Move the slider to indicate how <strong style=""text-transform:capitalize"">NATURAL</strong> you find each animation.<br><br></div><div class=""intro"">0 = Least Natural<br></div><div class=""intro"">1 = Most Natural<br><br></div><div class=""intro"">Remember to use the <strong><em>entire range</em></strong> of the slider to make your ratings.<br></div><div class=""intro"">Please <strong><em>take your time</em></strong> and carefully consider each rating you make.<br><br></div>","0","",""
"","","","","","call-function","237","1074037","0.0-237.0","1920x1080","","","","","","",""
"","","","","","animation","238","1078511","0.0-238.0","1920x1080","","4473.700000047684","85.98","img/117/5.5/1/bw/001.png","","","natural"
"","","","","","animation","239","1083531","0.0-239.0","1920x1080","","5019.100000023842","86.24","img/117/5.5/0.66667/bw/001.png","","","natural"
"","","","","","animation","240","1087884","0.0-240.0","1920x1080","","4351","17","img/314/2.5/1.5/bw/001.png","","","natural"
"","","","","","animation","241","1091195","0.0-241.0","1920x1080","","3310.2000000476837","79.50","img/314/4/0.5/bw/001.png","","","natural"
"","","","","","animation","242","1094004","0.0-242.0","1920x1080","","2807.5","5.82","img/314/2.5/0.66667/bw/001.png","","","natural"
"","","","","","animation","243","1095828","0.0-243.0","1920x1080","","1823.7999999523163","3.17","img/314/2.5/0.5/bw/001.png","","","natural"
"","","","","","animation","244","1099628","0.0-244.0","1920x1080","","3798.899999976158","67.20","img/238/5.5/1/bw/001.png","","","natural"
"","","","","","animation","245","1102036","0.0-245.0","1920x1080","","2406.399999976158","10.05","img/117/2.5/1.5/bw/001.png","","","natural"
"","","","","","animation","246","1104732","0.0-246.0","1920x1080","","2695.2999999523163","93.39","img/314/3.5/1.5/bw/001.png","","","natural"
"","","","","","animation","247","1108492","0.0-247.0","1920x1080","","3749.7999999523163","26.72","img/314/4.5/0.5/bw/001.png","","","natural"
"","","","","","animation","248","1112324","0.0-248.0","1920x1080","","3830.7000000476837","83.86","img/238/5.5/0.66667/bw/001.png","","","natural"
"","","","","","animation","249","1115613","0.0-249.0","1920x1080","","3286.899999976158","5","img/314/2.5/2/bw/001.png","","","natural"
"","","","","","animation","250","1117989","0.0-250.0","1920x1080","","2374.7999999523163","1.19","img/117/2.5/2/bw/001.png","","","natural"
"","","","","","animation","251","1125371","0.0-251.0","1920x1080","","7380.5","37.17","img/117/4.5/1/bw/001.png","","","natural"
"","","","","","animation","252","1129771","0.0-252.0","1920x1080","","4399","24.47","img/238/4/0.5/bw/001.png","","","natural"
"","","","","","animation","253","1132492","0.0-253.0","1920x1080","","2720.7000000476837","22.88","img/314/4/0.66667/bw/001.png","","","natural"
"","","","","","animation","254","1135292","0.0-254.0","1920x1080","","2799.100000023842","18.12","img/117/4.5/0.5/bw/001.png","","","natural"
"","","","","","animation","255","1140092","0.0-255.0","1920x1080","","4798.899999976158","81.48","img/238/4/1.5/bw/001.png","","","natural"
"","","","","","animation","256","1146429","0.0-256.0","1920x1080","","6334","27.25","img/238/4.5/1/bw/001.png","","","natural"
"","","","","","animation","257","1153372","0.0-257.0","1920x1080","","6942.400000095367","64","img/314/4.5/1/bw/001.png","","","natural"
"","","","","","animation","258","1160137","0.0-258.0","1920x1080","","6763.799999952316","79.37","img/238/4.5/0.5/bw/001.png","","","natural"
"","","","","","animation","259","1166549","0.0-259.0","1920x1080","","6418.200000047684","22.22","img/314/4.5/1.5/bw/001.png","","","natural"
"","","","","","animation","260","1170885","0.0-260.0","1920x1080","","4335.100000023842","84.79","img/238/5.5/2/bw/001.png","","","natural"
"","","","","","animation","261","1176396","0.0-261.0","1920x1080","","5509.799999952316","85.58","img/117/4.5/2/bw/001.png","","","natural"
"","","","","","animation","262","1179469","0.0-262.0","1920x1080","","3071.7999999523163","74.07","img/117/4/2/bw/001.png","","","natural"
"","","","","","animation","263","1183547","0.0-263.0","1920x1080","","4076.2999999523163","59.39","img/117/3.5/1.5/bw/001.png","","","natural"
"","","","","","animation","264","1186617","0.0-264.0","1920x1080","","3068.7999999523163","2.25","img/238/2.5/2/bw/001.png","","","natural"
"","","","","","animation","265","1188997","0.0-265.0","1920x1080","","2378.100000023842","0","img/117/2.5/1/bw/001.png","","","natural"
"","","","","","animation","266","1198663","0.0-266.0","1920x1080","","9662.900000095367","57.54","img/117/4.5/1.5/bw/001.png","","","natural"
"","","","","","animation","267","1200886","0.0-267.0","1920x1080","","2222","30.82","img/238/3.5/2/bw/001.png","","","natural"
"","","","","","animation","268","1203714","0.0-268.0","1920x1080","","2827","39.02","img/238/3.5/0.66667/bw/001.png","","","natural"
"","","","","","animation","269","1206130","0.0-269.0","1920x1080","","2415.600000023842","48.28","img/117/4/1/bw/001.png","","","natural"
"","","","","","animation","270","1208237","0.0-270.0","1920x1080","","2106.100000023842","77.12","img/238/5.5/1.5/bw/001.png","","","natural"
"","","","","","animation","271","1210085","0.0-271.0","1920x1080","","1846.7999999523163","75.53","img/117/5.5/1.5/bw/001.png","","","natural"
"","","","","","animation","272","1212285","0.0-272.0","1920x1080","","2198.7999999523163","21.03","img/238/4/1/bw/001.png","","","natural"
"","","","","","animation","273","1216714","0.0-273.0","1920x1080","","4427.100000023842","9","img/238/2.5/1.5/bw/001.png","","","natural"
"","","","","","animation","274","1220869","0.0-274.0","1920x1080","","4154.600000023842","69.71","img/314/4/1.5/bw/001.png","","","natural"
"","","","","","animation","275","1222933","0.0-275.0","1920x1080","","2062.600000023842","74.21","img/117/5.5/0.5/bw/001.png","","","natural"
"","","","","","animation","276","1225363","0.0-276.0","1920x1080","","2429.2000000476837","82.94","img/238/4.5/0.66667/bw/001.png","","","natural"
"","","","","","animation","277","1229063","0.0-277.0","1920x1080","","3698.899999976158","46","img/117/3.5/0.66667/bw/001.png","","","natural"
"","","","","","animation","278","1231812","0.0-278.0","1920x1080","","2748.4000000953674","58.86","img/314/4/2/bw/001.png","","","natural"
"","","","","","animation","279","1234262","0.0-279.0","1920x1080","","2449","0.79","img/117/2.5/0.66667/bw/001.png","","","natural"
"","","","","","animation","280","1238364","0.0-280.0","1920x1080","","4100.700000047684","36","img/314/3.5/0.66667/bw/001.png","","","natural"
"","","","","","animation","281","1242813","0.0-281.0","1920x1080","","4447.399999976158","61","img/117/5.5/2/bw/001.png","","","natural"
"","","","","","animation","282","1245580","0.0-282.0","1920x1080","","2765.8000000715256","2.12","img/117/2.5/0.5/bw/001.png","","","natural"
"","","","","","animation","283","1248213","0.0-283.0","1920x1080","","2631.2999999523163","78.44","img/314/5.5/1.5/bw/001.png","","","natural"
"","","","","","animation","284","1252435","0.0-284.0","1920x1080","","4221.199999928474","89","img/117/4.5/0.66667/bw/001.png","","","natural"
"","","","","","animation","285","1254966","0.0-285.0","1920x1080","","2529.1999999284744","91.80","img/238/4/2/bw/001.png","","","natural"
"","","","","","animation","286","1259180","0.0-286.0","1920x1080","","4213.300000071526","60.85","img/314/3.5/2/bw/001.png","","","natural"
"","","","","","animation","287","1261732","0.0-287.0","1920x1080","","2550.8000000715256","74","img/314/5.5/0.66667/bw/001.png","","","natural"
"","","","","","animation","288","1264037","0.0-288.0","1920x1080","","2303","82.54","img/314/4/1/bw/001.png","","","natural"
"","","","","","animation","289","1268469","0.0-289.0","1920x1080","","4431","66.80","img/314/5.5/0.5/bw/001.png","","","natural"
"","","","","","animation","290","1271480","0.0-290.0","1920x1080","","3010","14.55","img/238/3.5/0.5/bw/001.png","","","natural"
"","","","","","animation","291","1273548","0.0-291.0","1920x1080","","2067.600000023842","24.47","img/314/3.5/0.5/bw/001.png","","","natural"
"","","","","","animation","292","1276246","0.0-292.0","1920x1080","","2696.100000023842","18.92","img/314/3.5/1/bw/001.png","","","natural"
"","","","","","animation","293","1278852","0.0-293.0","1920x1080","","2605.399999976158","3.44","img/238/2.5/0.66667/bw/001.png","","","natural"
"","","","","","animation","294","1281512","0.0-294.0","1920x1080","","2658.7000000476837","69.84","img/117/4/1.5/bw/001.png","","","natural"
"","","","","","animation","295","1284911","0.0-295.0","1920x1080","","3399","76.85","img/314/4.5/2/bw/001.png","","","natural"
"","","","","","animation","296","1287110","0.0-296.0","1920x1080","","2198.5","2.91","img/314/2.5/1/bw/001.png","","","natural"
"","","","","","animation","297","1292645","0.0-297.0","1920x1080","","5533.700000047684","53.17","img/117/3.5/1/bw/001.png","","","natural"
"","","","","","animation","298","1298344","0.0-298.0","1920x1080","","5697.800000071526","70","img/314/4.5/0.66667/bw/001.png","","","natural"
"","","","","","animation","299","1301834","0.0-299.0","1920x1080","","3488.5","53","img/314/5.5/1/bw/001.png","","","natural"
"","","","","","animation","300","1305016","0.0-300.0","1920x1080","","3180.399999976158","66","img/117/3.5/2/bw/001.png","","","natural"
"","","","","","animation","301","1308778","0.0-301.0","1920x1080","","3760.8000000715256","61.11","img/238/5.5/0.5/bw/001.png","","","natural"
"","","","","","animation","302","1311482","0.0-302.0","1920x1080","","2703","83.73","img/238/3.5/1/bw/001.png","","","natural"
"","","","","","animation","303","1314134","0.0-303.0","1920x1080","","2650","1","img/238/2.5/1/bw/001.png","","","natural"
"","","","","","animation","304","1316594","0.0-304.0","1920x1080","","2459.2000000476837","85","img/117/4/0.66667/bw/001.png","","","natural"
"","","","","","animation","305","1319043","0.0-305.0","1920x1080","","2447.600000023842","86","img/238/3.5/1.5/bw/001.png","","","natural"
"","","","","","animation","306","1322528","0.0-306.0","1920x1080","","3483.5","32","img/117/4/0.5/bw/001.png","","","natural"
"","","","","","animation","307","1325919","0.0-307.0","1920x1080","","3390","19.18","img/238/4/0.66667/bw/001.png","","","natural"
"","","","","","animation","308","1328211","0.0-308.0","1920x1080","","2290","53.70","img/314/5.5/2/bw/001.png","","","natural"
"","","","","","animation","309","1330924","0.0-309.0","1920x1080","","2712.2000000476837","77.65","img/238/4.5/1.5/bw/001.png","","","natural"
"","","","","","animation","310","1334078","0.0-310.0","1920x1080","","3152.899999976158","4.63","img/238/2.5/0.5/bw/001.png","","","natural"
"","","","","","animation","311","1338228","0.0-311.0","1920x1080","","4148.399999976158","66.53","img/238/4.5/2/bw/001.png","","","natural"
"","","","","","animation","312","1341962","0.0-312.0","1920x1080","","3733.399999976158","60.98","img/117/3.5/0.5/bw/001.png","","","natural"
"","","","","","html-button-response","313","1360764","0.0-313.0","1920x1080","","18799.700000047684","","<div class=""intro"">You are about to view a new series of animations.<br><br></div><div class=""intro"">You will evaluate them based on a different descriptor.<br><br></div><div class=""intro"">Move the slider to indicate how <strong style=""text-transform:capitalize"">INTERESTING</strong> you find each animation.<br><br></div><div class=""intro"">0 = Least Interesting<br></div><div class=""intro"">1 = Most Interesting<br><br></div><div class=""intro"">Remember to use the <strong><em>entire range</em></strong> of the slider to make your ratings.<br></div><div class=""intro"">Please <strong><em>take your time</em></strong> and carefully consider each rating you make.<br><br></div>","0","",""
"","","","","","call-function","314","1360765","0.0-314.0","1920x1080","","","","","","",""
"","","","","","animation","315","1363512","0.0-315.0","1920x1080","","2746.4000000953674","80.42","img/314/4.5/0.5/bw/001.png","","","interesting"
"","","","","","animation","316","1368895","0.0-316.0","1920x1080","","5382","92.72","img/238/2.5/1/bw/001.png","","","interesting"
"","","","","","animation","317","1372765","0.0-317.0","1920x1080","","3868.2999999523163","42.59","img/314/5.5/1.5/bw/001.png","","","interesting"
"","","","","","animation","318","1375128","0.0-318.0","1920x1080","","2362.3000000715256","80.95","img/117/4.5/0.66667/bw/001.png","","","interesting"
"","","","","","animation","319","1378622","0.0-319.0","1920x1080","","3492.5","78.70","img/117/2.5/0.66667/bw/001.png","","","interesting"
"","","","","","animation","320","1381470","0.0-320.0","1920x1080","","2847","94.05","img/238/3.5/2/bw/001.png","","","interesting"
"","","","","","animation","321","1383601","0.0-321.0","1920x1080","","2129.100000023842","63.76","img/314/2.5/1.5/bw/001.png","","","interesting"
"","","","","","animation","322","1387133","0.0-322.0","1920x1080","","3530","86.51","img/314/4/2/bw/001.png","","","interesting"
"","","","","","animation","323","1391789","0.0-323.0","1920x1080","","4654.699999928474","94","img/314/3.5/0.66667/bw/001.png","","","interesting"
"","","","","","animation","324","1396333","0.0-324.0","1920x1080","","4542.799999952316","37","img/238/2.5/0.5/bw/001.png","","","interesting"
"","","","","","animation","325","1400153","0.0-325.0","1920x1080","","3818.9000000953674","74.87","img/238/4/1.5/bw/001.png","","","interesting"
"","","","","","animation","326","1403428","0.0-326.0","1920x1080","","3271.600000023842","94.58","img/117/3.5/2/bw/001.png","","","interesting"
"","","","","","animation","327","1405437","0.0-327.0","1920x1080","","1998.5","34.66","img/314/2.5/0.66667/bw/001.png","","","interesting"
"","","","","","animation","328","1407776","0.0-328.0","1920x1080","","2338.5","84.79","img/117/3.5/1/bw/001.png","","","interesting"
"","","","","","animation","329","1411892","0.0-329.0","1920x1080","","4114.100000023842","34.79","img/314/4.5/1/bw/001.png","","","interesting"
"","","","","","animation","330","1417308","0.0-330.0","1920x1080","","5415.200000047684","19.44","img/238/4/1/bw/001.png","","","interesting"
"","","","","","animation","331","1423693","0.0-331.0","1920x1080","","6383.200000047684","69.84","img/117/4.5/2/bw/001.png","","","interesting"
"","","","","","animation","332","1429359","0.0-332.0","1920x1080","","5664.599999904633","58.20","img/117/4.5/1.5/bw/001.png","","","interesting"
"","","","","","animation","333","1433938","0.0-333.0","1920x1080","","4577.5","86.38","img/238/3.5/0.5/bw/001.png","","","interesting"
"","","","","","animation","334","1437103","0.0-334.0","1920x1080","","3163.5999999046326","76","img/117/3.5/1.5/bw/001.png","","","interesting"
"","","","","","animation","335","1441844","0.0-335.0","1920x1080","","4738.199999928474","50.13","img/117/2.5/0.5/bw/001.png","","","interesting"
"","","","","","animation","336","1448497","0.0-336.0","1920x1080","","6651.899999976158","35","img/117/5.5/0.5/bw/001.png","","","interesting"
"","","","","","animation","337","1455643","0.0-337.0","1920x1080","","7144.800000071526","23.02","img/314/5.5/0.66667/bw/001.png","","","interesting"
"","","","","","animation","338","1466293","0.0-338.0","1920x1080","","10648.600000023842","60","img/238/4.5/0.66667/bw/001.png","","","interesting"
"","","","","","animation","339","1477460","0.0-339.0","1920x1080","","11165.200000047684","41.93","img/238/4.5/0.5/bw/001.png","","","interesting"
"","","","","","animation","340","1481431","0.0-340.0","1920x1080","","3969.6999999284744","85.32","img/314/4/0.66667/bw/001.png","","","interesting"
"","","","","","animation","341","1485191","0.0-341.0","1920x1080","","3757.7999999523163","25.93","img/238/5.5/0.66667/bw/001.png","","","interesting"
"","","","","","animation","342","1492498","0.0-342.0","1920x1080","","7305.699999928474","82.67","img/238/3.5/1/bw/001.png","","","interesting"
"","","","","","animation","343","1496037","0.0-343.0","1920x1080","","3538","19.05","img/117/2.5/1.5/bw/001.png","","","interesting"
"","","","","","animation","344","1502837","0.0-344.0","1920x1080","","6798.300000071526","41.14","img/238/4.5/2/bw/001.png","","","interesting"
"","","","","","animation","345","1506660","0.0-345.0","1920x1080","","3821.8000000715256","83","img/314/4.5/1.5/bw/001.png","","","interesting"
"","","","","","animation","346","1510461","0.0-346.0","1920x1080","","3799.2999999523163","60.05","img/238/2.5/2/bw/001.png","","","interesting"
"","","","","","animation","347","1513655","0.0-347.0","1920x1080","","3191.7000000476837","36.64","img/238/5.5/2/bw/001.png","","","interesting"
"","","","","","animation","348","1516927","0.0-348.0","1920x1080","","3270.7999999523163","8.07","img/238/2.5/0.66667/bw/001.png","","","interesting"
"","","","","","animation","349","1522054","0.0-349.0","1920x1080","","5125.900000095367","70.50","img/117/4/0.66667/bw/001.png","","","interesting"
"","","","","","animation","350","1525473","0.0-350.0","1920x1080","","3417.7999999523163","5.95","img/314/2.5/1/bw/001.png","","","interesting"
"","","","","","animation","351","1528661","0.0-351.0","1920x1080","","3187","86.38","img/314/3.5/2/bw/001.png","","","interesting"
"","","","","","animation","352","1531342","0.0-352.0","1920x1080","","2679.2999999523163","16.27","img/238/5.5/1/bw/001.png","","","interesting"
"","","","","","animation","353","1534109","0.0-353.0","1920x1080","","2765.600000023842","78.97","img/314/3.5/0.5/bw/001.png","","","interesting"
"","","","","","animation","354","1540253","0.0-354.0","1920x1080","","6143.300000071526","77","img/117/4/1.5/bw/001.png","","","interesting"
"","","","","","animation","355","1543016","0.0-355.0","1920x1080","","2760.600000023842","56.88","img/117/5.5/0.66667/bw/001.png","","","interesting"
"","","","","","animation","356","1547159","0.0-356.0","1920x1080","","4142.299999952316","29.89","img/314/4/1.5/bw/001.png","","","interesting"
"","","","","","animation","357","1550505","0.0-357.0","1920x1080","","3344.2999999523163","72.09","img/117/4.5/0.5/bw/001.png","","","interesting"
"","","","","","animation","358","1557661","0.0-358.0","1920x1080","","7154.200000047684","83.60","img/238/3.5/1.5/bw/001.png","","","interesting"
"","","","","","animation","359","1562140","0.0-359.0","1920x1080","","4478.5","72.22","img/238/3.5/0.66667/bw/001.png","","","interesting"
"","","","","","animation","360","1567340","0.0-360.0","1920x1080","","5198.400000095367","71.69","img/314/4/1/bw/001.png","","","interesting"
"","","","","","animation","361","1570561","0.0-361.0","1920x1080","","3219.2000000476837","84.39","img/314/3.5/1/bw/001.png","","","interesting"
"","","","","","animation","362","1573621","0.0-362.0","1920x1080","","3057","21.69","img/314/5.5/2/bw/001.png","","","interesting"
"","","","","","animation","363","1576563","0.0-363.0","1920x1080","","2940.5","88.23","img/238/4/0.66667/bw/001.png","","","interesting"
"","","","","","animation","364","1580901","0.0-364.0","1920x1080","","4336.700000047684","69.71","img/117/4/2/bw/001.png","","","interesting"
"","","","","","animation","365","1584372","0.0-365.0","1920x1080","","3469.3000000715256","25.53","img/238/5.5/1.5/bw/001.png","","","interesting"
"","","","","","animation","366","1587075","0.0-366.0","1920x1080","","2701","2.65","img/314/2.5/2/bw/001.png","","","interesting"
"","","","","","animation","367","1590587","0.0-367.0","1920x1080","","3510.6999999284744","96","img/314/2.5/0.5/bw/001.png","","","interesting"
"","","","","","animation","368","1594343","0.0-368.0","1920x1080","","3754","71.83","img/314/5.5/0.5/bw/001.png","","","interesting"
"","","","","","animation","369","1597805","0.0-369.0","1920x1080","","3460.2000000476837","41.40","img/238/4.5/1.5/bw/001.png","","","interesting"
"","","","","","animation","370","1601064","0.0-370.0","1920x1080","","3258","82.80","img/314/4/0.5/bw/001.png","","","interesting"
"","","","","","animation","371","1603388","0.0-371.0","1920x1080","","2321.600000023842","40.87","img/238/2.5/1.5/bw/001.png","","","interesting"
"","","","","","animation","372","1607554","0.0-372.0","1920x1080","","4165.5","72.75","img/238/4/2/bw/001.png","","","interesting"
"","","","","","animation","373","1609571","0.0-373.0","1920x1080","","2015.3999999761581","20.90","img/117/5.5/1/bw/001.png","","","interesting"
"","","","","","animation","374","1613221","0.0-374.0","1920x1080","","3648.4000000953674","69.71","img/238/4.5/1/bw/001.png","","","interesting"
"","","","","","animation","375","1617313","0.0-375.0","1920x1080","","4091.2000000476837","5.03","img/117/2.5/2/bw/001.png","","","interesting"
"","","","","","animation","376","1619971","0.0-376.0","1920x1080","","2655.399999976158","80.69","img/314/4.5/0.66667/bw/001.png","","","interesting"
"","","","","","animation","377","1622745","0.0-377.0","1920x1080","","2772.1999999284744","14.81","img/314/5.5/1/bw/001.png","","","interesting"
"","","","","","animation","378","1625490","0.0-378.0","1920x1080","","2743.7999999523163","9.66","img/117/5.5/1.5/bw/001.png","","","interesting"
"","","","","","animation","379","1627478","0.0-379.0","1920x1080","","1987.5","68","img/117/4/1/bw/001.png","","","interesting"
"","","","","","animation","380","1631454","0.0-380.0","1920x1080","","3974.3000000715256","56.88","img/117/4.5/1/bw/001.png","","","interesting"
"","","","","","animation","381","1634947","0.0-381.0","1920x1080","","3491.7000000476837","70.90","img/314/3.5/1.5/bw/001.png","","","interesting"
"","","","","","animation","382","1648482","0.0-382.0","1920x1080","","13544.399999976158","85.98","img/117/4/0.5/bw/001.png","","","interesting"
"","","","","","animation","383","1652927","0.0-383.0","1920x1080","","4444.400000095367","4.50","img/117/2.5/1/bw/001.png","","","interesting"
"","","","","","animation","384","1672204","0.0-384.0","1920x1080","","19273.200000047684","26.32","img/117/5.5/2/bw/001.png","","","interesting"
"","","","","","animation","385","1681463","0.0-385.0","1920x1080","","9257.100000023842","71.30","img/314/4.5/2/bw/001.png","","","interesting"
"","","","","","animation","386","1686029","0.0-386.0","1920x1080","","4564.400000095367","68.39","img/238/4/0.5/bw/001.png","","","interesting"
"","","","","","animation","387","1689542","0.0-387.0","1920x1080","","3511.5","88","img/117/3.5/0.5/bw/001.png","","","interesting"
"","","","","","animation","388","1692159","0.0-388.0","1920x1080","","2614.7999999523163","19.18","img/238/5.5/0.5/bw/001.png","","","interesting"
"","","","","","animation","389","1694870","0.0-389.0","1920x1080","","2709.600000023842","74.07","img/117/3.5/0.66667/bw/001.png","","","interesting"
"","","","","","html-button-response","390","1700809","0.0-390.0","1920x1080","","5937.799999952316","","<strong>Study Debriefing</strong><br><p class=""debrief""><strong>Background:</strong> The patterns you rated are called <em>fractals</em>. The term fractal describes a class of irregular curves or shapes for which any suitably chosen part is similar in shape to a given larger or smaller part when magnified or reduced to the same size. Fractal properties are found throughout the natural and manmade world. The series of animations you saw today displayed animated fractal patterns of a varying complexity.</p><p class=""debrief""><strong>Purpose of this study:</strong> We hope to better understand how the perception of static fractals differs from the perception of animated fractals, and how the speed of the animated patterns influences people&apos;s perception of them. Fractals allow us to study the perception of aesthetic properties (e.g. the perceived level of beauty in an image) without using recognizable content, which makes them an excellent tool for studying abstract aesthetic judgement.</p><p class=""debrief""><strong>Your part:</strong> Your participation has helped us to further understand how humans perceive these patterns across different levels of speed and complexity. This research with allow us to better understand how the visual system and brain process our ever-changing visual environments.<p class=""debrief""><strong>Feedback and Further information:</strong> If you have additional questions about this study, please feel free to ask the researcher, Nathan Gonzales-Hess at nhess @ uoregon.edu. If you have any questions concerning your rights as a research participant, please contact Research Compliance Services, 5237 University of Oregon, Eugene, OR 97403, 541-346-2510, or email researchCompliance @ uoregon.edu. You can also email the Human Subjects Coordinator for psychology and linguistics research at hscoord @ uoregon.edu. ","0","",""
"","","","","","html-button-response","391","1897155","0.0-391.0","1920x1080","","196330.20000004768","","Thank you for participating in this study. <br>Please click below to finish the experiment and submit your responses.<br><br>","0","",""
"true","","","","","fullscreen","392","1898170","0.0-392.0","1920x1080","13:28 11/10/2022","","","","","",""
