"success","timeout","failed_images","failed_audio","failed_video","trial_type","trial_index","time_elapsed","internal_node_id","resolution","timeStamp","rt","response","stimulus","button_pressed","value","descriptor"
"true","false","[]","[]","[]","preload","0","44780","0.0-0.0","1920x1080","","","","","","",""
"true","false","[]","[]","[]","preload","1","85546","0.0-1.0","1920x1080","","","","","","",""
"true","false","[]","[]","[]","preload","2","128947","0.0-2.0","1920x1080","","","","","","",""
"true","","","","","fullscreen","3","329271","0.0-3.0","1920x1080","11:30 13/10/2022","","","","","",""
"","","","","","survey-html-form","4","337668","0.0-4.0","1920x1080","","8395.20000000298","{""age"":""18"",""gender"":""female""}","","","",""
"","","","","","html-button-response","5","419644","0.0-5.0","1920x1080","","81975.10000000149","","<div class=""complex"">You are going to see a series of animations.<br><br></div><div class=""complex"">Move the slider to indicate how <strong style=""text-transform:capitalize"">COMPLEX</strong> you find each animation.<br><br></div><div class=""complex"">0 = Least Complex<br></div><div class=""complex"">1 = Most Complex<br><br></div><div class=""complex"">Remember to use the <strong><em>entire range</em></strong> of the slider to make your ratings.<br></div><div class=""complex"">Please <strong><em>take your time</em></strong> and carefully consider each rating you make.<br><br></div><div class=""complex"">The study has five sections and will take about 45 minutes to complete.<br><br></div>","0","",""
"","","","","","call-function","6","419645","0.0-6.0","1920x1080","","","","","","",""
"","","","","","animation","7","438676","0.0-7.0","1920x1080","","19028.29999999702","35.05","img/238/3.5/0.66667/bw/001.png","","","complex"
"","","","","","animation","8","451164","0.0-8.0","1920x1080","","12486.70000000298","44.97","img/314/2.5/1/bw/001.png","","","complex"
"","","","","","animation","9","468844","0.0-9.0","1920x1080","","17678.69999999553","24.34","img/117/5.5/1/bw/001.png","","","complex"
"","","","","","animation","10","480650","0.0-10.0","1920x1080","","11807.10000000149","53.70","img/314/4/0.66667/bw/001.png","","","complex"
"","","","","","animation","11","493778","0.0-11.0","1920x1080","","13126.70000000298","58.99","img/117/4/0.5/bw/001.png","","","complex"
"","","","","","animation","12","509330","0.0-12.0","1920x1080","","15551.90000000596","37.83","img/117/5.5/0.5/bw/001.png","","","complex"
"","","","","","animation","13","520571","0.0-13.0","1920x1080","","11239.5","28.84","img/314/3.5/1.5/bw/001.png","","","complex"
"","","","","","animation","14","529802","0.0-14.0","1920x1080","","9230.70000000298","54.63","img/117/4/0.66667/bw/001.png","","","complex"
"","","","","","animation","15","538716","0.0-15.0","1920x1080","","8911.10000000149","67.33","img/314/4.5/0.5/bw/001.png","","","complex"
"","","","","","animation","16","552628","0.0-16.0","1920x1080","","13910.60000000149","63.89","img/117/2.5/1.5/bw/001.png","","","complex"
"","","","","","animation","17","567324","0.0-17.0","1920x1080","","14695","23","img/314/4/1.5/bw/001.png","","","complex"
"","","","","","animation","18","579124","0.0-18.0","1920x1080","","11798.89999999851","36.11","img/238/4.5/0.66667/bw/001.png","","","complex"
"","","","","","animation","19","586956","0.0-19.0","1920x1080","","7831.5","30.82","img/117/3.5/1/bw/001.png","","","complex"
"","","","","","animation","20","596644","0.0-20.0","1920x1080","","9687.10000000149","53.57","img/238/4.5/0.5/bw/001.png","","","complex"
"","","","","","animation","21","604172","0.0-21.0","1920x1080","","7527.60000000149","60.98","img/238/2.5/1.5/bw/001.png","","","complex"
"","","","","","animation","22","612236","0.0-22.0","1920x1080","","8063.0999999940395","35.58","img/314/4/1/bw/001.png","","","complex"
"","","","","","animation","23","629476","0.0-23.0","1920x1080","","17239.19999999553","69.71","img/238/5.5/1/bw/001.png","","","complex"
"","","","","","animation","24","640084","0.0-24.0","1920x1080","","10607.39999999851","47.22","img/117/3.5/1.5/bw/001.png","","","complex"
"","","","","","animation","25","648476","0.0-25.0","1920x1080","","8390.79999999702","58.73","img/238/2.5/1/bw/001.png","","","complex"
"","","","","","animation","26","661721","0.0-26.0","1920x1080","","13247","64.81","img/238/4.5/1/bw/001.png","","","complex"
"","","","","","animation","27","666953","0.0-27.0","1920x1080","","5230.5","32.14","img/117/3.5/2/bw/001.png","","","complex"
"","","","","","animation","28","676345","0.0-28.0","1920x1080","","9391.89999999851","60.71","img/117/5.5/0.66667/bw/001.png","","","complex"
"","","","","","animation","29","686186","0.0-29.0","1920x1080","","9839.79999999702","47.09","img/314/4/2/bw/001.png","","","complex"
"","","","","","animation","30","693657","0.0-30.0","1920x1080","","7469.89999999851","58.60","img/117/2.5/0.66667/bw/001.png","","","complex"
"","","","","","animation","31","705241","0.0-31.0","1920x1080","","11583.10000000149","48.94","img/117/4.5/1.5/bw/001.png","","","complex"
"","","","","","animation","32","710857","0.0-32.0","1920x1080","","5614.89999999851","64","img/117/2.5/0.5/bw/001.png","","","complex"
"","","","","","animation","33","719044","0.0-33.0","1920x1080","","8183.20000000298","67","img/117/3.5/0.5/bw/001.png","","","complex"
"","","","","","animation","34","735396","0.0-34.0","1920x1080","","16351.39999999851","36.77","img/314/4.5/1.5/bw/001.png","","","complex"
"","","","","","animation","35","746821","0.0-35.0","1920x1080","","11424.20000000298","77.25","img/238/4/0.5/bw/001.png","","","complex"
"","","","","","animation","36","752836","0.0-36.0","1920x1080","","6013.80000000447","69.84","img/238/2.5/0.5/bw/001.png","","","complex"
"","","","","","animation","37","758924","0.0-37.0","1920x1080","","6086.39999999851","72.75","img/314/4.5/0.66667/bw/001.png","","","complex"
"","","","","","animation","38","763252","0.0-38.0","1920x1080","","4327.5","64.68","img/314/2.5/2/bw/001.png","","","complex"
"","","","","","animation","39","771036","0.0-39.0","1920x1080","","7783.20000000298","37.83","img/238/3.5/2/bw/001.png","","","complex"
"","","","","","animation","40","775164","0.0-40.0","1920x1080","","4127.30000000447","62.83","img/314/3.5/0.66667/bw/001.png","","","complex"
"","","","","","animation","41","778666","0.0-41.0","1920x1080","","3502.60000000149","69.58","img/314/2.5/0.5/bw/001.png","","","complex"
"","","","","","animation","42","784042","0.0-42.0","1920x1080","","5375.5","53.57","img/117/2.5/2/bw/001.png","","","complex"
"","","","","","animation","43","791642","0.0-43.0","1920x1080","","7599.30000000447","66.01","img/117/2.5/1/bw/001.png","","","complex"
"","","","","","animation","44","810378","0.0-44.0","1920x1080","","18735.20000000298","72.35","img/238/4.5/1.5/bw/001.png","","","complex"
"","","","","","animation","45","818506","0.0-45.0","1920x1080","","8126.39999999851","49","img/238/2.5/2/bw/001.png","","","complex"
"","","","","","animation","46","824706","0.0-46.0","1920x1080","","6199.39999999851","67.33","img/314/4.5/1/bw/001.png","","","complex"
"","","","","","animation","47","836042","0.0-47.0","1920x1080","","11334.89999999851","53.97","img/238/4/2/bw/001.png","","","complex"
"","","","","","animation","48","856546","0.0-48.0","1920x1080","","20503","43.39","img/314/3.5/1/bw/001.png","","","complex"
"","","","","","animation","49","861514","0.0-49.0","1920x1080","","4967.4000000059605","61.11","img/314/2.5/0.66667/bw/001.png","","","complex"
"","","","","","animation","50","866098","0.0-50.0","1920x1080","","4582.9000000059605","62.96","img/117/4/1/bw/001.png","","","complex"
"","","","","","animation","51","871603","0.0-51.0","1920x1080","","5503.70000000298","66","img/117/4.5/0.5/bw/001.png","","","complex"
"","","","","","animation","52","881922","0.0-52.0","1920x1080","","10318.5","34","img/238/4/1.5/bw/001.png","","","complex"
"","","","","","animation","53","886866","0.0-53.0","1920x1080","","4942.60000000149","66.53","img/314/3.5/0.5/bw/001.png","","","complex"
"","","","","","animation","54","892853","0.0-54.0","1920x1080","","5985.70000000298","56.48","img/238/3.5/1/bw/001.png","","","complex"
"","","","","","animation","55","904329","0.0-55.0","1920x1080","","11476.79999999702","34.52","img/238/5.5/0.5/bw/001.png","","","complex"
"","","","","","animation","56","918219","0.0-56.0","1920x1080","","13888.60000000149","46.30","img/314/5.5/0.5/bw/001.png","","","complex"
"","","","","","animation","57","941625","0.0-57.0","1920x1080","","23405","29.37","img/238/5.5/1.5/bw/001.png","","","complex"
"","","","","","animation","58","946945","0.0-58.0","1920x1080","","5318.89999999851","64.95","img/238/2.5/0.66667/bw/001.png","","","complex"
"","","","","","animation","59","950609","0.0-59.0","1920x1080","","3662.60000000149","54.10","img/314/2.5/1.5/bw/001.png","","","complex"
"","","","","","animation","60","954857","0.0-60.0","1920x1080","","4247.29999999702","58.33","img/238/4/0.66667/bw/001.png","","","complex"
"","","","","","animation","61","958975","0.0-61.0","1920x1080","","4119.29999999702","42.99","img/314/4.5/2/bw/001.png","","","complex"
"","","","","","animation","62","977407","0.0-62.0","1920x1080","","18430.89999999851","41.93","img/238/4/1/bw/001.png","","","complex"
"","","","","","animation","63","989511","0.0-63.0","1920x1080","","12103.10000000149","20","img/117/5.5/1.5/bw/001.png","","","complex"
"","","","","","animation","64","993967","0.0-64.0","1920x1080","","4454.5","24.74","img/117/5.5/2/bw/001.png","","","complex"
"","","","","","animation","65","1001879","0.0-65.0","1920x1080","","7910.79999999702","19","img/238/5.5/0.66667/bw/001.png","","","complex"
"","","","","","animation","66","1011855","0.0-66.0","1920x1080","","9974.70000000298","55.03","img/117/4/2/bw/001.png","","","complex"
"","","","","","animation","67","1022859","0.0-67.0","1920x1080","","10999.10000000149","32.80","img/314/5.5/2/bw/001.png","","","complex"
"","","","","","animation","68","1032763","0.0-68.0","1920x1080","","9900.70000000298","35.32","img/314/5.5/1/bw/001.png","","","complex"
"","","","","","animation","69","1037420","0.0-69.0","1920x1080","","4656.0999999940395","57.41","img/238/3.5/0.5/bw/001.png","","","complex"
"","","","","","animation","70","1052499","0.0-70.0","1920x1080","","15077.60000000149","30.03","img/314/5.5/0.66667/bw/001.png","","","complex"
"","","","","","animation","71","1061653","0.0-71.0","1920x1080","","9152.60000000149","25","img/117/4/1.5/bw/001.png","","","complex"
"","","","","","animation","72","1066411","0.0-72.0","1920x1080","","4756.5","59.92","img/117/3.5/0.66667/bw/001.png","","","complex"
"","","","","","animation","73","1074637","0.0-73.0","1920x1080","","8225","48.81","img/117/4.5/1/bw/001.png","","","complex"
"","","","","","animation","74","1082146","0.0-74.0","1920x1080","","7509","28.31","img/314/5.5/1.5/bw/001.png","","","complex"
"","","","","","animation","75","1091409","0.0-75.0","1920x1080","","9262.5","51.85","img/117/4.5/0.66667/bw/001.png","","","complex"
"","","","","","animation","76","1100753","0.0-76.0","1920x1080","","9342.80000000447","28.84","img/117/4.5/2/bw/001.png","","","complex"
"","","","","","animation","77","1104562","0.0-77.0","1920x1080","","3807.39999999851","20.11","img/238/4.5/2/bw/001.png","","","complex"
"","","","","","animation","78","1107714","0.0-78.0","1920x1080","","3150.7000000029802","30.95","img/238/3.5/1.5/bw/001.png","","","complex"
"","","","","","animation","79","1118121","0.0-79.0","1920x1080","","10406.20000000298","29.89","img/238/5.5/2/bw/001.png","","","complex"
"","","","","","animation","80","1123553","0.0-80.0","1920x1080","","5430.80000000447","52.38","img/314/4/0.5/bw/001.png","","","complex"
"","","","","","animation","81","1129330","0.0-81.0","1920x1080","","5775.39999999851","31","img/314/3.5/2/bw/001.png","","","complex"
"","","","","","html-button-response","82","1151057","0.0-82.0","1920x1080","","21720.90000000596","","<div class=""intro"">You are about to view a new series of animations.<br><br></div><div class=""intro"">You will evaluate them based on a different descriptor.<br><br></div><div class=""intro"">Move the slider to indicate how <strong style=""text-transform:capitalize"">APPEALING</strong> you find each animation.<br><br></div><div class=""intro"">0 = Least Appealing<br></div><div class=""intro"">1 = Most Appealing<br><br></div><div class=""intro"">Remember to use the <strong><em>entire range</em></strong> of the slider to make your ratings.<br></div><div class=""intro"">Please <strong><em>take your time</em></strong> and carefully consider each rating you make.<br><br></div>","0","",""
"","","","","","call-function","83","1151058","0.0-83.0","1920x1080","","","","","","",""
"","","","","","animation","84","1166397","0.0-84.0","1920x1080","","15338.10000000149","55","img/238/4/2/bw/001.png","","","appealing"
"","","","","","animation","85","1171439","0.0-85.0","1920x1080","","5040","34.66","img/117/4.5/0.5/bw/001.png","","","appealing"
"","","","","","animation","86","1176806","0.0-86.0","1920x1080","","5363.39999999851","40.08","img/314/4.5/0.5/bw/001.png","","","appealing"
"","","","","","animation","87","1183856","0.0-87.0","1920x1080","","7048.29999999702","73.02","img/117/5.5/0.5/bw/001.png","","","appealing"
"","","","","","animation","88","1188309","0.0-88.0","1920x1080","","4451","27.91","img/238/3.5/1/bw/001.png","","","appealing"
"","","","","","animation","89","1193094","0.0-89.0","1920x1080","","4783.4000000059605","34.79","img/117/3.5/0.66667/bw/001.png","","","appealing"
"","","","","","animation","90","1203779","0.0-90.0","1920x1080","","10686.5","37.17","img/238/4/0.5/bw/001.png","","","appealing"
"","","","","","animation","91","1213411","0.0-91.0","1920x1080","","9630.80000000447","82.01","img/238/5.5/1/bw/001.png","","","appealing"
"","","","","","animation","92","1218795","0.0-92.0","1920x1080","","5381.60000000149","61.51","img/314/4.5/1.5/bw/001.png","","","appealing"
"","","","","","animation","93","1222636","0.0-93.0","1920x1080","","3840.10000000149","10.05","img/314/2.5/1/bw/001.png","","","appealing"
"","","","","","animation","94","1226963","0.0-94.0","1920x1080","","4325.5","15.61","img/314/3.5/1/bw/001.png","","","appealing"
"","","","","","animation","95","1236070","0.0-95.0","1920x1080","","9105.29999999702","72.88","img/117/5.5/1.5/bw/001.png","","","appealing"
"","","","","","animation","96","1241186","0.0-96.0","1920x1080","","5114.0999999940395","18.78","img/314/2.5/2/bw/001.png","","","appealing"
"","","","","","animation","97","1255115","0.0-97.0","1920x1080","","13927","88","img/117/5.5/2/bw/001.png","","","appealing"
"","","","","","animation","98","1259330","0.0-98.0","1920x1080","","4214.30000000447","8","img/314/2.5/0.66667/bw/001.png","","","appealing"
"","","","","","animation","99","1268978","0.0-99.0","1920x1080","","9646.90000000596","62","img/314/5.5/1/bw/001.png","","","appealing"
"","","","","","animation","100","1276530","0.0-100.0","1920x1080","","7551.10000000149","55.16","img/117/4.5/1.5/bw/001.png","","","appealing"
"","","","","","animation","101","1281178","0.0-101.0","1920x1080","","4646.60000000149","6","img/117/2.5/0.5/bw/001.png","","","appealing"
"","","","","","animation","102","1284746","0.0-102.0","1920x1080","","3567.0999999940395","12.96","img/117/2.5/1/bw/001.png","","","appealing"
"","","","","","animation","103","1290194","0.0-103.0","1920x1080","","5446.10000000149","46.69","img/117/4.5/1/bw/001.png","","","appealing"
"","","","","","animation","104","1297554","0.0-104.0","1920x1080","","7358.5","58","img/117/4/1.5/bw/001.png","","","appealing"
"","","","","","animation","105","1304402","0.0-105.0","1920x1080","","6846.89999999851","40.34","img/117/4.5/2/bw/001.png","","","appealing"
"","","","","","animation","106","1315842","0.0-106.0","1920x1080","","11439.40000000596","35.58","img/314/4.5/1/bw/001.png","","","appealing"
"","","","","","animation","107","1337025","0.0-107.0","1920x1080","","21182.20000000298","80.29","img/238/5.5/1.5/bw/001.png","","","appealing"
"","","","","","animation","108","1344009","0.0-108.0","1920x1080","","6978.60000000149","66","img/117/5.5/1/bw/001.png","","","appealing"
"","","","","","animation","109","1348516","0.0-109.0","1920x1080","","4505.79999999702","42.86","img/314/3.5/1.5/bw/001.png","","","appealing"
"","","","","","animation","110","1354225","0.0-110.0","1920x1080","","5708","33.73","img/314/4.5/2/bw/001.png","","","appealing"
"","","","","","animation","111","1360117","0.0-111.0","1920x1080","","5891","41.67","img/238/4/1/bw/001.png","","","appealing"
"","","","","","animation","112","1364457","0.0-112.0","1920x1080","","4339.0999999940395","21.96","img/314/4.5/0.66667/bw/001.png","","","appealing"
"","","","","","animation","113","1371393","0.0-113.0","1920x1080","","6935","65","img/238/5.5/0.66667/bw/001.png","","","appealing"
"","","","","","animation","114","1379939","0.0-114.0","1920x1080","","8542.60000000149","37","img/238/4.5/0.66667/bw/001.png","","","appealing"
"","","","","","animation","115","1383502","0.0-115.0","1920x1080","","3561.2000000029802","24.74","img/314/3.5/0.66667/bw/001.png","","","appealing"
"","","","","","animation","116","1386452","0.0-116.0","1920x1080","","2949.10000000149","12.57","img/238/2.5/0.66667/bw/001.png","","","appealing"
"","","","","","animation","117","1388995","0.0-117.0","1920x1080","","2542","14.68","img/314/2.5/1.5/bw/001.png","","","appealing"
"","","","","","animation","118","1392787","0.0-118.0","1920x1080","","3790.60000000149","35.32","img/314/4/2/bw/001.png","","","appealing"
"","","","","","animation","119","1398587","0.0-119.0","1920x1080","","5799","46.83","img/238/4.5/0.5/bw/001.png","","","appealing"
"","","","","","animation","120","1401787","0.0-120.0","1920x1080","","3199.10000000149","17","img/238/2.5/1/bw/001.png","","","appealing"
"","","","","","animation","121","1407491","0.0-121.0","1920x1080","","5702.79999999702","12.70","img/238/3.5/1.5/bw/001.png","","","appealing"
"","","","","","animation","122","1412492","0.0-122.0","1920x1080","","4998.69999999553","32.94","img/314/4/1.5/bw/001.png","","","appealing"
"","","","","","animation","123","1415780","0.0-123.0","1920x1080","","3286.2999999970198","36.64","img/314/3.5/2/bw/001.png","","","appealing"
"","","","","","animation","124","1418644","0.0-124.0","1920x1080","","2862.7999999970198","18.39","img/117/2.5/0.66667/bw/001.png","","","appealing"
"","","","","","animation","125","1424044","0.0-125.0","1920x1080","","5398.89999999851","67.59","img/238/4.5/2/bw/001.png","","","appealing"
"","","","","","animation","126","1428092","0.0-126.0","1920x1080","","4046.6999999955297","39","img/117/3.5/2/bw/001.png","","","appealing"
"","","","","","animation","127","1433755","0.0-127.0","1920x1080","","5662.20000000298","19.44","img/238/2.5/2/bw/001.png","","","appealing"
"","","","","","animation","128","1440318","0.0-128.0","1920x1080","","6563","74.87","img/117/5.5/0.66667/bw/001.png","","","appealing"
"","","","","","animation","129","1451442","0.0-129.0","1920x1080","","11122.79999999702","27.65","img/238/3.5/0.5/bw/001.png","","","appealing"
"","","","","","animation","130","1454770","0.0-130.0","1920x1080","","3326.7000000029802","16.93","img/238/2.5/0.5/bw/001.png","","","appealing"
"","","","","","animation","131","1483370","0.0-131.0","1920x1080","","28598.89999999851","69.18","img/314/5.5/2/bw/001.png","","","appealing"
"","","","","","animation","132","1486018","0.0-132.0","1920x1080","","2643.5","7.80","img/314/2.5/0.5/bw/001.png","","","appealing"
"","","","","","animation","133","1488354","0.0-133.0","1920x1080","","2335.10000000149","14.29","img/238/3.5/0.66667/bw/001.png","","","appealing"
"","","","","","animation","134","1493706","0.0-134.0","1920x1080","","5351.39999999851","30.03","img/117/4/0.5/bw/001.png","","","appealing"
"","","","","","animation","135","1497418","0.0-135.0","1920x1080","","3710.7999999970198","24.87","img/314/4/1/bw/001.png","","","appealing"
"","","","","","animation","136","1501416","0.0-136.0","1920x1080","","3998.8000000044703","80.16","img/314/5.5/1.5/bw/001.png","","","appealing"
"","","","","","animation","137","1505840","0.0-137.0","1920x1080","","4423.20000000298","35.85","img/314/4/0.5/bw/001.png","","","appealing"
"","","","","","animation","138","1512704","0.0-138.0","1920x1080","","6863","47.35","img/314/5.5/0.5/bw/001.png","","","appealing"
"","","","","","animation","139","1521408","0.0-139.0","1920x1080","","8701.29999999702","28.44","img/117/4/2/bw/001.png","","","appealing"
"","","","","","animation","140","1526216","0.0-140.0","1920x1080","","4806.70000000298","75.66","img/238/5.5/0.5/bw/001.png","","","appealing"
"","","","","","animation","141","1531024","0.0-141.0","1920x1080","","4806.70000000298","72","img/314/5.5/0.66667/bw/001.png","","","appealing"
"","","","","","animation","142","1536104","0.0-142.0","1920x1080","","5078.60000000149","14.81","img/117/3.5/1/bw/001.png","","","appealing"
"","","","","","animation","143","1539649","0.0-143.0","1920x1080","","3542.8000000044703","26.19","img/117/4/1/bw/001.png","","","appealing"
"","","","","","animation","144","1547216","0.0-144.0","1920x1080","","7566.60000000149","87.17","img/238/5.5/2/bw/001.png","","","appealing"
"","","","","","animation","145","1550040","0.0-145.0","1920x1080","","2823.3000000044703","3.97","img/117/2.5/1.5/bw/001.png","","","appealing"
"","","","","","animation","146","1553600","0.0-146.0","1920x1080","","3558.2000000029802","20.50","img/238/4.5/1.5/bw/001.png","","","appealing"
"","","","","","animation","147","1556266","0.0-147.0","1920x1080","","2664.39999999851","28.97","img/117/3.5/1.5/bw/001.png","","","appealing"
"","","","","","animation","148","1558983","0.0-148.0","1920x1080","","2717.2000000029802","6.75","img/238/2.5/1.5/bw/001.png","","","appealing"
"","","","","","animation","149","1565232","0.0-149.0","1920x1080","","6247.5999999940395","28.44","img/117/3.5/0.5/bw/001.png","","","appealing"
"","","","","","animation","150","1569720","0.0-150.0","1920x1080","","4486.80000000447","25.40","img/238/4/1.5/bw/001.png","","","appealing"
"","","","","","animation","151","1587583","0.0-151.0","1920x1080","","17862.60000000149","30.95","img/314/4/0.66667/bw/001.png","","","appealing"
"","","","","","animation","152","1589949","0.0-152.0","1920x1080","","2364.7000000029802","17.20","img/314/3.5/0.5/bw/001.png","","","appealing"
"","","","","","animation","153","1594531","0.0-153.0","1920x1080","","4580.89999999851","48","img/238/3.5/2/bw/001.png","","","appealing"
"","","","","","animation","154","1597464","0.0-154.0","1920x1080","","2932.10000000149","41.93","img/117/4.5/0.66667/bw/001.png","","","appealing"
"","","","","","animation","155","1600898","0.0-155.0","1920x1080","","3432.6999999955297","39.02","img/238/4/0.66667/bw/001.png","","","appealing"
"","","","","","animation","156","1606472","0.0-156.0","1920x1080","","5573","29","img/117/4/0.66667/bw/001.png","","","appealing"
"","","","","","animation","157","1612648","0.0-157.0","1920x1080","","6174.80000000447","50.26","img/117/2.5/2/bw/001.png","","","appealing"
"","","","","","animation","158","1620810","0.0-158.0","1920x1080","","8159.10000000149","61.64","img/238/4.5/1/bw/001.png","","","appealing"
"","","","","","html-button-response","159","1647970","0.0-159.0","1920x1080","","27158.70000000298","","<div class=""intro"">You are about to view a new series of animations.<br><br></div><div class=""intro"">You will evaluate them based on a different descriptor.<br><br></div><div class=""intro"">Move the slider to indicate how <strong style=""text-transform:capitalize"">INTERESTING</strong> you find each animation.<br><br></div><div class=""intro"">0 = Least Interesting<br></div><div class=""intro"">1 = Most Interesting<br><br></div><div class=""intro"">Remember to use the <strong><em>entire range</em></strong> of the slider to make your ratings.<br></div><div class=""intro"">Please <strong><em>take your time</em></strong> and carefully consider each rating you make.<br><br></div>","0","",""
"","","","","","call-function","160","1647974","0.0-160.0","1920x1080","","","","","","",""
"","","","","","animation","161","1658338","0.0-161.0","1920x1080","","10362.89999999851","58.07","img/314/5.5/2/bw/001.png","","","interesting"
"","","","","","animation","162","1663267","0.0-162.0","1920x1080","","4927.39999999851","36.51","img/238/2.5/0.66667/bw/001.png","","","interesting"
"","","","","","animation","163","1670458","0.0-163.0","1920x1080","","7190.39999999851","22.88","img/117/2.5/1.5/bw/001.png","","","interesting"
"","","","","","animation","164","1678793","0.0-164.0","1920x1080","","8334.69999999553","51.72","img/117/4/2/bw/001.png","","","interesting"
"","","","","","animation","165","1684225","0.0-165.0","1920x1080","","5430.5","49.21","img/314/4/2/bw/001.png","","","interesting"
"","","","","","animation","166","1736273","0.0-166.0","1920x1080","","52046.19999999553","33.33","img/314/5.5/1.5/bw/001.png","","","interesting"
"","","","","","animation","167","1740849","0.0-167.0","1920x1080","","4575.20000000298","35.85","img/117/3.5/1/bw/001.png","","","interesting"
"","","","","","animation","168","1743904","0.0-168.0","1920x1080","","3054.5","35.32","img/117/4/1/bw/001.png","","","interesting"
"","","","","","animation","169","1755168","0.0-169.0","1920x1080","","11262.70000000298","67.59","img/238/5.5/1.5/bw/001.png","","","interesting"
"","","","","","animation","170","1760104","0.0-170.0","1920x1080","","4935.29999999702","37.96","img/314/3.5/2/bw/001.png","","","interesting"
"","","","","","animation","171","1765514","0.0-171.0","1920x1080","","5408.89999999851","30.95","img/314/4/1/bw/001.png","","","interesting"
"","","","","","animation","172","1770088","0.0-172.0","1920x1080","","4571.89999999851","39.81","img/238/4/2/bw/001.png","","","interesting"
"","","","","","animation","173","1776752","0.0-173.0","1920x1080","","6663","61.24","img/314/5.5/0.5/bw/001.png","","","interesting"
"","","","","","animation","174","1784065","0.0-174.0","1920x1080","","7311.5","52","img/238/4.5/0.66667/bw/001.png","","","interesting"
"","","","","","animation","175","1789120","0.0-175.0","1920x1080","","5054.19999999553","29.63","img/117/4/1.5/bw/001.png","","","interesting"
"","","","","","animation","176","1795920","0.0-176.0","1920x1080","","6799.10000000149","60.85","img/238/4.5/0.5/bw/001.png","","","interesting"
"","","","","","animation","177","1801335","0.0-177.0","1920x1080","","5414.89999999851","14.02","img/314/2.5/2/bw/001.png","","","interesting"
"","","","","","animation","178","1806351","0.0-178.0","1920x1080","","5014.39999999851","25.40","img/238/3.5/1.5/bw/001.png","","","interesting"
"","","","","","animation","179","1812639","0.0-179.0","1920x1080","","6286.89999999851","65.74","img/314/4.5/0.66667/bw/001.png","","","interesting"
"","","","","","animation","180","1818255","0.0-180.0","1920x1080","","5614.60000000149","58.86","img/314/4.5/1/bw/001.png","","","interesting"
"","","","","","animation","181","1824671","0.0-181.0","1920x1080","","6414.79999999702","30.82","img/117/4.5/0.5/bw/001.png","","","interesting"
"","","","","","animation","182","1831487","0.0-182.0","1920x1080","","6814.39999999851","38.49","img/238/4/0.5/bw/001.png","","","interesting"
"","","","","","animation","183","1837747","0.0-183.0","1920x1080","","6258.60000000149","36.38","img/314/4.5/0.5/bw/001.png","","","interesting"
"","","","","","animation","184","1850871","0.0-184.0","1920x1080","","13123.29999999702","22","img/238/5.5/2/bw/001.png","","","interesting"
"","","","","","animation","185","1855080","0.0-185.0","1920x1080","","4207.60000000149","30.82","img/238/4.5/1.5/bw/001.png","","","interesting"
"","","","","","animation","186","1858583","0.0-186.0","1920x1080","","3501.8000000044703","16.67","img/238/2.5/1/bw/001.png","","","interesting"
"","","","","","animation","187","1862650","0.0-187.0","1920x1080","","4061.8000000044703","17.72","img/117/2.5/0.5/bw/001.png","","","interesting"
"","","","","","animation","188","1865643","0.0-188.0","1920x1080","","2991","22.35","img/314/2.5/1.5/bw/001.png","","","interesting"
"","","","","","animation","189","1873026","0.0-189.0","1920x1080","","7382.69999999553","41.53","img/238/3.5/2/bw/001.png","","","interesting"
"","","","","","animation","190","1883149","0.0-190.0","1920x1080","","10121.60000000149","62.70","img/238/3.5/1/bw/001.png","","","interesting"
"","","","","","animation","191","1886970","0.0-191.0","1920x1080","","3820.10000000149","36.24","img/238/4/1.5/bw/001.png","","","interesting"
"","","","","","animation","192","1892750","0.0-192.0","1920x1080","","5778.0999999940395","55.95","img/238/3.5/0.5/bw/001.png","","","interesting"
"","","","","","animation","193","1906155","0.0-193.0","1920x1080","","13403.70000000298","43.12","img/117/5.5/1.5/bw/001.png","","","interesting"
"","","","","","animation","194","1909901","0.0-194.0","1920x1080","","3745.2999999970198","31.35","img/314/3.5/0.66667/bw/001.png","","","interesting"
"","","","","","animation","195","1915691","0.0-195.0","1920x1080","","5788.30000000447","60.98","img/238/4.5/2/bw/001.png","","","interesting"
"","","","","","animation","196","1921049","0.0-196.0","1920x1080","","5358.20000000298","63.10","img/117/5.5/0.5/bw/001.png","","","interesting"
"","","","","","animation","197","1924266","0.0-197.0","1920x1080","","3215.60000000149","20.63","img/314/2.5/1/bw/001.png","","","interesting"
"","","","","","animation","198","1937999","0.0-198.0","1920x1080","","13731.39999999851","41.14","img/238/4.5/1/bw/001.png","","","interesting"
"","","","","","animation","199","1952899","0.0-199.0","1920x1080","","14898.79999999702","57","img/238/5.5/0.66667/bw/001.png","","","interesting"
"","","","","","animation","200","1960383","0.0-200.0","1920x1080","","7483.60000000149","22.35","img/314/4.5/1.5/bw/001.png","","","interesting"
"","","","","","animation","201","1965216","0.0-201.0","1920x1080","","4830.70000000298","24.47","img/314/3.5/1/bw/001.png","","","interesting"
"","","","","","animation","202","1976970","0.0-202.0","1920x1080","","11752.80000000447","32.14","img/238/5.5/1/bw/001.png","","","interesting"
"","","","","","animation","203","1982497","0.0-203.0","1920x1080","","5527.29999999702","56.48","img/117/5.5/2/bw/001.png","","","interesting"
"","","","","","animation","204","1992504","0.0-204.0","1920x1080","","10006.10000000149","45","img/314/5.5/0.66667/bw/001.png","","","interesting"
"","","","","","animation","205","1999800","0.0-205.0","1920x1080","","7292.69999999553","62.70","img/117/3.5/0.5/bw/001.png","","","interesting"
"","","","","","animation","206","2002816","0.0-206.0","1920x1080","","3014.7999999970198","17","img/238/2.5/1.5/bw/001.png","","","interesting"
"","","","","","animation","207","2008000","0.0-207.0","1920x1080","","5182.89999999851","53.70","img/238/4/0.66667/bw/001.png","","","interesting"
"","","","","","animation","208","2012297","0.0-208.0","1920x1080","","4295.39999999851","34.52","img/117/3.5/2/bw/001.png","","","interesting"
"","","","","","animation","209","2017846","0.0-209.0","1920x1080","","5547.70000000298","76.19","img/117/4.5/0.66667/bw/001.png","","","interesting"
"","","","","","animation","210","2022272","0.0-210.0","1920x1080","","4424.89999999851","17.46","img/238/2.5/0.5/bw/001.png","","","interesting"
"","","","","","animation","211","2032384","0.0-211.0","1920x1080","","10110.10000000149","56.48","img/314/4.5/2/bw/001.png","","","interesting"
"","","","","","animation","212","2042968","0.0-212.0","1920x1080","","10582.5","9.26","img/117/2.5/2/bw/001.png","","","interesting"
"","","","","","animation","213","2045736","0.0-213.0","1920x1080","","2766.7000000029802","13.49","img/117/2.5/1/bw/001.png","","","interesting"
"","","","","","animation","214","2053936","0.0-214.0","1920x1080","","8198.79999999702","58.33","img/314/4/1.5/bw/001.png","","","interesting"
"","","","","","animation","215","2059180","0.0-215.0","1920x1080","","5242.29999999702","57.01","img/117/3.5/0.66667/bw/001.png","","","interesting"
"","","","","","animation","216","2061856","0.0-216.0","1920x1080","","2675","10.98","img/117/2.5/0.66667/bw/001.png","","","interesting"
"","","","","","animation","217","2066599","0.0-217.0","1920x1080","","4742.29999999702","60.32","img/117/4/0.5/bw/001.png","","","interesting"
"","","","","","animation","218","2069847","0.0-218.0","1920x1080","","3246.6999999955297","41.01","img/117/3.5/1.5/bw/001.png","","","interesting"
"","","","","","animation","219","2075583","0.0-219.0","1920x1080","","5734.79999999702","77.51","img/117/5.5/1/bw/001.png","","","interesting"
"","","","","","animation","220","2078968","0.0-220.0","1920x1080","","3382.8000000044703","66.40","img/117/4/0.66667/bw/001.png","","","interesting"
"","","","","","animation","221","2085597","0.0-221.0","1920x1080","","6628.10000000149","31.35","img/314/3.5/1.5/bw/001.png","","","interesting"
"","","","","","animation","222","2097713","0.0-222.0","1920x1080","","12114.19999999553","39.15","img/314/4/0.66667/bw/001.png","","","interesting"
"","","","","","animation","223","2105417","0.0-223.0","1920x1080","","7701.39999999851","38.62","img/117/4.5/1.5/bw/001.png","","","interesting"
"","","","","","animation","224","2115765","0.0-224.0","1920x1080","","10346.79999999702","66.40","img/117/5.5/0.66667/bw/001.png","","","interesting"
"","","","","","animation","225","2118401","0.0-225.0","1920x1080","","2634.7999999970198","13.36","img/314/2.5/0.66667/bw/001.png","","","interesting"
"","","","","","animation","226","2134898","0.0-226.0","1920x1080","","16495.70000000298","35.85","img/117/4.5/2/bw/001.png","","","interesting"
"","","","","","animation","227","2138506","0.0-227.0","1920x1080","","3606.7000000029802","55.42","img/314/4/0.5/bw/001.png","","","interesting"
"","","","","","animation","228","2145314","0.0-228.0","1920x1080","","6806.80000000447","64.55","img/238/5.5/0.5/bw/001.png","","","interesting"
"","","","","","animation","229","2153474","0.0-229.0","1920x1080","","8156.39999999851","36.64","img/238/4/1/bw/001.png","","","interesting"
"","","","","","animation","230","2156848","0.0-230.0","1920x1080","","3372.7000000029802","9.52","img/238/2.5/2/bw/001.png","","","interesting"
"","","","","","animation","231","2165688","0.0-231.0","1920x1080","","8839.39999999851","42.20","img/117/4.5/1/bw/001.png","","","interesting"
"","","","","","animation","232","2174563","0.0-232.0","1920x1080","","8873.70000000298","58.99","img/314/3.5/0.5/bw/001.png","","","interesting"
"","","","","","animation","233","2177713","0.0-233.0","1920x1080","","3148.60000000149","8.86","img/314/2.5/0.5/bw/001.png","","","interesting"
"","","","","","animation","234","2188546","0.0-234.0","1920x1080","","10832","50","img/314/5.5/1/bw/001.png","","","interesting"
"","","","","","animation","235","2194963","0.0-235.0","1920x1080","","6415.10000000149","67.46","img/238/3.5/0.66667/bw/001.png","","","interesting"
"","","","","","html-button-response","236","2220545","0.0-236.0","1920x1080","","25572.39999999851","","<div class=""intro"">You are about to view a new series of animations.<br><br></div><div class=""intro"">You will evaluate them based on a different descriptor.<br><br></div><div class=""intro"">Move the slider to indicate how <strong style=""text-transform:capitalize"">NATURAL</strong> you find each animation.<br><br></div><div class=""intro"">0 = Least Natural<br></div><div class=""intro"">1 = Most Natural<br><br></div><div class=""intro"">Remember to use the <strong><em>entire range</em></strong> of the slider to make your ratings.<br></div><div class=""intro"">Please <strong><em>take your time</em></strong> and carefully consider each rating you make.<br><br></div>","0","",""
"","","","","","call-function","237","2220548","0.0-237.0","1920x1080","","","","","","",""
"","","","","","animation","238","2229155","0.0-238.0","1920x1080","","8606","12.83","img/117/2.5/2/bw/001.png","","","natural"
"","","","","","animation","239","2237571","0.0-239.0","1920x1080","","8413.89999999851","38.36","img/314/4/0.66667/bw/001.png","","","natural"
"","","","","","animation","240","2243937","0.0-240.0","1920x1080","","6364.70000000298","48.28","img/314/4/2/bw/001.png","","","natural"
"","","","","","animation","241","2249672","0.0-241.0","1920x1080","","5732.60000000149","37.57","img/117/3.5/0.66667/bw/001.png","","","natural"
"","","","","","animation","242","2254604","0.0-242.0","1920x1080","","4930.89999999851","15.48","img/117/2.5/0.5/bw/001.png","","","natural"
"","","","","","animation","243","2259992","0.0-243.0","1920x1080","","5387.10000000149","56.75","img/117/4.5/2/bw/001.png","","","natural"
"","","","","","animation","244","2267544","0.0-244.0","1920x1080","","7550.10000000149","42.06","img/314/4/0.5/bw/001.png","","","natural"
"","","","","","animation","245","2273254","0.0-245.0","1920x1080","","5708.60000000149","52.91","img/314/3.5/2/bw/001.png","","","natural"
"","","","","","animation","246","2279232","0.0-246.0","1920x1080","","5981.80000000447","31.88","img/314/3.5/1/bw/001.png","","","natural"
"","","","","","animation","247","2285555","0.0-247.0","1920x1080","","6321.80000000447","68.65","img/238/5.5/0.66667/bw/001.png","","","natural"
"","","","","","animation","248","2292123","0.0-248.0","1920x1080","","6566.60000000149","56","img/117/4/1.5/bw/001.png","","","natural"
"","","","","","animation","249","2296882","0.0-249.0","1920x1080","","4756.5","48.81","img/238/4/1.5/bw/001.png","","","natural"
"","","","","","animation","250","2305866","0.0-250.0","1920x1080","","8982.80000000447","60.58","img/314/5.5/0.5/bw/001.png","","","natural"
"","","","","","animation","251","2311031","0.0-251.0","1920x1080","","5163.79999999702","9.13","img/117/2.5/0.66667/bw/001.png","","","natural"
"","","","","","animation","252","2316232","0.0-252.0","1920x1080","","5199.39999999851","34.13","img/238/3.5/1/bw/001.png","","","natural"
"","","","","","animation","253","2321398","0.0-253.0","1920x1080","","5164.89999999851","62.17","img/314/4.5/2/bw/001.png","","","natural"
"","","","","","animation","254","2327123","0.0-254.0","1920x1080","","5722","68.12","img/238/4.5/1/bw/001.png","","","natural"
"","","","","","animation","255","2331948","0.0-255.0","1920x1080","","4824","15.08","img/314/3.5/0.5/bw/001.png","","","natural"
"","","","","","animation","256","2335603","0.0-256.0","1920x1080","","3653.2000000029802","7.54","img/238/2.5/0.66667/bw/001.png","","","natural"
"","","","","","animation","257","2339559","0.0-257.0","1920x1080","","3950.8000000044703","31.08","img/238/3.5/0.66667/bw/001.png","","","natural"
"","","","","","animation","258","2355453","0.0-258.0","1920x1080","","15892.60000000149","79.37","img/314/5.5/2/bw/001.png","","","natural"
"","","","","","animation","259","2358369","0.0-259.0","1920x1080","","2914.89999999851","35.19","img/117/3.5/0.5/bw/001.png","","","natural"
"","","","","","animation","260","2362127","0.0-260.0","1920x1080","","3756.7999999970198","52.78","img/117/5.5/0.5/bw/001.png","","","natural"
"","","","","","animation","261","2365375","0.0-261.0","1920x1080","","3246.3000000044703","9.66","img/238/2.5/1/bw/001.png","","","natural"
"","","","","","animation","262","2369436","0.0-262.0","1920x1080","","4058.89999999851","74.60","img/117/5.5/1.5/bw/001.png","","","natural"
"","","","","","animation","263","2372169","0.0-263.0","1920x1080","","2731.9000000059605","13.49","img/238/2.5/0.5/bw/001.png","","","natural"
"","","","","","animation","264","2377703","0.0-264.0","1920x1080","","5532.10000000149","67","img/238/5.5/1.5/bw/001.png","","","natural"
"","","","","","animation","265","2381569","0.0-265.0","1920x1080","","3864.9000000059605","49.34","img/238/3.5/2/bw/001.png","","","natural"
"","","","","","animation","266","2386436","0.0-266.0","1920x1080","","4864.79999999702","59.39","img/238/4.5/0.66667/bw/001.png","","","natural"
"","","","","","animation","267","2393791","0.0-267.0","1920x1080","","7353.9000000059605","33","img/117/3.5/1.5/bw/001.png","","","natural"
"","","","","","animation","268","2403462","0.0-268.0","1920x1080","","9676.89999999851","60.05","img/117/4.5/1/bw/001.png","","","natural"
"","","","","","animation","269","2406151","0.0-269.0","1920x1080","","2688.6999999955297","7.01","img/314/2.5/0.5/bw/001.png","","","natural"
"","","","","","animation","270","2410612","0.0-270.0","1920x1080","","4458.69999999553","45.24","img/314/4/1/bw/001.png","","","natural"
"","","","","","animation","271","2415919","0.0-271.0","1920x1080","","5306.39999999851","55.29","img/238/3.5/1.5/bw/001.png","","","natural"
"","","","","","animation","272","2421545","0.0-272.0","1920x1080","","5623.5","36.51","img/238/2.5/2/bw/001.png","","","natural"
"","","","","","animation","273","2430399","0.0-273.0","1920x1080","","8853","41.01","img/238/3.5/0.5/bw/001.png","","","natural"
"","","","","","animation","274","2436228","0.0-274.0","1920x1080","","5827.10000000149","56.75","img/238/4/2/bw/001.png","","","natural"
"","","","","","animation","275","2439778","0.0-275.0","1920x1080","","3548.7999999970198","8.47","img/238/2.5/1.5/bw/001.png","","","natural"
"","","","","","animation","276","2444719","0.0-276.0","1920x1080","","4939.89999999851","73","img/117/5.5/0.66667/bw/001.png","","","natural"
"","","","","","animation","277","2448611","0.0-277.0","1920x1080","","3889.5","58.47","img/238/4/0.66667/bw/001.png","","","natural"
"","","","","","animation","278","2456411","0.0-278.0","1920x1080","","7798.60000000149","73.68","img/314/5.5/1.5/bw/001.png","","","natural"
"","","","","","animation","279","2463759","0.0-279.0","1920x1080","","7338.5","57","img/238/4.5/1.5/bw/001.png","","","natural"
"","","","","","animation","280","2468502","0.0-280.0","1920x1080","","4742.10000000149","60.98","img/117/4/0.66667/bw/001.png","","","natural"
"","","","","","animation","281","2472919","0.0-281.0","1920x1080","","4415.19999999553","44","img/238/4/1/bw/001.png","","","natural"
"","","","","","animation","282","2483191","0.0-282.0","1920x1080","","10270.89999999851","42.59","img/314/3.5/1.5/bw/001.png","","","natural"
"","","","","","animation","283","2488201","0.0-283.0","1920x1080","","5009.20000000298","66","img/314/4.5/1.5/bw/001.png","","","natural"
"","","","","","animation","284","2491502","0.0-284.0","1920x1080","","3298.7999999970198","8.47","img/314/2.5/2/bw/001.png","","","natural"
"","","","","","animation","285","2498007","0.0-285.0","1920x1080","","6500.79999999702","71.69","img/238/4.5/2/bw/001.png","","","natural"
"","","","","","animation","286","2503543","0.0-286.0","1920x1080","","5534.39999999851","33.99","img/238/4.5/0.5/bw/001.png","","","natural"
"","","","","","animation","287","2507686","0.0-287.0","1920x1080","","4142.20000000298","69.58","img/117/5.5/1/bw/001.png","","","natural"
"","","","","","animation","288","2515335","0.0-288.0","1920x1080","","7647.39999999851","28.04","img/117/3.5/1/bw/001.png","","","natural"
"","","","","","animation","289","2527732","0.0-289.0","1920x1080","","12398.10000000149","73.41","img/117/5.5/2/bw/001.png","","","natural"
"","","","","","animation","290","2532266","0.0-290.0","1920x1080","","4530.10000000149","33.47","img/314/3.5/0.66667/bw/001.png","","","natural"
"","","","","","animation","291","2536615","0.0-291.0","1920x1080","","4347","43.25","img/117/4/0.5/bw/001.png","","","natural"
"","","","","","animation","292","2542149","0.0-292.0","1920x1080","","5533","68.39","img/238/5.5/0.5/bw/001.png","","","natural"
"","","","","","animation","293","2546204","0.0-293.0","1920x1080","","4053.5","13.89","img/314/2.5/1/bw/001.png","","","natural"
"","","","","","animation","294","2556883","0.0-294.0","1920x1080","","10677.10000000149","65.87","img/314/5.5/0.66667/bw/001.png","","","natural"
"","","","","","animation","295","2559892","0.0-295.0","1920x1080","","3008.3000000044703","71.83","img/314/5.5/1/bw/001.png","","","natural"
"","","","","","animation","296","2564468","0.0-296.0","1920x1080","","4573.29999999702","47.09","img/117/3.5/2/bw/001.png","","","natural"
"","","","","","animation","297","2567436","0.0-297.0","1920x1080","","2966.7000000029802","16.27","img/117/2.5/1/bw/001.png","","","natural"
"","","","","","animation","298","2571083","0.0-298.0","1920x1080","","3645.60000000149","22.09","img/314/2.5/0.66667/bw/001.png","","","natural"
"","","","","","animation","299","2575233","0.0-299.0","1920x1080","","4148.60000000149","58.99","img/314/4/1.5/bw/001.png","","","natural"
"","","","","","animation","300","2581354","0.0-300.0","1920x1080","","6123.5","56.88","img/117/4/1/bw/001.png","","","natural"
"","","","","","animation","301","2586001","0.0-301.0","1920x1080","","4644.39999999851","82.67","img/238/5.5/1/bw/001.png","","","natural"
"","","","","","animation","302","2590479","0.0-302.0","1920x1080","","4475.60000000149","39.02","img/117/4/2/bw/001.png","","","natural"
"","","","","","animation","303","2596896","0.0-303.0","1920x1080","","6415","44.84","img/238/4/0.5/bw/001.png","","","natural"
"","","","","","animation","304","2601779","0.0-304.0","1920x1080","","4882.39999999851","60.58","img/117/4.5/1.5/bw/001.png","","","natural"
"","","","","","animation","305","2609396","0.0-305.0","1920x1080","","7615","64.55","img/117/4.5/0.5/bw/001.png","","","natural"
"","","","","","animation","306","2613985","0.0-306.0","1920x1080","","4587.69999999553","18.39","img/314/2.5/1.5/bw/001.png","","","natural"
"","","","","","animation","307","2618946","0.0-307.0","1920x1080","","4958.5","19.58","img/117/2.5/1.5/bw/001.png","","","natural"
"","","","","","animation","308","2629313","0.0-308.0","1920x1080","","10365.39999999851","55.16","img/117/4.5/0.66667/bw/001.png","","","natural"
"","","","","","animation","309","2638017","0.0-309.0","1920x1080","","8702.89999999851","62.57","img/314/4.5/0.5/bw/001.png","","","natural"
"","","","","","animation","310","2642112","0.0-310.0","1920x1080","","4092.60000000149","52.91","img/314/4.5/0.66667/bw/001.png","","","natural"
"","","","","","animation","311","2647562","0.0-311.0","1920x1080","","5448.60000000149","41.67","img/314/4.5/1/bw/001.png","","","natural"
"","","","","","animation","312","2657529","0.0-312.0","1920x1080","","9965.20000000298","65.74","img/238/5.5/2/bw/001.png","","","natural"
"","","","","","html-button-response","313","2684817","0.0-313.0","1920x1080","","27285.70000000298","","<div class=""intro"">You are about to view a new series of animations.<br><br></div><div class=""intro"">You will evaluate them based on a different descriptor.<br><br></div><div class=""intro"">Move the slider to indicate how <strong style=""text-transform:capitalize"">RELAXING</strong> you find each animation.<br><br></div><div class=""intro"">0 = Least Relaxing<br></div><div class=""intro"">1 = Most Relaxing<br><br></div><div class=""intro"">Remember to use the <strong><em>entire range</em></strong> of the slider to make your ratings.<br></div><div class=""intro"">Please <strong><em>take your time</em></strong> and carefully consider each rating you make.<br><br></div>","0","",""
"","","","","","call-function","314","2684821","0.0-314.0","1920x1080","","","","","","",""
"","","","","","animation","315","2691312","0.0-315.0","1920x1080","","6489.79999999702","58.99","img/117/4/1.5/bw/001.png","","","relaxing"
"","","","","","animation","316","2696395","0.0-316.0","1920x1080","","5081.89999999851","45.50","img/238/5.5/0.5/bw/001.png","","","relaxing"
"","","","","","animation","317","2699270","0.0-317.0","1920x1080","","2875.9000000059605","33.47","img/314/3.5/1/bw/001.png","","","relaxing"
"","","","","","animation","318","2704160","0.0-318.0","1920x1080","","4888.10000000149","69.71","img/238/5.5/1/bw/001.png","","","relaxing"
"","","","","","animation","319","2706259","0.0-319.0","1920x1080","","2098","33.33","img/117/4/0.5/bw/001.png","","","relaxing"
"","","","","","animation","320","2710582","0.0-320.0","1920x1080","","4321.5","79.63","img/314/5.5/1.5/bw/001.png","","","relaxing"
"","","","","","animation","321","2714310","0.0-321.0","1920x1080","","3725.5999999940395","57.41","img/117/3.5/2/bw/001.png","","","relaxing"
"","","","","","animation","322","2718726","0.0-322.0","1920x1080","","4415","39.29","img/314/3.5/0.66667/bw/001.png","","","relaxing"
"","","","","","animation","323","2723276","0.0-323.0","1920x1080","","4547.60000000149","73.28","img/238/4.5/2/bw/001.png","","","relaxing"
"","","","","","animation","324","2725722","0.0-324.0","1920x1080","","2445.3000000044703","6.22","img/238/2.5/0.5/bw/001.png","","","relaxing"
"","","","","","animation","325","2728143","0.0-325.0","1920x1080","","2418.7999999970198","20.63","img/117/4.5/0.5/bw/001.png","","","relaxing"
"","","","","","animation","326","2731259","0.0-326.0","1920x1080","","3115.2000000029802","39.42","img/117/5.5/0.66667/bw/001.png","","","relaxing"
"","","","","","animation","327","2733560","0.0-327.0","1920x1080","","2298.5","6.48","img/117/2.5/1.5/bw/001.png","","","relaxing"
"","","","","","animation","328","2743862","0.0-328.0","1920x1080","","10301.29999999702","62","img/117/3.5/1.5/bw/001.png","","","relaxing"
"","","","","","animation","329","2749409","0.0-329.0","1920x1080","","5545.9000000059605","54.50","img/314/3.5/1.5/bw/001.png","","","relaxing"
"","","","","","animation","330","2752687","0.0-330.0","1920x1080","","3276.8000000044703","56.61","img/117/4.5/1.5/bw/001.png","","","relaxing"
"","","","","","animation","331","2755799","0.0-331.0","1920x1080","","3109.5999999940395","25.93","img/314/4.5/0.66667/bw/001.png","","","relaxing"
"","","","","","animation","332","2759266","0.0-332.0","1920x1080","","3462.1999999955297","61.90","img/314/4.5/2/bw/001.png","","","relaxing"
"","","","","","animation","333","2762948","0.0-333.0","1920x1080","","3679.39999999851","4.76","img/117/2.5/1/bw/001.png","","","relaxing"
"","","","","","animation","334","2767014","0.0-334.0","1920x1080","","4065","2.51","img/117/2.5/0.66667/bw/001.png","","","relaxing"
"","","","","","animation","335","2770730","0.0-335.0","1920x1080","","3714.60000000149","5.95","img/238/3.5/0.5/bw/001.png","","","relaxing"
"","","","","","animation","336","2775130","0.0-336.0","1920x1080","","4398.5999999940395","30.29","img/117/4.5/0.66667/bw/001.png","","","relaxing"
"","","","","","animation","337","2778481","0.0-337.0","1920x1080","","3349","12.17","img/238/2.5/1.5/bw/001.png","","","relaxing"
"","","","","","animation","338","2785374","0.0-338.0","1920x1080","","6891.60000000149","55","img/314/4/1.5/bw/001.png","","","relaxing"
"","","","","","animation","339","2789914","0.0-339.0","1920x1080","","4538.5","54.50","img/117/5.5/0.5/bw/001.png","","","relaxing"
"","","","","","animation","340","2792440","0.0-340.0","1920x1080","","2525.3000000044703","25.26","img/314/2.5/1.5/bw/001.png","","","relaxing"
"","","","","","animation","341","2797080","0.0-341.0","1920x1080","","4638.69999999553","45.24","img/314/5.5/0.5/bw/001.png","","","relaxing"
"","","","","","animation","342","2801931","0.0-342.0","1920x1080","","4848.89999999851","64.42","img/117/5.5/1/bw/001.png","","","relaxing"
"","","","","","animation","343","2808623","0.0-343.0","1920x1080","","6690.10000000149","54.50","img/117/4/0.66667/bw/001.png","","","relaxing"
"","","","","","animation","344","2812797","0.0-344.0","1920x1080","","4173.19999999553","4.63","img/314/2.5/0.66667/bw/001.png","","","relaxing"
"","","","","","animation","345","2815748","0.0-345.0","1920x1080","","2947.5999999940395","7","img/238/3.5/0.66667/bw/001.png","","","relaxing"
"","","","","","animation","346","2819676","0.0-346.0","1920x1080","","3931.5","39.81","img/117/4/2/bw/001.png","","","relaxing"
"","","","","","animation","347","2823892","0.0-347.0","1920x1080","","4213.79999999702","53.17","img/314/3.5/2/bw/001.png","","","relaxing"
"","","","","","animation","348","2830912","0.0-348.0","1920x1080","","7019.39999999851","16.80","img/117/3.5/0.5/bw/001.png","","","relaxing"
"","","","","","animation","349","2836913","0.0-349.0","1920x1080","","5997.0999999940395","23.02","img/238/2.5/2/bw/001.png","","","relaxing"
"","","","","","animation","350","2842176","0.0-350.0","1920x1080","","5261.39999999851","60.58","img/314/4.5/1.5/bw/001.png","","","relaxing"
"","","","","","animation","351","2845842","0.0-351.0","1920x1080","","3665.39999999851","30.42","img/314/4.5/0.5/bw/001.png","","","relaxing"
"","","","","","animation","352","2848847","0.0-352.0","1920x1080","","3003","3.44","img/117/2.5/0.5/bw/001.png","","","relaxing"
"","","","","","animation","353","2855559","0.0-353.0","1920x1080","","6710","41.14","img/314/4.5/1/bw/001.png","","","relaxing"
"","","","","","animation","354","2859310","0.0-354.0","1920x1080","","3748.5","49.60","img/238/4/1.5/bw/001.png","","","relaxing"
"","","","","","animation","355","2862742","0.0-355.0","1920x1080","","3431.2000000029802","40.08","img/238/3.5/1.5/bw/001.png","","","relaxing"
"","","","","","animation","356","2873435","0.0-356.0","1920x1080","","10691.89999999851","39.81","img/238/4.5/0.66667/bw/001.png","","","relaxing"
"","","","","","animation","357","2876070","0.0-357.0","1920x1080","","2633.2000000029802","76.72","img/314/5.5/1/bw/001.png","","","relaxing"
"","","","","","animation","358","2878542","0.0-358.0","1920x1080","","2470.7999999970198","18.12","img/117/3.5/0.66667/bw/001.png","","","relaxing"
"","","","","","animation","359","2881408","0.0-359.0","1920x1080","","2865.7999999970198","46.03","img/314/5.5/0.66667/bw/001.png","","","relaxing"
"","","","","","animation","360","2884414","0.0-360.0","1920x1080","","3005.10000000149","34","img/117/3.5/1/bw/001.png","","","relaxing"
"","","","","","animation","361","2888013","0.0-361.0","1920x1080","","3596.9000000059605","39","img/117/4.5/1/bw/001.png","","","relaxing"
"","","","","","animation","362","2890858","0.0-362.0","1920x1080","","2844","40.21","img/238/4/0.66667/bw/001.png","","","relaxing"
"","","","","","animation","363","2894258","0.0-363.0","1920x1080","","3398.4000000059605","33.33","img/238/3.5/1/bw/001.png","","","relaxing"
"","","","","","animation","364","2897575","0.0-364.0","1920x1080","","3314.89999999851","31.22","img/238/4.5/0.5/bw/001.png","","","relaxing"
"","","","","","animation","365","2900308","0.0-365.0","1920x1080","","2732.1999999955297","59.79","img/238/5.5/0.66667/bw/001.png","","","relaxing"
"","","","","","animation","366","2903376","0.0-366.0","1920x1080","","3066.4000000059605","83.47","img/238/5.5/1.5/bw/001.png","","","relaxing"
"","","","","","animation","367","2907417","0.0-367.0","1920x1080","","4038.7999999970198","82.67","img/117/4.5/2/bw/001.png","","","relaxing"
"","","","","","animation","368","2911695","0.0-368.0","1920x1080","","4276.5","84.66","img/117/5.5/2/bw/001.png","","","relaxing"
"","","","","","animation","369","2915797","0.0-369.0","1920x1080","","4100.60000000149","29.89","img/238/4/0.5/bw/001.png","","","relaxing"
"","","","","","animation","370","2918758","0.0-370.0","1920x1080","","2958.8000000044703","41.67","img/117/4/1/bw/001.png","","","relaxing"
"","","","","","animation","371","2922292","0.0-371.0","1920x1080","","3532.39999999851","31.48","img/117/2.5/2/bw/001.png","","","relaxing"
"","","","","","animation","372","2926559","0.0-372.0","1920x1080","","4265.79999999702","83.60","img/238/5.5/2/bw/001.png","","","relaxing"
"","","","","","animation","373","2929445","0.0-373.0","1920x1080","","2884.7999999970198","62.04","img/238/4.5/1.5/bw/001.png","","","relaxing"
"","","","","","animation","374","2932102","0.0-374.0","1920x1080","","2655.5","37.83","img/314/4/0.5/bw/001.png","","","relaxing"
"","","","","","animation","375","2936607","0.0-375.0","1920x1080","","4503.5","77.91","img/314/5.5/2/bw/001.png","","","relaxing"
"","","","","","animation","376","2939998","0.0-376.0","1920x1080","","3387.89999999851","33.73","img/238/3.5/2/bw/001.png","","","relaxing"
"","","","","","animation","377","2943446","0.0-377.0","1920x1080","","3446.39999999851","13.62","img/314/2.5/1/bw/001.png","","","relaxing"
"","","","","","animation","378","2946408","0.0-378.0","1920x1080","","2959.5","2.25","img/238/2.5/1/bw/001.png","","","relaxing"
"","","","","","animation","379","2950210","0.0-379.0","1920x1080","","3800.2000000029802","21.56","img/314/4/1/bw/001.png","","","relaxing"
"","","","","","animation","380","2953943","0.0-380.0","1920x1080","","3731.7000000029802","13.89","img/314/3.5/0.5/bw/001.png","","","relaxing"
"","","","","","animation","381","2961327","0.0-381.0","1920x1080","","7379.10000000149","43.25","img/238/4/1/bw/001.png","","","relaxing"
"","","","","","animation","382","2966494","0.0-382.0","1920x1080","","5165.80000000447","79.10","img/117/5.5/1.5/bw/001.png","","","relaxing"
"","","","","","animation","383","2985230","0.0-383.0","1920x1080","","18734.10000000149","8.07","img/238/2.5/0.66667/bw/001.png","","","relaxing"
"","","","","","animation","384","2993543","0.0-384.0","1920x1080","","8310.40000000596","76.59","img/238/4/2/bw/001.png","","","relaxing"
"","","","","","animation","385","3008337","0.0-385.0","1920x1080","","14782.10000000149","56.61","img/238/4.5/1/bw/001.png","","","relaxing"
"","","","","","animation","386","3011873","0.0-386.0","1920x1080","","3534.1999999955297","25.00","img/314/4/0.66667/bw/001.png","","","relaxing"
"","","","","","animation","387","3017569","0.0-387.0","1920x1080","","5694.79999999702","58","img/314/4/2/bw/001.png","","","relaxing"
"","","","","","animation","388","3022170","0.0-388.0","1920x1080","","4598.5","33.86","img/314/2.5/2/bw/001.png","","","relaxing"
"","","","","","animation","389","3024689","0.0-389.0","1920x1080","","2517.5","3.44","img/314/2.5/0.5/bw/001.png","","","relaxing"
"","","","","","html-button-response","390","3075770","0.0-390.0","1920x1080","","51079.5","","<strong>Study Debriefing</strong><br><p class=""debrief""><strong>Background:</strong> The patterns you rated are called <em>fractals</em>. The term fractal describes a class of irregular curves or shapes for which any suitably chosen part is similar in shape to a given larger or smaller part when magnified or reduced to the same size. Fractal properties are found throughout the natural and manmade world. The series of animations you saw today displayed animated fractal patterns of a varying complexity.</p><p class=""debrief""><strong>Purpose of this study:</strong> We hope to better understand how the perception of static fractals differs from the perception of animated fractals, and how the speed of the animated patterns influences people&apos;s perception of them. Fractals allow us to study the perception of aesthetic properties (e.g. the perceived level of beauty in an image) without using recognizable content, which makes them an excellent tool for studying abstract aesthetic judgement.</p><p class=""debrief""><strong>Your part:</strong> Your participation has helped us to further understand how humans perceive these patterns across different levels of speed and complexity. This research with allow us to better understand how the visual system and brain process our ever-changing visual environments.<p class=""debrief""><strong>Feedback and Further information:</strong> If you have additional questions about this study, please feel free to ask the researcher, Nathan Gonzales-Hess at nhess @ uoregon.edu. If you have any questions concerning your rights as a research participant, please contact Research Compliance Services, 5237 University of Oregon, Eugene, OR 97403, 541-346-2510, or email researchCompliance @ uoregon.edu. You can also email the Human Subjects Coordinator for psychology and linguistics research at hscoord @ uoregon.edu. ","0","",""
"","","","","","html-button-response","391","3080489","0.0-391.0","1920x1080","","4715.399999991059","","Thank you for participating in this study. <br>Please click below to finish the experiment and submit your responses.<br><br>","0","",""
"true","","","","","fullscreen","392","3081512","0.0-392.0","1920x1080","12:19 13/10/2022","","","","","",""
