"success","timeout","failed_images","failed_audio","failed_video","trial_type","trial_index","time_elapsed","internal_node_id","resolution","timeStamp","rt","response","stimulus","button_pressed","value","descriptor"
"true","false","[]","[]","[]","preload","0","35674","0.0-0.0","1920x1080","","","","","","",""
"true","false","[]","[]","[]","preload","1","77735","0.0-1.0","1920x1080","","","","","","",""
"true","false","[]","[]","[]","preload","2","101213","0.0-2.0","1920x1080","","","","","","",""
"true","","","","","fullscreen","3","126774","0.0-3.0","1920x1080","15:7 26/10/2022","","","","","",""
"","","","","","survey-html-form","4","134163","0.0-4.0","1920x1080","","7385.899999999965","{""age"":""19"",""gender"":""male""}","","","",""
"","","","","","html-button-response","5","170571","0.0-5.0","1920x1080","","36406.600000000035","","<div class=""complex"">You are going to see a series of animations.<br><br></div><div class=""complex"">Move the slider to indicate how <strong style=""text-transform:capitalize"">COMPLEX</strong> you find each animation.<br><br></div><div class=""complex"">0 = Least Complex<br></div><div class=""complex"">1 = Most Complex<br><br></div><div class=""complex"">Remember to use the <strong><em>entire range</em></strong> of the slider to make your ratings.<br></div><div class=""complex"">Please <strong><em>take your time</em></strong> and carefully consider each rating you make.<br><br></div><div class=""complex"">The study has five sections and will take about 45 minutes to complete.<br><br></div>","0","",""
"","","","","","call-function","6","170571","0.0-6.0","1920x1080","","","","","","",""
"","","","","","animation","7","239666","0.0-7.0","1920x1080","","69092.20000000001","35","img/117/5.5/2/bw/001.png","","","complex"
"","","","","","animation","8","290985","0.0-8.0","1920x1080","","51325.80000000002","27","img/238/5.5/2/bw/001.png","","","complex"
"","","","","","animation","9","322766","0.0-9.0","1920x1080","","31783","49.74","img/314/5.5/0.66667/bw/001.png","","","complex"
"","","","","","animation","10","348934","0.0-10.0","1920x1080","","26167","65.34","img/238/4.5/1/bw/001.png","","","complex"
"","","","","","animation","11","416094","0.0-11.0","1920x1080","","67167","77","img/117/2.5/1.5/bw/001.png","","","complex"
"","","","","","animation","12","435653","0.0-12.0","1920x1080","","19566.900000000023","70","img/238/2.5/2/bw/001.png","","","complex"
"","","","","","animation","13","498454","0.0-13.0","1920x1080","","62798.39999999991","63","img/117/3.5/2/bw/001.png","","","complex"
"","","","","","animation","14","532774","0.0-14.0","1920x1080","","34318.90000000002","14","img/238/5.5/1.5/bw/001.png","","","complex"
"","","","","","animation","15","540246","0.0-15.0","1920x1080","","7471.099999999977","29.89","img/238/5.5/0.5/bw/001.png","","","complex"
"","","","","","animation","16","554484","0.0-16.0","1920x1080","","14239.400000000023","25","img/314/5.5/2/bw/001.png","","","complex"
"","","","","","animation","17","565925","0.0-17.0","1920x1080","","11439.699999999953","63.10","img/314/4.5/1/bw/001.png","","","complex"
"","","","","","animation","18","575428","0.0-18.0","1920x1080","","9502","73.41","img/238/3.5/1/bw/001.png","","","complex"
"","","","","","animation","19","592164","0.0-19.0","1920x1080","","16735.5","45","img/117/5.5/0.5/bw/001.png","","","complex"
"","","","","","animation","20","600708","0.0-20.0","1920x1080","","8543.20000000007","60.45","img/314/4/1/bw/001.png","","","complex"
"","","","","","animation","21","609740","0.0-21.0","1920x1080","","9032.300000000047","67.46","img/238/3.5/0.66667/bw/001.png","","","complex"
"","","","","","animation","22","631067","0.0-22.0","1920x1080","","21326","48","img/238/4.5/2/bw/001.png","","","complex"
"","","","","","animation","23","637251","0.0-23.0","1920x1080","","6183.599999999977","29.63","img/238/5.5/0.66667/bw/001.png","","","complex"
"","","","","","animation","24","649451","0.0-24.0","1920x1080","","12199.099999999977","57.41","img/238/4/2/bw/001.png","","","complex"
"","","","","","animation","25","662259","0.0-25.0","1920x1080","","12806.5","60.85","img/314/4/1.5/bw/001.png","","","complex"
"","","","","","animation","26","666079","0.0-26.0","1920x1080","","3822.5999999999767","61.11","img/314/4/2/bw/001.png","","","complex"
"","","","","","animation","27","676887","0.0-27.0","1920x1080","","10807.300000000047","20.37","img/314/5.5/1.5/bw/001.png","","","complex"
"","","","","","animation","28","694008","0.0-28.0","1920x1080","","17119.599999999977","51.06","img/314/4.5/2/bw/001.png","","","complex"
"","","","","","animation","29","700975","0.0-29.0","1920x1080","","6966.900000000023","87.17","img/238/2.5/0.5/bw/001.png","","","complex"
"","","","","","animation","30","708337","0.0-30.0","1920x1080","","7360.300000000047","68","img/117/4/1/bw/001.png","","","complex"
"","","","","","animation","31","719584","0.0-31.0","1920x1080","","11246.5","56","img/117/4.5/2/bw/001.png","","","complex"
"","","","","","animation","32","727886","0.0-32.0","1920x1080","","8295","84.13","img/314/2.5/0.66667/bw/001.png","","","complex"
"","","","","","animation","33","738382","0.0-33.0","1920x1080","","10494.900000000023","76.72","img/117/3.5/0.66667/bw/001.png","","","complex"
"","","","","","animation","34","745149","0.0-34.0","1920x1080","","6767","73.94","img/117/3.5/1.5/bw/001.png","","","complex"
"","","","","","animation","35","762477","0.0-35.0","1920x1080","","17326.900000000023","71.30","img/238/4/0.5/bw/001.png","","","complex"
"","","","","","animation","36","767870","0.0-36.0","1920x1080","","5391","77.78","img/314/3.5/0.5/bw/001.png","","","complex"
"","","","","","animation","37","775710","0.0-37.0","1920x1080","","7839.300000000047","56","img/238/4/1/bw/001.png","","","complex"
"","","","","","animation","38","781077","0.0-38.0","1920x1080","","5366.300000000047","19.84","img/238/5.5/1/bw/001.png","","","complex"
"","","","","","animation","39","790253","0.0-39.0","1920x1080","","9175.599999999977","82.14","img/117/2.5/0.5/bw/001.png","","","complex"
"","","","","","animation","40","796076","0.0-40.0","1920x1080","","5822.79999999993","76","img/117/2.5/1/bw/001.png","","","complex"
"","","","","","animation","41","803380","0.0-41.0","1920x1080","","7303.29999999993","53.97","img/238/4.5/0.5/bw/001.png","","","complex"
"","","","","","animation","42","818973","0.0-42.0","1920x1080","","15591.400000000023","62.96","img/117/3.5/1/bw/001.png","","","complex"
"","","","","","animation","43","823316","0.0-43.0","1920x1080","","4342.29999999993","57.14","img/117/4/2/bw/001.png","","","complex"
"","","","","","animation","44","829773","0.0-44.0","1920x1080","","6455.5","76","img/314/2.5/2/bw/001.png","","","complex"
"","","","","","animation","45","846859","0.0-45.0","1920x1080","","17086.699999999953","48.28","img/117/4.5/1.5/bw/001.png","","","complex"
"","","","","","animation","46","851131","0.0-46.0","1920x1080","","4269.099999999977","57.80","img/238/4/1.5/bw/001.png","","","complex"
"","","","","","animation","47","855707","0.0-47.0","1920x1080","","4575.099999999977","62.30","img/238/3.5/2/bw/001.png","","","complex"
"","","","","","animation","48","862075","0.0-48.0","1920x1080","","6366.70000000007","31.08","img/314/5.5/0.5/bw/001.png","","","complex"
"","","","","","animation","49","868363","0.0-49.0","1920x1080","","6287","77","img/314/2.5/1/bw/001.png","","","complex"
"","","","","","animation","50","872875","0.0-50.0","1920x1080","","4510.900000000023","74","img/238/2.5/1.5/bw/001.png","","","complex"
"","","","","","animation","51","879492","0.0-51.0","1920x1080","","6616.199999999953","35.85","img/117/5.5/1/bw/001.png","","","complex"
"","","","","","animation","52","887163","0.0-52.0","1920x1080","","7669.800000000047","64.15","img/314/4/0.5/bw/001.png","","","complex"
"","","","","","animation","53","893395","0.0-53.0","1920x1080","","6231.5","71","img/238/3.5/1.5/bw/001.png","","","complex"
"","","","","","animation","54","899715","0.0-54.0","1920x1080","","6319.199999999953","56.22","img/238/4.5/0.66667/bw/001.png","","","complex"
"","","","","","animation","55","903523","0.0-55.0","1920x1080","","3807.5","61.24","img/117/4.5/1/bw/001.png","","","complex"
"","","","","","animation","56","908759","0.0-56.0","1920x1080","","5239","82.67","img/117/2.5/0.66667/bw/001.png","","","complex"
"","","","","","animation","57","918974","0.0-57.0","1920x1080","","10214.5","24","img/117/5.5/1.5/bw/001.png","","","complex"
"","","","","","animation","58","925031","0.0-58.0","1920x1080","","6055.5","55.69","img/314/4.5/0.66667/bw/001.png","","","complex"
"","","","","","animation","59","930695","0.0-59.0","1920x1080","","5662.399999999907","58.60","img/117/4/1.5/bw/001.png","","","complex"
"","","","","","animation","60","939590","0.0-60.0","1920x1080","","8894.59999999986","72.35","img/238/3.5/0.5/bw/001.png","","","complex"
"","","","","","animation","61","945470","0.0-61.0","1920x1080","","5879.100000000093","77.12","img/117/2.5/2/bw/001.png","","","complex"
"","","","","","animation","62","952127","0.0-62.0","1920x1080","","6655.199999999953","50.26","img/314/4.5/1.5/bw/001.png","","","complex"
"","","","","","animation","63","955815","0.0-63.0","1920x1080","","3687","61.64","img/117/4/0.66667/bw/001.png","","","complex"
"","","","","","animation","64","960422","0.0-64.0","1920x1080","","4606.90000000014","67.20","img/314/4/0.66667/bw/001.png","","","complex"
"","","","","","animation","65","968180","0.0-65.0","1920x1080","","7751.200000000186","20.24","img/314/5.5/1/bw/001.png","","","complex"
"","","","","","animation","66","994692","0.0-66.0","1920x1080","","26511","41.80","img/238/4.5/1.5/bw/001.png","","","complex"
"","","","","","animation","67","1002142","0.0-67.0","1920x1080","","7443.5","64.29","img/314/3.5/2/bw/001.png","","","complex"
"","","","","","animation","68","1008212","0.0-68.0","1920x1080","","6068.100000000093","66","img/314/3.5/0.66667/bw/001.png","","","complex"
"","","","","","animation","69","1013300","0.0-69.0","1920x1080","","5087.5","60.19","img/314/4.5/0.5/bw/001.png","","","complex"
"","","","","","animation","70","1015668","0.0-70.0","1920x1080","","2367.3000000000466","66.40","img/314/3.5/1/bw/001.png","","","complex"
"","","","","","animation","71","1020975","0.0-71.0","1920x1080","","5306.100000000093","67.86","img/117/4/0.5/bw/001.png","","","complex"
"","","","","","animation","72","1026206","0.0-72.0","1920x1080","","5228.59999999986","62.83","img/117/4.5/0.66667/bw/001.png","","","complex"
"","","","","","animation","73","1028701","0.0-73.0","1920x1080","","2494.5999999998603","78.31","img/238/2.5/1/bw/001.png","","","complex"
"","","","","","animation","74","1033165","0.0-74.0","1920x1080","","4462.699999999953","66.80","img/117/4.5/0.5/bw/001.png","","","complex"
"","","","","","animation","75","1037943","0.0-75.0","1920x1080","","4776.800000000047","74","img/117/3.5/0.5/bw/001.png","","","complex"
"","","","","","animation","76","1042629","0.0-76.0","1920x1080","","4685.200000000186","71.96","img/238/4/0.66667/bw/001.png","","","complex"
"","","","","","animation","77","1048437","0.0-77.0","1920x1080","","5807.699999999837","74.47","img/314/2.5/0.5/bw/001.png","","","complex"
"","","","","","animation","78","1054559","0.0-78.0","1920x1080","","6121.199999999953","69.05","img/314/3.5/1.5/bw/001.png","","","complex"
"","","","","","animation","79","1061869","0.0-79.0","1920x1080","","7309.100000000093","27","img/117/5.5/0.66667/bw/001.png","","","complex"
"","","","","","animation","80","1064597","0.0-80.0","1920x1080","","2726.8000000000466","75.93","img/314/2.5/1.5/bw/001.png","","","complex"
"","","","","","animation","81","1067560","0.0-81.0","1920x1080","","2961.899999999907","84.52","img/238/2.5/0.66667/bw/001.png","","","complex"
"","","","","","html-button-response","82","1087092","0.0-82.0","1920x1080","","19524.199999999953","","<div class=""intro"">You are about to view a new series of animations.<br><br></div><div class=""intro"">You will evaluate them based on a different descriptor.<br><br></div><div class=""intro"">Move the slider to indicate how <strong style=""text-transform:capitalize"">RELAXING</strong> you find each animation.<br><br></div><div class=""intro"">0 = Least Relaxing<br></div><div class=""intro"">1 = Most Relaxing<br><br></div><div class=""intro"">Remember to use the <strong><em>entire range</em></strong> of the slider to make your ratings.<br></div><div class=""intro"">Please <strong><em>take your time</em></strong> and carefully consider each rating you make.<br><br></div>","0","",""
"","","","","","call-function","83","1087092","0.0-83.0","1920x1080","","","","","","",""
"","","","","","animation","84","1132123","0.0-84.0","1920x1080","","45030.5","25","img/238/3.5/0.66667/bw/001.png","","","relaxing"
"","","","","","animation","85","1137699","0.0-85.0","1920x1080","","5572.300000000047","20","img/314/3.5/0.66667/bw/001.png","","","relaxing"
"","","","","","animation","86","1165265","0.0-86.0","1920x1080","","27566.800000000047","20.37","img/117/3.5/0.66667/bw/001.png","","","relaxing"
"","","","","","animation","87","1185681","0.0-87.0","1920x1080","","20411.700000000186","59.92","img/314/5.5/0.66667/bw/001.png","","","relaxing"
"","","","","","animation","88","1197873","0.0-88.0","1920x1080","","12188.5","9.79","img/117/2.5/1.5/bw/001.png","","","relaxing"
"","","","","","animation","89","1203105","0.0-89.0","1920x1080","","5227.699999999953","1.19","img/314/2.5/0.5/bw/001.png","","","relaxing"
"","","","","","animation","90","1211488","0.0-90.0","1920x1080","","8382.600000000093","1","img/238/2.5/0.5/bw/001.png","","","relaxing"
"","","","","","animation","91","1217914","0.0-91.0","1920x1080","","6425.300000000047","9.52","img/238/2.5/1.5/bw/001.png","","","relaxing"
"","","","","","animation","92","1227112","0.0-92.0","1920x1080","","9196.5","17.72","img/117/4/0.5/bw/001.png","","","relaxing"
"","","","","","animation","93","1234962","0.0-93.0","1920x1080","","7848.200000000186","22.49","img/238/4/1/bw/001.png","","","relaxing"
"","","","","","animation","94","1244424","0.0-94.0","1920x1080","","9461.600000000093","20","img/314/4/0.66667/bw/001.png","","","relaxing"
"","","","","","animation","95","1260088","0.0-95.0","1920x1080","","15662.59999999986","40","img/314/4.5/2/bw/001.png","","","relaxing"
"","","","","","animation","96","1276471","0.0-96.0","1920x1080","","16382.40000000014","46","img/117/4.5/2/bw/001.png","","","relaxing"
"","","","","","animation","97","1286223","0.0-97.0","1920x1080","","9750.699999999953","40","img/238/4.5/1/bw/001.png","","","relaxing"
"","","","","","animation","98","1292735","0.0-98.0","1920x1080","","6509.700000000186","28.70","img/117/4/2/bw/001.png","","","relaxing"
"","","","","","animation","99","1298055","0.0-99.0","1920x1080","","5319.09999999986","11","img/314/2.5/2/bw/001.png","","","relaxing"
"","","","","","animation","100","1304326","0.0-100.0","1920x1080","","6270.200000000186","22","img/314/4.5/0.5/bw/001.png","","","relaxing"
"","","","","","animation","101","1315503","0.0-101.0","1920x1080","","11175.699999999953","16.40","img/117/3.5/2/bw/001.png","","","relaxing"
"","","","","","animation","102","1329415","0.0-102.0","1920x1080","","13904.800000000047","38","img/238/4.5/1.5/bw/001.png","","","relaxing"
"","","","","","animation","103","1338587","0.0-103.0","1920x1080","","9170.800000000047","15","img/314/3.5/0.5/bw/001.png","","","relaxing"
"","","","","","animation","104","1342603","0.0-104.0","1920x1080","","4015.1999999999534","2","img/238/2.5/1/bw/001.png","","","relaxing"
"","","","","","animation","105","1351123","0.0-105.0","1920x1080","","8519.300000000047","74.47","img/314/5.5/1.5/bw/001.png","","","relaxing"
"","","","","","animation","106","1354835","0.0-106.0","1920x1080","","3710.399999999907","3.17","img/238/2.5/0.66667/bw/001.png","","","relaxing"
"","","","","","animation","107","1360235","0.0-107.0","1920x1080","","5398.59999999986","31","img/238/4/1.5/bw/001.png","","","relaxing"
"","","","","","animation","108","1363771","0.0-108.0","1920x1080","","3535.4000000001397","22","img/314/4/0.5/bw/001.png","","","relaxing"
"","","","","","animation","109","1372251","0.0-109.0","1920x1080","","8478.300000000047","79.37","img/117/5.5/1.5/bw/001.png","","","relaxing"
"","","","","","animation","110","1379619","0.0-110.0","1920x1080","","7365.5","34.52","img/238/4.5/0.5/bw/001.png","","","relaxing"
"","","","","","animation","111","1386197","0.0-111.0","1920x1080","","6577","66","img/238/5.5/0.66667/bw/001.png","","","relaxing"
"","","","","","animation","112","1392202","0.0-112.0","1920x1080","","6003.699999999953","2","img/314/2.5/1/bw/001.png","","","relaxing"
"","","","","","animation","113","1398050","0.0-113.0","1920x1080","","5846.699999999953","34","img/314/4.5/1/bw/001.png","","","relaxing"
"","","","","","animation","114","1402354","0.0-114.0","1920x1080","","4303.300000000047","1.59","img/117/2.5/0.5/bw/001.png","","","relaxing"
"","","","","","animation","115","1405830","0.0-115.0","1920x1080","","3474.9000000001397","0.79","img/117/2.5/0.66667/bw/001.png","","","relaxing"
"","","","","","animation","116","1427050","0.0-116.0","1920x1080","","21219.100000000093","36","img/117/4.5/1.5/bw/001.png","","","relaxing"
"","","","","","animation","117","1433906","0.0-117.0","1920x1080","","6854.300000000047","23","img/314/4/2/bw/001.png","","","relaxing"
"","","","","","animation","118","1440498","0.0-118.0","1920x1080","","6589.90000000014","69","img/238/5.5/1/bw/001.png","","","relaxing"
"","","","","","animation","119","1456297","0.0-119.0","1920x1080","","15797.800000000047","58","img/117/5.5/0.66667/bw/001.png","","","relaxing"
"","","","","","animation","120","1458658","0.0-120.0","1920x1080","","2359.4000000001397","3.70","img/117/2.5/1/bw/001.png","","","relaxing"
"","","","","","animation","121","1461818","0.0-121.0","1920x1080","","3159.100000000093","14.81","img/117/3.5/1.5/bw/001.png","","","relaxing"
"","","","","","animation","122","1465217","0.0-122.0","1920x1080","","3399","24.87","img/238/4/2/bw/001.png","","","relaxing"
"","","","","","animation","123","1468546","0.0-123.0","1920x1080","","3327.6999999999534","18.92","img/238/4/0.66667/bw/001.png","","","relaxing"
"","","","","","animation","124","1476713","0.0-124.0","1920x1080","","8166.200000000186","58.60","img/314/5.5/1/bw/001.png","","","relaxing"
"","","","","","animation","125","1486565","0.0-125.0","1920x1080","","9850.40000000014","26","img/117/4/0.66667/bw/001.png","","","relaxing"
"","","","","","animation","126","1489890","0.0-126.0","1920x1080","","3323.9000000001397","13.62","img/238/2.5/2/bw/001.png","","","relaxing"
"","","","","","animation","127","1493738","0.0-127.0","1920x1080","","3847","28.44","img/117/4/1/bw/001.png","","","relaxing"
"","","","","","animation","128","1498231","0.0-128.0","1920x1080","","4492.199999999953","21","img/314/3.5/1/bw/001.png","","","relaxing"
"","","","","","animation","129","1505780","0.0-129.0","1920x1080","","7549.200000000186","33","img/314/4.5/1.5/bw/001.png","","","relaxing"
"","","","","","animation","130","1511264","0.0-130.0","1920x1080","","5483","37","img/238/4.5/2/bw/001.png","","","relaxing"
"","","","","","animation","131","1517280","0.0-131.0","1920x1080","","6014.800000000047","23.41","img/238/3.5/1.5/bw/001.png","","","relaxing"
"","","","","","animation","132","1525448","0.0-132.0","1920x1080","","8167","22","img/314/3.5/2/bw/001.png","","","relaxing"
"","","","","","animation","133","1539136","0.0-133.0","1920x1080","","13685.700000000186","56","img/117/5.5/0.5/bw/001.png","","","relaxing"
"","","","","","animation","134","1549272","0.0-134.0","1920x1080","","10132.800000000047","80","img/117/5.5/2/bw/001.png","","","relaxing"
"","","","","","animation","135","1556752","0.0-135.0","1920x1080","","7478","19","img/238/3.5/1/bw/001.png","","","relaxing"
"","","","","","animation","136","1560412","0.0-136.0","1920x1080","","3657.1999999999534","30.42","img/117/4/1.5/bw/001.png","","","relaxing"
"","","","","","animation","137","1566013","0.0-137.0","1920x1080","","5598.600000000093","60.58","img/238/5.5/0.5/bw/001.png","","","relaxing"
"","","","","","animation","138","1571523","0.0-138.0","1920x1080","","5508.399999999907","20.50","img/238/3.5/0.5/bw/001.png","","","relaxing"
"","","","","","animation","139","1578780","0.0-139.0","1920x1080","","7255.699999999953","51.19","img/314/5.5/0.5/bw/001.png","","","relaxing"
"","","","","","animation","140","1583231","0.0-140.0","1920x1080","","4449.5","38","img/238/4.5/0.66667/bw/001.png","","","relaxing"
"","","","","","animation","141","1588923","0.0-141.0","1920x1080","","5690.600000000093","84.39","img/314/5.5/2/bw/001.png","","","relaxing"
"","","","","","animation","142","1596771","0.0-142.0","1920x1080","","7846","32.14","img/238/3.5/2/bw/001.png","","","relaxing"
"","","","","","animation","143","1603815","0.0-143.0","1920x1080","","7042.299999999814","36.90","img/314/4/1/bw/001.png","","","relaxing"
"","","","","","animation","144","1611739","0.0-144.0","1920x1080","","7922.399999999907","36","img/314/4/1.5/bw/001.png","","","relaxing"
"","","","","","animation","145","1615298","0.0-145.0","1920x1080","","3558.3000000000466","23","img/117/3.5/1/bw/001.png","","","relaxing"
"","","","","","animation","146","1617980","0.0-146.0","1920x1080","","2680.8000000000466","2.12","img/314/2.5/1.5/bw/001.png","","","relaxing"
"","","","","","animation","147","1625320","0.0-147.0","1920x1080","","7341.399999999907","21","img/314/3.5/1.5/bw/001.png","","","relaxing"
"","","","","","animation","148","1628952","0.0-148.0","1920x1080","","3630.8000000000466","82.14","img/238/5.5/1.5/bw/001.png","","","relaxing"
"","","","","","animation","149","1639395","0.0-149.0","1920x1080","","10441.200000000186","45","img/314/4.5/0.66667/bw/001.png","","","relaxing"
"","","","","","animation","150","1646844","0.0-150.0","1920x1080","","7448.399999999907","68","img/117/5.5/1/bw/001.png","","","relaxing"
"","","","","","animation","151","1653152","0.0-151.0","1920x1080","","6307","19","img/117/3.5/0.5/bw/001.png","","","relaxing"
"","","","","","animation","152","1658272","0.0-152.0","1920x1080","","5119.200000000186","2","img/314/2.5/0.66667/bw/001.png","","","relaxing"
"","","","","","animation","153","1664088","0.0-153.0","1920x1080","","5814.800000000047","29.10","img/117/4.5/0.66667/bw/001.png","","","relaxing"
"","","","","","animation","154","1671872","0.0-154.0","1920x1080","","7781.90000000014","83.86","img/238/5.5/2/bw/001.png","","","relaxing"
"","","","","","animation","155","1686184","0.0-155.0","1920x1080","","14308.800000000047","32","img/117/4.5/0.5/bw/001.png","","","relaxing"
"","","","","","animation","156","1689784","0.0-156.0","1920x1080","","3595.2000000001863","24.74","img/238/4/0.5/bw/001.png","","","relaxing"
"","","","","","animation","157","1694296","0.0-157.0","1920x1080","","4510.699999999953","8.33","img/117/2.5/2/bw/001.png","","","relaxing"
"","","","","","animation","158","1697248","0.0-158.0","1920x1080","","2951.100000000093","45.37","img/117/4.5/1/bw/001.png","","","relaxing"
"","","","","","html-button-response","159","1716385","0.0-159.0","1920x1080","","19135.300000000047","","<div class=""intro"">You are about to view a new series of animations.<br><br></div><div class=""intro"">You will evaluate them based on a different descriptor.<br><br></div><div class=""intro"">Move the slider to indicate how <strong style=""text-transform:capitalize"">INTERESTING</strong> you find each animation.<br><br></div><div class=""intro"">0 = Least Interesting<br></div><div class=""intro"">1 = Most Interesting<br><br></div><div class=""intro"">Remember to use the <strong><em>entire range</em></strong> of the slider to make your ratings.<br></div><div class=""intro"">Please <strong><em>take your time</em></strong> and carefully consider each rating you make.<br><br></div>","0","",""
"","","","","","call-function","160","1716385","0.0-160.0","1920x1080","","","","","","",""
"","","","","","animation","161","1738320","0.0-161.0","1920x1080","","21934.40000000014","58","img/314/2.5/1.5/bw/001.png","","","interesting"
"","","","","","animation","162","1757079","0.0-162.0","1920x1080","","18757.59999999986","67","img/117/3.5/2/bw/001.png","","","interesting"
"","","","","","animation","163","1776143","0.0-163.0","1920x1080","","19062.899999999907","73.41","img/314/3.5/2/bw/001.png","","","interesting"
"","","","","","animation","164","1788409","0.0-164.0","1920x1080","","12264.90000000014","80","img/314/3.5/0.66667/bw/001.png","","","interesting"
"","","","","","animation","165","1797503","0.0-165.0","1920x1080","","9092.699999999953","70.63","img/117/3.5/1.5/bw/001.png","","","interesting"
"","","","","","animation","166","1815770","0.0-166.0","1920x1080","","18262.399999999907","60.32","img/117/4.5/1/bw/001.png","","","interesting"
"","","","","","animation","167","1832218","0.0-167.0","1920x1080","","16446.40000000014","84","img/238/4/0.5/bw/001.png","","","interesting"
"","","","","","animation","168","1845019","0.0-168.0","1920x1080","","12799.199999999953","58","img/117/2.5/0.5/bw/001.png","","","interesting"
"","","","","","animation","169","1853306","0.0-169.0","1920x1080","","8286.600000000093","31.08","img/238/4.5/1.5/bw/001.png","","","interesting"
"","","","","","animation","170","1858282","0.0-170.0","1920x1080","","4974.600000000093","31","img/238/4.5/1/bw/001.png","","","interesting"
"","","","","","animation","171","1861354","0.0-171.0","1920x1080","","3071.3000000000466","57.80","img/314/4/1/bw/001.png","","","interesting"
"","","","","","animation","172","1865904","0.0-172.0","1920x1080","","4551.199999999953","25.26","img/314/5.5/0.66667/bw/001.png","","","interesting"
"","","","","","animation","173","1874384","0.0-173.0","1920x1080","","8478.800000000047","35.45","img/117/4.5/1.5/bw/001.png","","","interesting"
"","","","","","animation","174","1876520","0.0-174.0","1920x1080","","2132.5999999998603","61.11","img/117/4.5/0.66667/bw/001.png","","","interesting"
"","","","","","animation","175","1879264","0.0-175.0","1920x1080","","2743","27.38","img/117/5.5/0.5/bw/001.png","","","interesting"
"","","","","","animation","176","1885584","0.0-176.0","1920x1080","","6319.300000000047","66","img/238/2.5/0.66667/bw/001.png","","","interesting"
"","","","","","animation","177","1890827","0.0-177.0","1920x1080","","5242.199999999953","50.00","img/314/4.5/2/bw/001.png","","","interesting"
"","","","","","animation","178","1894000","0.0-178.0","1920x1080","","3171.5999999998603","67.59","img/314/3.5/1/bw/001.png","","","interesting"
"","","","","","animation","179","1897480","0.0-179.0","1920x1080","","3478.3000000000466","72","img/314/4/0.66667/bw/001.png","","","interesting"
"","","","","","animation","180","1901457","0.0-180.0","1920x1080","","3976","61.51","img/117/2.5/1.5/bw/001.png","","","interesting"
"","","","","","animation","181","1905994","0.0-181.0","1920x1080","","4534.90000000014","63","img/238/4.5/0.5/bw/001.png","","","interesting"
"","","","","","animation","182","1909464","0.0-182.0","1920x1080","","3468.8000000000466","70.37","img/117/2.5/1/bw/001.png","","","interesting"
"","","","","","animation","183","1912512","0.0-183.0","1920x1080","","3046.899999999907","16.67","img/314/5.5/1.5/bw/001.png","","","interesting"
"","","","","","animation","184","1915044","0.0-184.0","1920x1080","","2531.4000000001397","30","img/117/5.5/0.66667/bw/001.png","","","interesting"
"","","","","","animation","185","1918480","0.0-185.0","1920x1080","","3434.5999999998603","58.33","img/117/4/0.5/bw/001.png","","","interesting"
"","","","","","animation","186","1920736","0.0-186.0","1920x1080","","2255.1999999999534","47.49","img/314/4/2/bw/001.png","","","interesting"
"","","","","","animation","187","1923411","0.0-187.0","1920x1080","","2673.5","58.47","img/238/3.5/1/bw/001.png","","","interesting"
"","","","","","animation","188","1926303","0.0-188.0","1920x1080","","2892.5","57.80","img/238/2.5/1.5/bw/001.png","","","interesting"
"","","","","","animation","189","1930895","0.0-189.0","1920x1080","","4590.699999999953","58","img/314/4/1.5/bw/001.png","","","interesting"
"","","","","","animation","190","1935551","0.0-190.0","1920x1080","","4654.9000000003725","51.06","img/314/4.5/1/bw/001.png","","","interesting"
"","","","","","animation","191","1944010","0.0-191.0","1920x1080","","8457.899999999907","47","img/314/4.5/0.66667/bw/001.png","","","interesting"
"","","","","","animation","192","1952460","0.0-192.0","1920x1080","","8448.80000000028","62.04","img/314/2.5/0.66667/bw/001.png","","","interesting"
"","","","","","animation","193","1959277","0.0-193.0","1920x1080","","6815.600000000093","59.39","img/314/4.5/0.5/bw/001.png","","","interesting"
"","","","","","animation","194","1961600","0.0-194.0","1920x1080","","2320.899999999907","53.97","img/314/2.5/2/bw/001.png","","","interesting"
"","","","","","animation","195","1965244","0.0-195.0","1920x1080","","3642.7999999998137","56.08","img/238/2.5/2/bw/001.png","","","interesting"
"","","","","","animation","196","1973015","0.0-196.0","1920x1080","","7770.5","45.90","img/238/4/2/bw/001.png","","","interesting"
"","","","","","animation","197","1978693","0.0-197.0","1920x1080","","5676.399999999907","58.07","img/117/4/0.66667/bw/001.png","","","interesting"
"","","","","","animation","198","1981831","0.0-198.0","1920x1080","","3136.5","43.12","img/314/4.5/1.5/bw/001.png","","","interesting"
"","","","","","animation","199","1983891","0.0-199.0","1920x1080","","2060.399999999907","17.86","img/117/5.5/1.5/bw/001.png","","","interesting"
"","","","","","animation","200","1986591","0.0-200.0","1920x1080","","2699.5","23","img/314/5.5/1/bw/001.png","","","interesting"
"","","","","","animation","201","1990093","0.0-201.0","1920x1080","","3500.7999999998137","42.59","img/117/4/1.5/bw/001.png","","","interesting"
"","","","","","animation","202","1992858","0.0-202.0","1920x1080","","2764","55.42","img/117/2.5/2/bw/001.png","","","interesting"
"","","","","","animation","203","1995413","0.0-203.0","1920x1080","","2553.9000000003725","62.17","img/238/3.5/1.5/bw/001.png","","","interesting"
"","","","","","animation","204","1998229","0.0-204.0","1920x1080","","2814.8000000002794","19.18","img/117/5.5/1/bw/001.png","","","interesting"
"","","","","","animation","205","2000641","0.0-205.0","1920x1080","","2410.5","24.74","img/314/5.5/0.5/bw/001.png","","","interesting"
"","","","","","animation","206","2003213","0.0-206.0","1920x1080","","2571.600000000093","47.88","img/238/3.5/2/bw/001.png","","","interesting"
"","","","","","animation","207","2005549","0.0-207.0","1920x1080","","2335.1999999997206","58.20","img/117/4/1/bw/001.png","","","interesting"
"","","","","","animation","208","2009645","0.0-208.0","1920x1080","","4094.899999999907","45.77","img/238/4.5/2/bw/001.png","","","interesting"
"","","","","","animation","209","2012477","0.0-209.0","1920x1080","","2830.399999999907","9.79","img/238/5.5/2/bw/001.png","","","interesting"
"","","","","","animation","210","2014877","0.0-210.0","1920x1080","","2398.5999999996275","17.33","img/238/5.5/1.5/bw/001.png","","","interesting"
"","","","","","animation","211","2017692","0.0-211.0","1920x1080","","2813.5","64.02","img/117/3.5/0.66667/bw/001.png","","","interesting"
"","","","","","animation","212","2021893","0.0-212.0","1920x1080","","4200.299999999814","68","img/238/3.5/0.66667/bw/001.png","","","interesting"
"","","","","","animation","213","2028058","0.0-213.0","1920x1080","","6163.399999999907","43","img/117/4.5/2/bw/001.png","","","interesting"
"","","","","","animation","214","2030475","0.0-214.0","1920x1080","","2415.9000000003725","30","img/238/5.5/0.66667/bw/001.png","","","interesting"
"","","","","","animation","215","2033629","0.0-215.0","1920x1080","","3153.7000000001863","64.15","img/314/3.5/0.5/bw/001.png","","","interesting"
"","","","","","animation","216","2038691","0.0-216.0","1920x1080","","5060.700000000186","75.66","img/238/2.5/0.5/bw/001.png","","","interesting"
"","","","","","animation","217","2042075","0.0-217.0","1920x1080","","3382.4000000003725","63.89","img/314/2.5/1/bw/001.png","","","interesting"
"","","","","","animation","218","2045210","0.0-218.0","1920x1080","","3131.7000000001863","43.78","img/314/3.5/1.5/bw/001.png","","","interesting"
"","","","","","animation","219","2049350","0.0-219.0","1920x1080","","4138.700000000186","51.32","img/238/4/1/bw/001.png","","","interesting"
"","","","","","animation","220","2052077","0.0-220.0","1920x1080","","2724.2999999998137","48.02","img/238/4/1.5/bw/001.png","","","interesting"
"","","","","","animation","221","2056432","0.0-221.0","1920x1080","","4352.700000000186","62","img/117/2.5/0.66667/bw/001.png","","","interesting"
"","","","","","animation","222","2058736","0.0-222.0","1920x1080","","2302.9000000003725","21.83","img/238/5.5/0.5/bw/001.png","","","interesting"
"","","","","","animation","223","2061304","0.0-223.0","1920x1080","","2566.7000000001863","14.29","img/314/5.5/2/bw/001.png","","","interesting"
"","","","","","animation","224","2064911","0.0-224.0","1920x1080","","3606.5","64.55","img/238/2.5/1/bw/001.png","","","interesting"
"","","","","","animation","225","2069431","0.0-225.0","1920x1080","","4518.899999999907","72.49","img/314/2.5/0.5/bw/001.png","","","interesting"
"","","","","","animation","226","2073616","0.0-226.0","1920x1080","","4183.299999999814","56.75","img/238/4/0.66667/bw/001.png","","","interesting"
"","","","","","animation","227","2081694","0.0-227.0","1920x1080","","8077","55","img/117/3.5/1/bw/001.png","","","interesting"
"","","","","","animation","228","2086263","0.0-228.0","1920x1080","","4568.299999999814","59.13","img/314/4/0.5/bw/001.png","","","interesting"
"","","","","","animation","229","2089232","0.0-229.0","1920x1080","","2966.899999999907","11.38","img/117/5.5/2/bw/001.png","","","interesting"
"","","","","","animation","230","2093010","0.0-230.0","1920x1080","","3777.600000000093","65.48","img/117/3.5/0.5/bw/001.png","","","interesting"
"","","","","","animation","231","2095448","0.0-231.0","1920x1080","","2436.1999999997206","68","img/238/3.5/0.5/bw/001.png","","","interesting"
"","","","","","animation","232","2103244","0.0-232.0","1920x1080","","7795.199999999721","50.79","img/117/4.5/0.5/bw/001.png","","","interesting"
"","","","","","animation","233","2106310","0.0-233.0","1920x1080","","3066","5","img/238/5.5/1/bw/001.png","","","interesting"
"","","","","","animation","234","2109751","0.0-234.0","1920x1080","","3439.100000000093","45.50","img/117/4/2/bw/001.png","","","interesting"
"","","","","","animation","235","2114377","0.0-235.0","1920x1080","","4625.299999999814","49.21","img/238/4.5/0.66667/bw/001.png","","","interesting"
"","","","","","html-button-response","236","2132935","0.0-236.0","1920x1080","","18556","","<div class=""intro"">You are about to view a new series of animations.<br><br></div><div class=""intro"">You will evaluate them based on a different descriptor.<br><br></div><div class=""intro"">Move the slider to indicate how <strong style=""text-transform:capitalize"">APPEALING</strong> you find each animation.<br><br></div><div class=""intro"">0 = Least Appealing<br></div><div class=""intro"">1 = Most Appealing<br><br></div><div class=""intro"">Remember to use the <strong><em>entire range</em></strong> of the slider to make your ratings.<br></div><div class=""intro"">Please <strong><em>take your time</em></strong> and carefully consider each rating you make.<br><br></div>","0","",""
"","","","","","call-function","237","2132935","0.0-237.0","1920x1080","","","","","","",""
"","","","","","animation","238","2136509","0.0-238.0","1920x1080","","3573.2000000001863","55.29","img/238/5.5/0.66667/bw/001.png","","","appealing"
"","","","","","animation","239","2139519","0.0-239.0","1920x1080","","3007.6999999997206","41.80","img/238/4.5/2/bw/001.png","","","appealing"
"","","","","","animation","240","2141643","0.0-240.0","1920x1080","","2122.600000000093","37.57","img/238/4.5/1.5/bw/001.png","","","appealing"
"","","","","","animation","241","2144119","0.0-241.0","1920x1080","","2474.9000000003725","24.34","img/238/3.5/1.5/bw/001.png","","","appealing"
"","","","","","animation","242","2146459","0.0-242.0","1920x1080","","2339.5","0","img/238/2.5/1/bw/001.png","","","appealing"
"","","","","","animation","243","2148334","0.0-243.0","1920x1080","","1873.7000000001863","6.35","img/117/2.5/2/bw/001.png","","","appealing"
"","","","","","animation","244","2150799","0.0-244.0","1920x1080","","2462.9000000003725","4.23","img/117/2.5/0.66667/bw/001.png","","","appealing"
"","","","","","animation","245","2159726","0.0-245.0","1920x1080","","8925.799999999814","29.37","img/238/3.5/0.5/bw/001.png","","","appealing"
"","","","","","animation","246","2165358","0.0-246.0","1920x1080","","5629.899999999907","42.72","img/314/4.5/0.66667/bw/001.png","","","appealing"
"","","","","","animation","247","2168742","0.0-247.0","1920x1080","","3382.4000000003725","46.96","img/117/4.5/1/bw/001.png","","","appealing"
"","","","","","animation","248","2171045","0.0-248.0","1920x1080","","2302.100000000093","2.38","img/238/2.5/0.66667/bw/001.png","","","appealing"
"","","","","","animation","249","2172975","0.0-249.0","1920x1080","","1928.8999999999069","18.52","img/117/3.5/0.5/bw/001.png","","","appealing"
"","","","","","animation","250","2176565","0.0-250.0","1920x1080","","3589","27.91","img/314/3.5/1.5/bw/001.png","","","appealing"
"","","","","","animation","251","2180893","0.0-251.0","1920x1080","","4325.899999999907","64.15","img/238/4.5/0.5/bw/001.png","","","appealing"
"","","","","","animation","252","2184876","0.0-252.0","1920x1080","","3980.6999999997206","80","img/117/5.5/0.66667/bw/001.png","","","appealing"
"","","","","","animation","253","2189861","0.0-253.0","1920x1080","","4984.199999999721","86","img/238/5.5/1/bw/001.png","","","appealing"
"","","","","","animation","254","2193476","0.0-254.0","1920x1080","","3613.399999999907","35","img/238/4/0.66667/bw/001.png","","","appealing"
"","","","","","animation","255","2197014","0.0-255.0","1920x1080","","3536.6999999997206","17.33","img/117/3.5/2/bw/001.png","","","appealing"
"","","","","","animation","256","2199845","0.0-256.0","1920x1080","","2830.7000000001863","28.84","img/238/4/2/bw/001.png","","","appealing"
"","","","","","animation","257","2202442","0.0-257.0","1920x1080","","2595.3000000002794","9.92","img/314/3.5/0.5/bw/001.png","","","appealing"
"","","","","","animation","258","2205029","0.0-258.0","1920x1080","","2586.3000000002794","0","img/117/2.5/1.5/bw/001.png","","","appealing"
"","","","","","animation","259","2209918","0.0-259.0","1920x1080","","4886.899999999907","22","img/117/3.5/1/bw/001.png","","","appealing"
"","","","","","animation","260","2213518","0.0-260.0","1920x1080","","3598.899999999907","31.35","img/117/4/0.5/bw/001.png","","","appealing"
"","","","","","animation","261","2226196","0.0-261.0","1920x1080","","12678.5","56","img/314/4.5/1.5/bw/001.png","","","appealing"
"","","","","","animation","262","2227876","0.0-262.0","1920x1080","","1678.5","43.39","img/238/4/1/bw/001.png","","","appealing"
"","","","","","animation","263","2231228","0.0-263.0","1920x1080","","3351.399999999907","63.23","img/117/4.5/1.5/bw/001.png","","","appealing"
"","","","","","animation","264","2233857","0.0-264.0","1920x1080","","2627.899999999907","60.71","img/117/4.5/2/bw/001.png","","","appealing"
"","","","","","animation","265","2237741","0.0-265.0","1920x1080","","3882.1999999997206","77.51","img/314/5.5/0.5/bw/001.png","","","appealing"
"","","","","","animation","266","2240724","0.0-266.0","1920x1080","","2981.2000000001863","18","img/314/3.5/0.66667/bw/001.png","","","appealing"
"","","","","","animation","267","2242941","0.0-267.0","1920x1080","","2216.4000000003725","26","img/117/4/2/bw/001.png","","","appealing"
"","","","","","animation","268","2245708","0.0-268.0","1920x1080","","2764","5.95","img/314/2.5/0.5/bw/001.png","","","appealing"
"","","","","","animation","269","2248824","0.0-269.0","1920x1080","","3114.6999999997206","2.65","img/314/2.5/1.5/bw/001.png","","","appealing"
"","","","","","animation","270","2251691","0.0-270.0","1920x1080","","2865.899999999907","20.90","img/314/4/0.5/bw/001.png","","","appealing"
"","","","","","animation","271","2255340","0.0-271.0","1920x1080","","3647.7000000001863","11.24","img/238/3.5/2/bw/001.png","","","appealing"
"","","","","","animation","272","2261157","0.0-272.0","1920x1080","","5816.100000000093","48.94","img/238/4.5/1/bw/001.png","","","appealing"
"","","","","","animation","273","2265332","0.0-273.0","1920x1080","","4173.5","7","img/314/2.5/0.66667/bw/001.png","","","appealing"
"","","","","","animation","274","2268074","0.0-274.0","1920x1080","","2740.5","2","img/238/2.5/2/bw/001.png","","","appealing"
"","","","","","animation","275","2270624","0.0-275.0","1920x1080","","2548.7000000001863","0","img/314/2.5/2/bw/001.png","","","appealing"
"","","","","","animation","276","2273044","0.0-276.0","1920x1080","","2418.7999999998137","-1.06","img/117/2.5/0.5/bw/001.png","","","appealing"
"","","","","","animation","277","2280191","0.0-277.0","1920x1080","","7145.299999999814","28","img/238/3.5/1/bw/001.png","","","appealing"
"","","","","","animation","278","2282164","0.0-278.0","1920x1080","","1972.5","9","img/238/2.5/1.5/bw/001.png","","","appealing"
"","","","","","animation","279","2285241","0.0-279.0","1920x1080","","3075.7000000001863","45.77","img/117/4.5/0.66667/bw/001.png","","","appealing"
"","","","","","animation","280","2288141","0.0-280.0","1920x1080","","2898.899999999907","34.13","img/117/3.5/0.66667/bw/001.png","","","appealing"
"","","","","","animation","281","2290764","0.0-281.0","1920x1080","","2622","37.70","img/314/3.5/2/bw/001.png","","","appealing"
"","","","","","animation","282","2296663","0.0-282.0","1920x1080","","5897.299999999814","46","img/238/4/1.5/bw/001.png","","","appealing"
"","","","","","animation","283","2300292","0.0-283.0","1920x1080","","3624.6999999997206","87.57","img/238/5.5/2/bw/001.png","","","appealing"
"","","","","","animation","284","2302724","0.0-284.0","1920x1080","","2430.6999999997206","3.31","img/314/2.5/1/bw/001.png","","","appealing"
"","","","","","animation","285","2304676","0.0-285.0","1920x1080","","1950.7999999998137","4.23","img/117/2.5/1/bw/001.png","","","appealing"
"","","","","","animation","286","2309107","0.0-286.0","1920x1080","","4430.699999999721","83.47","img/117/5.5/1.5/bw/001.png","","","appealing"
"","","","","","animation","287","2311476","0.0-287.0","1920x1080","","2367","45.37","img/117/4/1.5/bw/001.png","","","appealing"
"","","","","","animation","288","2324341","0.0-288.0","1920x1080","","12863.69999999972","87","img/117/5.5/0.5/bw/001.png","","","appealing"
"","","","","","animation","289","2329974","0.0-289.0","1920x1080","","5632.5999999996275","53","img/314/4.5/0.5/bw/001.png","","","appealing"
"","","","","","animation","290","2333092","0.0-290.0","1920x1080","","3114.899999999907","70.50","img/314/5.5/1.5/bw/001.png","","","appealing"
"","","","","","animation","291","2335424","0.0-291.0","1920x1080","","2331.399999999907","27","img/314/4/2/bw/001.png","","","appealing"
"","","","","","animation","292","2337191","0.0-292.0","1920x1080","","1765.6000000000931","24.87","img/314/4/1.5/bw/001.png","","","appealing"
"","","","","","animation","293","2339028","0.0-293.0","1920x1080","","1835.7999999998137","2","img/238/2.5/0.5/bw/001.png","","","appealing"
"","","","","","animation","294","2341060","0.0-294.0","1920x1080","","2030.7000000001863","28","img/314/4/1/bw/001.png","","","appealing"
"","","","","","animation","295","2343460","0.0-295.0","1920x1080","","2399.100000000093","25.13","img/238/3.5/0.66667/bw/001.png","","","appealing"
"","","","","","animation","296","2347549","0.0-296.0","1920x1080","","4088.2999999998137","84.92","img/314/5.5/1/bw/001.png","","","appealing"
"","","","","","animation","297","2351257","0.0-297.0","1920x1080","","3706","41.67","img/117/4/1/bw/001.png","","","appealing"
"","","","","","animation","298","2355191","0.0-298.0","1920x1080","","3931.5999999996275","56.08","img/314/4.5/1/bw/001.png","","","appealing"
"","","","","","animation","299","2357875","0.0-299.0","1920x1080","","2683.5","26.72","img/117/3.5/1.5/bw/001.png","","","appealing"
"","","","","","animation","300","2361698","0.0-300.0","1920x1080","","3819.899999999907","88.62","img/238/5.5/1.5/bw/001.png","","","appealing"
"","","","","","animation","301","2367348","0.0-301.0","1920x1080","","5647.5999999996275","40","img/117/4.5/0.5/bw/001.png","","","appealing"
"","","","","","animation","302","2371875","0.0-302.0","1920x1080","","4526.100000000093","21","img/238/4/0.5/bw/001.png","","","appealing"
"","","","","","animation","303","2373924","0.0-303.0","1920x1080","","2047.1000000000931","25.00","img/314/4/0.66667/bw/001.png","","","appealing"
"","","","","","animation","304","2376627","0.0-304.0","1920x1080","","2702.2000000001863","17.99","img/117/4/0.66667/bw/001.png","","","appealing"
"","","","","","animation","305","2379228","0.0-305.0","1920x1080","","2599","22.22","img/238/4.5/0.66667/bw/001.png","","","appealing"
"","","","","","animation","306","2383390","0.0-306.0","1920x1080","","4161.700000000186","76.32","img/314/5.5/0.66667/bw/001.png","","","appealing"
"","","","","","animation","307","2385858","0.0-307.0","1920x1080","","2466.3000000002794","21.83","img/314/3.5/1/bw/001.png","","","appealing"
"","","","","","animation","308","2389091","0.0-308.0","1920x1080","","3231.399999999907","74.21","img/117/5.5/1/bw/001.png","","","appealing"
"","","","","","animation","309","2392791","0.0-309.0","1920x1080","","3698.6999999997206","73","img/238/5.5/0.5/bw/001.png","","","appealing"
"","","","","","animation","310","2400691","0.0-310.0","1920x1080","","7899.299999999814","72","img/117/5.5/2/bw/001.png","","","appealing"
"","","","","","animation","311","2404807","0.0-311.0","1920x1080","","4115","56.88","img/314/4.5/2/bw/001.png","","","appealing"
"","","","","","animation","312","2407957","0.0-312.0","1920x1080","","3147.899999999907","82.41","img/314/5.5/2/bw/001.png","","","appealing"
"","","","","","html-button-response","313","2428707","0.0-313.0","1920x1080","","20748.600000000093","","<div class=""intro"">You are about to view a new series of animations.<br><br></div><div class=""intro"">You will evaluate them based on a different descriptor.<br><br></div><div class=""intro"">Move the slider to indicate how <strong style=""text-transform:capitalize"">NATURAL</strong> you find each animation.<br><br></div><div class=""intro"">0 = Least Natural<br></div><div class=""intro"">1 = Most Natural<br><br></div><div class=""intro"">Remember to use the <strong><em>entire range</em></strong> of the slider to make your ratings.<br></div><div class=""intro"">Please <strong><em>take your time</em></strong> and carefully consider each rating you make.<br><br></div>","0","",""
"","","","","","call-function","314","2428709","0.0-314.0","1920x1080","","","","","","",""
"","","","","","animation","315","2431540","0.0-315.0","1920x1080","","2830.5","1","img/314/2.5/0.66667/bw/001.png","","","natural"
"","","","","","animation","316","2434307","0.0-316.0","1920x1080","","2765.7000000001863","3","img/117/2.5/0.66667/bw/001.png","","","natural"
"","","","","","animation","317","2438140","0.0-317.0","1920x1080","","3832.0999999996275","47.75","img/314/4.5/2/bw/001.png","","","natural"
"","","","","","animation","318","2441891","0.0-318.0","1920x1080","","3749.399999999907","28","img/117/4.5/0.66667/bw/001.png","","","natural"
"","","","","","animation","319","2445323","0.0-319.0","1920x1080","","3431.1999999997206","73.54","img/314/5.5/0.66667/bw/001.png","","","natural"
"","","","","","animation","320","2447859","0.0-320.0","1920x1080","","2534","33.20","img/314/3.5/2/bw/001.png","","","natural"
"","","","","","animation","321","2451090","0.0-321.0","1920x1080","","3229.6999999997206","29.89","img/238/4/1/bw/001.png","","","natural"
"","","","","","animation","322","2456827","0.0-322.0","1920x1080","","5735.299999999814","21.03","img/238/3.5/0.66667/bw/001.png","","","natural"
"","","","","","animation","323","2460291","0.0-323.0","1920x1080","","3460.1999999997206","91","img/314/5.5/2/bw/001.png","","","natural"
"","","","","","animation","324","2465073","0.0-324.0","1920x1080","","4782.799999999814","37.70","img/117/4.5/0.5/bw/001.png","","","natural"
"","","","","","animation","325","2467647","0.0-325.0","1920x1080","","2572.6999999997206","82","img/117/5.5/1/bw/001.png","","","natural"
"","","","","","animation","326","2469641","0.0-326.0","1920x1080","","1992.6999999997206","38.76","img/314/4.5/0.5/bw/001.png","","","natural"
"","","","","","animation","327","2472255","0.0-327.0","1920x1080","","2612.899999999907","14.95","img/314/2.5/2/bw/001.png","","","natural"
"","","","","","animation","328","2474345","0.0-328.0","1920x1080","","2088.8000000002794","22.88","img/314/3.5/1.5/bw/001.png","","","natural"
"","","","","","animation","329","2477041","0.0-329.0","1920x1080","","2694","19.05","img/117/3.5/0.66667/bw/001.png","","","natural"
"","","","","","animation","330","2479393","0.0-330.0","1920x1080","","2351.2999999998137","91.40","img/238/5.5/1.5/bw/001.png","","","natural"
"","","","","","animation","331","2482225","0.0-331.0","1920x1080","","2830.5","36.24","img/238/3.5/1/bw/001.png","","","natural"
"","","","","","animation","332","2485141","0.0-332.0","1920x1080","","2914.2999999998137","21.03","img/314/4/0.66667/bw/001.png","","","natural"
"","","","","","animation","333","2488555","0.0-333.0","1920x1080","","3412.2000000001863","6.35","img/117/2.5/1.5/bw/001.png","","","natural"
"","","","","","animation","334","2499945","0.0-334.0","1920x1080","","11388.80000000028","20.37","img/238/4/0.66667/bw/001.png","","","natural"
"","","","","","animation","335","2503041","0.0-335.0","1920x1080","","3093.1999999997206","7.41","img/238/2.5/0.66667/bw/001.png","","","natural"
"","","","","","animation","336","2507266","0.0-336.0","1920x1080","","4223.5","43","img/117/3.5/2/bw/001.png","","","natural"
"","","","","","animation","337","2509938","0.0-337.0","1920x1080","","2670.8000000002794","49.60","img/314/4.5/1.5/bw/001.png","","","natural"
"","","","","","animation","338","2512978","0.0-338.0","1920x1080","","3038.5","41","img/238/4/1.5/bw/001.png","","","natural"
"","","","","","animation","339","2515402","0.0-339.0","1920x1080","","2422.0999999996275","74.07","img/117/5.5/0.66667/bw/001.png","","","natural"
"","","","","","animation","340","2521105","0.0-340.0","1920x1080","","5701.899999999907","59","img/238/4.5/2/bw/001.png","","","natural"
"","","","","","animation","341","2524504","0.0-341.0","1920x1080","","3396.600000000093","44.31","img/314/4/1.5/bw/001.png","","","natural"
"","","","","","animation","342","2530224","0.0-342.0","1920x1080","","5718.600000000093","41","img/117/4/2/bw/001.png","","","natural"
"","","","","","animation","343","2532892","0.0-343.0","1920x1080","","2666.5","78.57","img/117/5.5/0.5/bw/001.png","","","natural"
"","","","","","animation","344","2536944","0.0-344.0","1920x1080","","4050.9000000003725","48.81","img/117/4.5/1.5/bw/001.png","","","natural"
"","","","","","animation","345","2539588","0.0-345.0","1920x1080","","2641.5","8.99","img/314/2.5/1/bw/001.png","","","natural"
"","","","","","animation","346","2542487","0.0-346.0","1920x1080","","2898.4000000003725","10.05","img/238/2.5/1.5/bw/001.png","","","natural"
"","","","","","animation","347","2545592","0.0-347.0","1920x1080","","3103.7000000001863","21.43","img/314/3.5/0.66667/bw/001.png","","","natural"
"","","","","","animation","348","2548440","0.0-348.0","1920x1080","","2846.2999999998137","81.08","img/238/5.5/2/bw/001.png","","","natural"
"","","","","","animation","349","2551754","0.0-349.0","1920x1080","","3312.8000000002794","47.09","img/314/4.5/1/bw/001.png","","","natural"
"","","","","","animation","350","2554576","0.0-350.0","1920x1080","","2820","43.92","img/238/4.5/1/bw/001.png","","","natural"
"","","","","","animation","351","2560771","0.0-351.0","1920x1080","","6193.300000000279","37.43","img/117/4.5/2/bw/001.png","","","natural"
"","","","","","animation","352","2562888","0.0-352.0","1920x1080","","2114.399999999907","17.33","img/117/2.5/1/bw/001.png","","","natural"
"","","","","","animation","353","2564949","0.0-353.0","1920x1080","","2059.399999999907","9.13","img/238/3.5/0.5/bw/001.png","","","natural"
"","","","","","animation","354","2566905","0.0-354.0","1920x1080","","1954.2000000001863","5.16","img/238/2.5/1/bw/001.png","","","natural"
"","","","","","animation","355","2569144","0.0-355.0","1920x1080","","2238.5","12.57","img/117/3.5/0.5/bw/001.png","","","natural"
"","","","","","animation","356","2571961","0.0-356.0","1920x1080","","2815","22.35","img/117/4/1/bw/001.png","","","natural"
"","","","","","animation","357","2576696","0.0-357.0","1920x1080","","4733.700000000186","4.23","img/238/2.5/2/bw/001.png","","","natural"
"","","","","","animation","358","2580144","0.0-358.0","1920x1080","","3446.2000000001863","78.17","img/238/5.5/1/bw/001.png","","","natural"
"","","","","","animation","359","2584564","0.0-359.0","1920x1080","","4406.700000000186","29","img/314/4/0.5/bw/001.png","","","natural"
"","","","","","animation","360","2587535","0.0-360.0","1920x1080","","2968.899999999907","33.20","img/238/3.5/1.5/bw/001.png","","","natural"
"","","","","","animation","361","2592189","0.0-361.0","1920x1080","","4652.5","45.11","img/238/4.5/1.5/bw/001.png","","","natural"
"","","","","","animation","362","2596139","0.0-362.0","1920x1080","","3948.600000000093","8.86","img/314/2.5/1.5/bw/001.png","","","natural"
"","","","","","animation","363","2600402","0.0-363.0","1920x1080","","4261.399999999907","76.98","img/117/5.5/1.5/bw/001.png","","","natural"
"","","","","","animation","364","2603402","0.0-364.0","1920x1080","","2998.7000000001863","22.62","img/314/3.5/1/bw/001.png","","","natural"
"","","","","","animation","365","2605882","0.0-365.0","1920x1080","","2477.899999999907","16.93","img/238/4/0.5/bw/001.png","","","natural"
"","","","","","animation","366","2609618","0.0-366.0","1920x1080","","3735.5","24.21","img/117/4/1.5/bw/001.png","","","natural"
"","","","","","animation","367","2613567","0.0-367.0","1920x1080","","3946.7999999998137","2.12","img/117/2.5/2/bw/001.png","","","natural"
"","","","","","animation","368","2618608","0.0-368.0","1920x1080","","5039.399999999907","8.60","img/314/3.5/0.5/bw/001.png","","","natural"
"","","","","","animation","369","2621152","0.0-369.0","1920x1080","","2541.2000000001863","-1.06","img/314/2.5/0.5/bw/001.png","","","natural"
"","","","","","animation","370","2626269","0.0-370.0","1920x1080","","5115.800000000279","25.93","img/117/4/0.5/bw/001.png","","","natural"
"","","","","","animation","371","2630474","0.0-371.0","1920x1080","","4203","66","img/238/5.5/0.66667/bw/001.png","","","natural"
"","","","","","animation","372","2633438","0.0-372.0","1920x1080","","2962.399999999907","43.78","img/238/4.5/0.66667/bw/001.png","","","natural"
"","","","","","animation","373","2637165","0.0-373.0","1920x1080","","3726","41.67","img/238/4.5/0.5/bw/001.png","","","natural"
"","","","","","animation","374","2643188","0.0-374.0","1920x1080","","6022.100000000093","76","img/314/5.5/1/bw/001.png","","","natural"
"","","","","","animation","375","2647588","0.0-375.0","1920x1080","","4407.700000000186","36","img/238/4/2/bw/001.png","","","natural"
"","","","","","animation","376","2650261","0.0-376.0","1920x1080","","2670.9000000003725","-1.98","img/238/2.5/0.5/bw/001.png","","","natural"
"","","","","","animation","377","2660761","0.0-377.0","1920x1080","","10498.399999999907","76","img/117/5.5/2/bw/001.png","","","natural"
"","","","","","animation","378","2663641","0.0-378.0","1920x1080","","2878.600000000093","22.49","img/117/3.5/1.5/bw/001.png","","","natural"
"","","","","","animation","379","2669139","0.0-379.0","1920x1080","","5495.399999999907","41","img/117/4.5/1/bw/001.png","","","natural"
"","","","","","animation","380","2671831","0.0-380.0","1920x1080","","2691.5","3.57","img/117/2.5/0.5/bw/001.png","","","natural"
"","","","","","animation","381","2679225","0.0-381.0","1920x1080","","7391.100000000093","28","img/314/4.5/0.66667/bw/001.png","","","natural"
"","","","","","animation","382","2682681","0.0-382.0","1920x1080","","3454","72.09","img/314/5.5/0.5/bw/001.png","","","natural"
"","","","","","animation","383","2686457","0.0-383.0","1920x1080","","3773.5999999996275","73.54","img/238/5.5/0.5/bw/001.png","","","natural"
"","","","","","animation","384","2690409","0.0-384.0","1920x1080","","3950.7999999998137","18","img/238/3.5/2/bw/001.png","","","natural"
"","","","","","animation","385","2693789","0.0-385.0","1920x1080","","3378.399999999907","23.68","img/117/4/0.66667/bw/001.png","","","natural"
"","","","","","animation","386","2697656","0.0-386.0","1920x1080","","3865.2999999998137","28.97","img/314/4/1/bw/001.png","","","natural"
"","","","","","animation","387","2703141","0.0-387.0","1920x1080","","5483.699999999721","43","img/314/4/2/bw/001.png","","","natural"
"","","","","","animation","388","2707748","0.0-388.0","1920x1080","","4596.299999999814","24.47","img/117/3.5/1/bw/001.png","","","natural"
"","","","","","animation","389","2709732","0.0-389.0","1920x1080","","1982.0999999996275","72.22","img/314/5.5/1.5/bw/001.png","","","natural"
"","","","","","html-button-response","390","2763749","0.0-390.0","1920x1080","","54015.799999999814","","<strong>Study Debriefing</strong><br><p class=""debrief""><strong>Background:</strong> The patterns you rated are called <em>fractals</em>. The term fractal describes a class of irregular curves or shapes for which any suitably chosen part is similar in shape to a given larger or smaller part when magnified or reduced to the same size. Fractal properties are found throughout the natural and manmade world. The series of animations you saw today displayed animated fractal patterns of a varying complexity.</p><p class=""debrief""><strong>Purpose of this study:</strong> We hope to better understand how the perception of static fractals differs from the perception of animated fractals, and how the speed of the animated patterns influences people&apos;s perception of them. Fractals allow us to study the perception of aesthetic properties (e.g. the perceived level of beauty in an image) without using recognizable content, which makes them an excellent tool for studying abstract aesthetic judgement.</p><p class=""debrief""><strong>Your part:</strong> Your participation has helped us to further understand how humans perceive these patterns across different levels of speed and complexity. This research with allow us to better understand how the visual system and brain process our ever-changing visual environments.<p class=""debrief""><strong>Feedback and Further information:</strong> If you have additional questions about this study, please feel free to ask the researcher, Nathan Gonzales-Hess at nhess @ uoregon.edu. If you have any questions concerning your rights as a research participant, please contact Research Compliance Services, 5237 University of Oregon, Eugene, OR 97403, 541-346-2510, or email researchCompliance @ uoregon.edu. You can also email the Human Subjects Coordinator for psychology and linguistics research at hscoord @ uoregon.edu. ","0","",""
"","","","","","html-button-response","391","2771189","0.0-391.0","1920x1080","","7435.5","","Thank you for participating in this study. <br>Please click below to finish the experiment and submit your responses.<br><br>","0","",""
"true","","","","","fullscreen","392","2772208","0.0-392.0","1920x1080","15:51 26/10/2022","","","","","",""
