"success","timeout","failed_images","failed_audio","failed_video","trial_type","trial_index","time_elapsed","internal_node_id","resolution","timeStamp","rt","response","stimulus","button_pressed","value","descriptor"
"true","false","[]","[]","[]","preload","0","5968","0.0-0.0","1920x1080","","","","","","",""
"true","false","[]","[]","[]","preload","1","12111","0.0-1.0","1920x1080","","","","","","",""
"true","false","[]","[]","[]","preload","2","18361","0.0-2.0","1920x1080","","","","","","",""
"true","","","","","fullscreen","3","333160","0.0-3.0","1920x1080","12:26 14/10/2022","","","","","",""
"","","","","","survey-html-form","4","340495","0.0-4.0","1920x1080","","7332.9000000059605","{""age"":""19"",""gender"":""Female""}","","","",""
"","","","","","html-button-response","5","417528","0.0-5.0","1920x1080","","77030.89999997616","","<div class=""complex"">You are going to see a series of animations.<br><br></div><div class=""complex"">Move the slider to indicate how <strong style=""text-transform:capitalize"">COMPLEX</strong> you find each animation.<br><br></div><div class=""complex"">0 = Least Complex<br></div><div class=""complex"">1 = Most Complex<br><br></div><div class=""complex"">Remember to use the <strong><em>entire range</em></strong> of the slider to make your ratings.<br></div><div class=""complex"">Please <strong><em>take your time</em></strong> and carefully consider each rating you make.<br><br></div><div class=""complex"">The study has five sections and will take about 45 minutes to complete.<br><br></div>","0","",""
"","","","","","call-function","6","417529","0.0-6.0","1920x1080","","","","","","",""
"","","","","","animation","7","430656","0.0-7.0","1920x1080","","13124.90000000596","30","img/117/4/1.5/bw/001.png","","","complex"
"","","","","","animation","8","451224","0.0-8.0","1920x1080","","20566.30000001192","42.86","img/117/5.5/2/bw/001.png","","","complex"
"","","","","","animation","9","463200","0.0-9.0","1920x1080","","11974.5","59","img/117/5.5/1/bw/001.png","","","complex"
"","","","","","animation","10","480689","0.0-10.0","1920x1080","","17487.5","65.87","img/314/4.5/0.5/bw/001.png","","","complex"
"","","","","","animation","11","487281","0.0-11.0","1920x1080","","6591.200000017881","19.84","img/314/5.5/2/bw/001.png","","","complex"
"","","","","","animation","12","491577","0.0-12.0","1920x1080","","4295.100000023842","75","img/314/4.5/0.66667/bw/001.png","","","complex"
"","","","","","animation","13","505297","0.0-13.0","1920x1080","","13719.199999988079","87.83","img/314/2.5/2/bw/001.png","","","complex"
"","","","","","animation","14","509785","0.0-14.0","1920x1080","","4486.699999988079","58","img/117/4/0.5/bw/001.png","","","complex"
"","","","","","animation","15","513866","0.0-15.0","1920x1080","","4080.0999999940395","77.91","img/117/2.5/1/bw/001.png","","","complex"
"","","","","","animation","16","518321","0.0-16.0","1920x1080","","4454.0999999940395","27.12","img/238/4.5/1.5/bw/001.png","","","complex"
"","","","","","animation","17","520842","0.0-17.0","1920x1080","","2519.300000011921","39.95","img/314/4.5/1.5/bw/001.png","","","complex"
"","","","","","animation","18","523737","0.0-18.0","1920x1080","","2895","52","img/238/3.5/1/bw/001.png","","","complex"
"","","","","","animation","19","530153","0.0-19.0","1920x1080","","6415.0999999940395","70.63","img/314/2.5/1.5/bw/001.png","","","complex"
"","","","","","animation","20","533546","0.0-20.0","1920x1080","","3391.5","54","img/117/4/2/bw/001.png","","","complex"
"","","","","","animation","21","539569","0.0-21.0","1920x1080","","6023.0999999940395","68.39","img/314/3.5/0.5/bw/001.png","","","complex"
"","","","","","animation","22","543234","0.0-22.0","1920x1080","","3663.699999988079","55.03","img/314/4/0.5/bw/001.png","","","complex"
"","","","","","animation","23","545898","0.0-23.0","1920x1080","","2663","62.30","img/238/3.5/0.66667/bw/001.png","","","complex"
"","","","","","animation","24","548490","0.0-24.0","1920x1080","","2591","52.38","img/314/4/0.66667/bw/001.png","","","complex"
"","","","","","animation","25","551153","0.0-25.0","1920x1080","","2663.0999999940395","58.47","img/314/3.5/1.5/bw/001.png","","","complex"
"","","","","","animation","26","556217","0.0-26.0","1920x1080","","5063","74.47","img/314/2.5/1/bw/001.png","","","complex"
"","","","","","animation","27","559882","0.0-27.0","1920x1080","","3664","50.93","img/117/4/1/bw/001.png","","","complex"
"","","","","","animation","28","562467","0.0-28.0","1920x1080","","2584.5999999940395","44.84","img/314/4/2/bw/001.png","","","complex"
"","","","","","animation","29","570898","0.0-29.0","1920x1080","","8429.700000017881","82","img/117/2.5/0.5/bw/001.png","","","complex"
"","","","","","animation","30","578656","0.0-30.0","1920x1080","","7758.9000000059605","81.88","img/117/2.5/0.66667/bw/001.png","","","complex"
"","","","","","animation","31","581233","0.0-31.0","1920x1080","","2575.5","48.81","img/117/4.5/0.66667/bw/001.png","","","complex"
"","","","","","animation","32","585217","0.0-32.0","1920x1080","","3983.5","51.85","img/238/4.5/0.66667/bw/001.png","","","complex"
"","","","","","animation","33","587985","0.0-33.0","1920x1080","","2766.4000000059605","43.92","img/117/5.5/1.5/bw/001.png","","","complex"
"","","","","","animation","34","590441","0.0-34.0","1920x1080","","2455.5","62.17","img/314/4/1.5/bw/001.png","","","complex"
"","","","","","animation","35","592817","0.0-35.0","1920x1080","","2374.800000011921","79.50","img/314/2.5/0.66667/bw/001.png","","","complex"
"","","","","","animation","36","595337","0.0-36.0","1920x1080","","2519.5999999940395","33.99","img/238/5.5/2/bw/001.png","","","complex"
"","","","","","animation","37","598601","0.0-37.0","1920x1080","","3262.699999988079","43.25","img/238/4/2/bw/001.png","","","complex"
"","","","","","animation","38","604489","0.0-38.0","1920x1080","","5887.299999982119","47.35","img/117/4.5/1/bw/001.png","","","complex"
"","","","","","animation","39","608297","0.0-39.0","1920x1080","","3807.7000000178814","60","img/117/3.5/2/bw/001.png","","","complex"
"","","","","","animation","40","611585","0.0-40.0","1920x1080","","3286.5","37.04","img/314/4.5/1/bw/001.png","","","complex"
"","","","","","animation","41","614489","0.0-41.0","1920x1080","","2903.5","79","img/238/2.5/0.5/bw/001.png","","","complex"
"","","","","","animation","42","622193","0.0-42.0","1920x1080","","7702.199999988079","44.71","img/314/5.5/1/bw/001.png","","","complex"
"","","","","","animation","43","626667","0.0-43.0","1920x1080","","4472.899999976158","50.93","img/314/5.5/0.5/bw/001.png","","","complex"
"","","","","","animation","44","631913","0.0-44.0","1920x1080","","5245.699999988079","60.32","img/314/3.5/2/bw/001.png","","","complex"
"","","","","","animation","45","636241","0.0-45.0","1920x1080","","4327","64.29","img/314/3.5/1/bw/001.png","","","complex"
"","","","","","animation","46","639023","0.0-46.0","1920x1080","","2783.0999999940395","62.17","img/238/4/0.66667/bw/001.png","","","complex"
"","","","","","animation","47","642944","0.0-47.0","1920x1080","","3919.199999988079","43.12","img/117/4.5/2/bw/001.png","","","complex"
"","","","","","animation","48","646416","0.0-48.0","1920x1080","","3471.5999999940395","49.74","img/238/3.5/0.5/bw/001.png","","","complex"
"","","","","","animation","49","651839","0.0-49.0","1920x1080","","5422.200000017881","51.98","img/314/5.5/0.66667/bw/001.png","","","complex"
"","","","","","animation","50","658119","0.0-50.0","1920x1080","","6279","74","img/117/2.5/1.5/bw/001.png","","","complex"
"","","","","","animation","51","662935","0.0-51.0","1920x1080","","4815.0999999940395","78.84","img/238/2.5/1/bw/001.png","","","complex"
"","","","","","animation","52","676087","0.0-52.0","1920x1080","","13151.09999999404","63","img/238/5.5/0.66667/bw/001.png","","","complex"
"","","","","","animation","53","679656","0.0-53.0","1920x1080","","3567","67.72","img/117/4/0.66667/bw/001.png","","","complex"
"","","","","","animation","54","682224","0.0-54.0","1920x1080","","2567.100000023842","47.88","img/314/5.5/1.5/bw/001.png","","","complex"
"","","","","","animation","55","685082","0.0-55.0","1920x1080","","2857.2000000178814","65.08","img/117/3.5/1/bw/001.png","","","complex"
"","","","","","animation","56","690703","0.0-56.0","1920x1080","","5620.5999999940395","71","img/238/5.5/1/bw/001.png","","","complex"
"","","","","","animation","57","693632","0.0-57.0","1920x1080","","2928","61.24","img/117/4.5/1.5/bw/001.png","","","complex"
"","","","","","animation","58","699749","0.0-58.0","1920x1080","","6117.199999988079","57","img/238/3.5/1.5/bw/001.png","","","complex"
"","","","","","animation","59","703125","0.0-59.0","1920x1080","","3375.5999999940395","44.58","img/314/4.5/2/bw/001.png","","","complex"
"","","","","","animation","60","705741","0.0-60.0","1920x1080","","2615.0999999940395","56.35","img/117/3.5/0.5/bw/001.png","","","complex"
"","","","","","animation","61","715053","0.0-61.0","1920x1080","","9311.09999999404","59","img/117/5.5/0.66667/bw/001.png","","","complex"
"","","","","","animation","62","738069","0.0-62.0","1920x1080","","23014.90000000596","43","img/238/3.5/2/bw/001.png","","","complex"
"","","","","","animation","63","740909","0.0-63.0","1920x1080","","2839.399999976158","62.70","img/117/5.5/0.5/bw/001.png","","","complex"
"","","","","","animation","64","746357","0.0-64.0","1920x1080","","5446.9000000059605","62.30","img/238/2.5/2/bw/001.png","","","complex"
"","","","","","animation","65","751853","0.0-65.0","1920x1080","","5494.5","73.94","img/238/4/1.5/bw/001.png","","","complex"
"","","","","","animation","66","756938","0.0-66.0","1920x1080","","5086.699999988079","79.76","img/238/5.5/0.5/bw/001.png","","","complex"
"","","","","","animation","67","761498","0.0-67.0","1920x1080","","4559.199999988079","51.59","img/238/4.5/2/bw/001.png","","","complex"
"","","","","","animation","68","768293","0.0-68.0","1920x1080","","6793.9000000059605","54.76","img/314/4/1/bw/001.png","","","complex"
"","","","","","animation","69","771698","0.0-69.0","1920x1080","","3404.0999999940395","66.93","img/238/2.5/0.66667/bw/001.png","","","complex"
"","","","","","animation","70","776293","0.0-70.0","1920x1080","","4593.899999976158","66.53","img/238/4/0.5/bw/001.png","","","complex"
"","","","","","animation","71","787970","0.0-71.0","1920x1080","","11675.799999982119","59","img/117/2.5/2/bw/001.png","","","complex"
"","","","","","animation","72","791826","0.0-72.0","1920x1080","","3855.199999988079","58.99","img/238/4/1/bw/001.png","","","complex"
"","","","","","animation","73","804610","0.0-73.0","1920x1080","","12782.800000011921","79","img/314/3.5/0.66667/bw/001.png","","","complex"
"","","","","","animation","74","808427","0.0-74.0","1920x1080","","3815.5","68.52","img/117/3.5/1.5/bw/001.png","","","complex"
"","","","","","animation","75","811994","0.0-75.0","1920x1080","","3566.7999999821186","81","img/238/4.5/0.5/bw/001.png","","","complex"
"","","","","","animation","76","820055","0.0-76.0","1920x1080","","8064.5","74.47","img/238/4.5/1/bw/001.png","","","complex"
"","","","","","animation","77","824126","0.0-77.0","1920x1080","","4069","54.50","img/238/5.5/1.5/bw/001.png","","","complex"
"","","","","","animation","78","826510","0.0-78.0","1920x1080","","2383.4000000059605","69.44","img/238/2.5/1.5/bw/001.png","","","complex"
"","","","","","animation","79","829406","0.0-79.0","1920x1080","","2895.4000000059605","72.35","img/117/3.5/0.66667/bw/001.png","","","complex"
"","","","","","animation","80","841062","0.0-80.0","1920x1080","","11654.600000023842","72.35","img/117/4.5/0.5/bw/001.png","","","complex"
"","","","","","animation","81","844262","0.0-81.0","1920x1080","","3198.5999999940395","77.25","img/314/2.5/0.5/bw/001.png","","","complex"
"","","","","","html-button-response","82","957845","0.0-82.0","1920x1080","","113576.5","","<div class=""intro"">You are about to view a new series of animations.<br><br></div><div class=""intro"">You will evaluate them based on a different descriptor.<br><br></div><div class=""intro"">Move the slider to indicate how <strong style=""text-transform:capitalize"">INTERESTING</strong> you find each animation.<br><br></div><div class=""intro"">0 = Least Interesting<br></div><div class=""intro"">1 = Most Interesting<br><br></div><div class=""intro"">Remember to use the <strong><em>entire range</em></strong> of the slider to make your ratings.<br></div><div class=""intro"">Please <strong><em>take your time</em></strong> and carefully consider each rating you make.<br><br></div>","0","",""
"","","","","","call-function","83","957851","0.0-83.0","1920x1080","","","","","","",""
"","","","","","animation","84","974955","0.0-84.0","1920x1080","","17102.90000000596","50.40","img/238/5.5/0.66667/bw/001.png","","","interesting"
"","","","","","animation","85","978915","0.0-85.0","1920x1080","","3958.2999999821186","42.06","img/238/5.5/1.5/bw/001.png","","","interesting"
"","","","","","animation","86","985910","0.0-86.0","1920x1080","","6993.700000017881","53.57","img/117/4.5/1/bw/001.png","","","interesting"
"","","","","","animation","87","993531","0.0-87.0","1920x1080","","7620.5","20.77","img/238/4/1.5/bw/001.png","","","interesting"
"","","","","","animation","88","999738","0.0-88.0","1920x1080","","6209.700000017881","24.47","img/314/5.5/2/bw/001.png","","","interesting"
"","","","","","animation","89","1020306","0.0-89.0","1920x1080","","20567","31","img/314/4.5/0.66667/bw/001.png","","","interesting"
"","","","","","animation","90","1026239","0.0-90.0","1920x1080","","5931.799999982119","4.10","img/314/2.5/1/bw/001.png","","","interesting"
"","","","","","animation","91","1037288","0.0-91.0","1920x1080","","11048.09999999404","27.91","img/314/4.5/1.5/bw/001.png","","","interesting"
"","","","","","animation","92","1042706","0.0-92.0","1920x1080","","5416.800000011921","55.16","img/314/5.5/0.66667/bw/001.png","","","interesting"
"","","","","","animation","93","1051999","0.0-93.0","1920x1080","","9291","58.20","img/117/5.5/0.66667/bw/001.png","","","interesting"
"","","","","","animation","94","1063621","0.0-94.0","1920x1080","","11622.199999988079","15","img/314/3.5/1.5/bw/001.png","","","interesting"
"","","","","","animation","95","1068381","0.0-95.0","1920x1080","","4759.699999988079","10.32","img/314/4/1.5/bw/001.png","","","interesting"
"","","","","","animation","96","1071565","0.0-96.0","1920x1080","","3182.699999988079","3.70","img/314/2.5/2/bw/001.png","","","interesting"
"","","","","","animation","97","1076845","0.0-97.0","1920x1080","","5278.799999982119","9.13","img/314/2.5/0.66667/bw/001.png","","","interesting"
"","","","","","animation","98","1090461","0.0-98.0","1920x1080","","13615.199999988079","14","img/314/2.5/0.5/bw/001.png","","","interesting"
"","","","","","animation","99","1103725","0.0-99.0","1920x1080","","13262.299999982119","23.41","img/238/4.5/1.5/bw/001.png","","","interesting"
"","","","","","animation","100","1111670","0.0-100.0","1920x1080","","7944","44.18","img/117/5.5/1/bw/001.png","","","interesting"
"","","","","","animation","101","1134787","0.0-101.0","1920x1080","","23117.30000001192","13","img/314/3.5/0.66667/bw/001.png","","","interesting"
"","","","","","animation","102","1146371","0.0-102.0","1920x1080","","11582.700000017881","66","img/314/5.5/1/bw/001.png","","","interesting"
"","","","","","animation","103","1153859","0.0-103.0","1920x1080","","7486.700000017881","79","img/117/5.5/0.5/bw/001.png","","","interesting"
"","","","","","animation","104","1162643","0.0-104.0","1920x1080","","8782.90000000596","21","img/117/3.5/0.66667/bw/001.png","","","interesting"
"","","","","","animation","105","1168387","0.0-105.0","1920x1080","","5742.4000000059605","5","img/314/2.5/1.5/bw/001.png","","","interesting"
"","","","","","animation","106","1181098","0.0-106.0","1920x1080","","12713.799999982119","10.58","img/117/3.5/1/bw/001.png","","","interesting"
"","","","","","animation","107","1190047","0.0-107.0","1920x1080","","8947.90000000596","12.96","img/314/3.5/2/bw/001.png","","","interesting"
"","","","","","animation","108","1201631","0.0-108.0","1920x1080","","11582.800000011921","14.29","img/238/4/1/bw/001.png","","","interesting"
"","","","","","animation","109","1213656","0.0-109.0","1920x1080","","12023.40000000596","58","img/238/5.5/0.5/bw/001.png","","","interesting"
"","","","","","animation","110","1219240","0.0-110.0","1920x1080","","5583","23.28","img/117/4/0.5/bw/001.png","","","interesting"
"","","","","","animation","111","1241853","0.0-111.0","1920x1080","","22607.20000001788","41.53","img/117/5.5/1.5/bw/001.png","","","interesting"
"","","","","","animation","112","1247813","0.0-112.0","1920x1080","","5958.5","21.56","img/238/3.5/1.5/bw/001.png","","","interesting"
"","","","","","animation","113","1252302","0.0-113.0","1920x1080","","4487.5","24.34","img/117/4.5/2/bw/001.png","","","interesting"
"","","","","","animation","114","1255853","0.0-114.0","1920x1080","","3549","10.58","img/117/2.5/0.5/bw/001.png","","","interesting"
"","","","","","animation","115","1259173","0.0-115.0","1920x1080","","3319.0999999940395","8.47","img/117/2.5/1/bw/001.png","","","interesting"
"","","","","","animation","116","1262429","0.0-116.0","1920x1080","","3255.4000000059605","12","img/314/4/0.5/bw/001.png","","","interesting"
"","","","","","animation","117","1304692","0.0-117.0","1920x1080","","42262.80000001192","25","img/238/3.5/0.5/bw/001.png","","","interesting"
"","","","","","animation","118","1309195","0.0-118.0","1920x1080","","4502.799999982119","28.17","img/238/4.5/0.5/bw/001.png","","","interesting"
"","","","","","animation","119","1314787","0.0-119.0","1920x1080","","5590.5999999940395","13","img/238/3.5/1/bw/001.png","","","interesting"
"","","","","","animation","120","1321428","0.0-120.0","1920x1080","","6639.4000000059605","21.16","img/238/4.5/0.66667/bw/001.png","","","interesting"
"","","","","","animation","121","1330100","0.0-121.0","1920x1080","","8671","11.51","img/238/3.5/0.66667/bw/001.png","","","interesting"
"","","","","","animation","122","1344988","0.0-122.0","1920x1080","","14886.700000017881","46","img/238/5.5/1/bw/001.png","","","interesting"
"","","","","","animation","123","1351219","0.0-123.0","1920x1080","","6229.0999999940395","61.11","img/314/5.5/0.5/bw/001.png","","","interesting"
"","","","","","animation","124","1355285","0.0-124.0","1920x1080","","4064.7000000178814","31.22","img/238/4.5/1/bw/001.png","","","interesting"
"","","","","","animation","125","1380399","0.0-125.0","1920x1080","","25113.69999998808","44","img/314/3.5/0.5/bw/001.png","","","interesting"
"","","","","","animation","126","1389534","0.0-126.0","1920x1080","","9131.600000023842","20","img/117/4.5/1.5/bw/001.png","","","interesting"
"","","","","","animation","127","1393400","0.0-127.0","1920x1080","","3864.9000000059605","10","img/117/2.5/1.5/bw/001.png","","","interesting"
"","","","","","animation","128","1396411","0.0-128.0","1920x1080","","3009.5999999940395","15.08","img/238/2.5/1.5/bw/001.png","","","interesting"
"","","","","","animation","129","1402891","0.0-129.0","1920x1080","","6478.5999999940395","16.93","img/117/2.5/2/bw/001.png","","","interesting"
"","","","","","animation","130","1408900","0.0-130.0","1920x1080","","6007.699999988079","20.63","img/238/4/0.5/bw/001.png","","","interesting"
"","","","","","animation","131","1437932","0.0-131.0","1920x1080","","29031.19999998808","20.50","img/117/4/0.66667/bw/001.png","","","interesting"
"","","","","","animation","132","1447450","0.0-132.0","1920x1080","","9517","29.50","img/238/4/0.66667/bw/001.png","","","interesting"
"","","","","","animation","133","1468067","0.0-133.0","1920x1080","","20616.09999999404","30","img/117/5.5/2/bw/001.png","","","interesting"
"","","","","","animation","134","1476740","0.0-134.0","1920x1080","","8669.799999982119","17.72","img/238/3.5/2/bw/001.png","","","interesting"
"","","","","","animation","135","1489740","0.0-135.0","1920x1080","","12999","19.58","img/117/4/1.5/bw/001.png","","","interesting"
"","","","","","animation","136","1501740","0.0-136.0","1920x1080","","11998.699999988079","30.69","img/117/3.5/2/bw/001.png","","","interesting"
"","","","","","animation","137","1512260","0.0-137.0","1920x1080","","10519","40.34","img/314/5.5/1.5/bw/001.png","","","interesting"
"","","","","","animation","138","1533683","0.0-138.0","1920x1080","","21422.70000001788","29.37","img/238/4.5/2/bw/001.png","","","interesting"
"","","","","","animation","139","1553106","0.0-139.0","1920x1080","","19423.09999999404","28.57","img/314/4.5/1/bw/001.png","","","interesting"
"","","","","","animation","140","1557914","0.0-140.0","1920x1080","","4807.0999999940395","26.72","img/117/4.5/0.5/bw/001.png","","","interesting"
"","","","","","animation","141","1560954","0.0-141.0","1920x1080","","3038.699999988079","9.26","img/238/2.5/0.66667/bw/001.png","","","interesting"
"","","","","","animation","142","1565402","0.0-142.0","1920x1080","","4447","12.04","img/117/4/2/bw/001.png","","","interesting"
"","","","","","animation","143","1570322","0.0-143.0","1920x1080","","4918.899999976158","8","img/238/2.5/2/bw/001.png","","","interesting"
"","","","","","animation","144","1575866","0.0-144.0","1920x1080","","5542.5999999940395","6.08","img/314/4/2/bw/001.png","","","interesting"
"","","","","","animation","145","1579882","0.0-145.0","1920x1080","","4014.4000000059605","11","img/238/2.5/0.5/bw/001.png","","","interesting"
"","","","","","animation","146","1583034","0.0-146.0","1920x1080","","3151.2000000178814","14.95","img/314/3.5/1/bw/001.png","","","interesting"
"","","","","","animation","147","1588274","0.0-147.0","1920x1080","","5238.9000000059605","20.77","img/314/4.5/2/bw/001.png","","","interesting"
"","","","","","animation","148","1605432","0.0-148.0","1920x1080","","17157.90000000596","33","img/314/4/1/bw/001.png","","","interesting"
"","","","","","animation","149","1620657","0.0-149.0","1920x1080","","15223.09999999404","44","img/238/4/2/bw/001.png","","","interesting"
"","","","","","animation","150","1624963","0.0-150.0","1920x1080","","4305.700000017881","43.65","img/117/4.5/0.66667/bw/001.png","","","interesting"
"","","","","","animation","151","1627597","0.0-151.0","1920x1080","","2632.199999988079","7.01","img/238/2.5/1/bw/001.png","","","interesting"
"","","","","","animation","152","1634281","0.0-152.0","1920x1080","","6682.800000011921","60","img/314/4.5/0.5/bw/001.png","","","interesting"
"","","","","","animation","153","1646698","0.0-153.0","1920x1080","","12416.09999999404","41","img/238/5.5/2/bw/001.png","","","interesting"
"","","","","","animation","154","1667829","0.0-154.0","1920x1080","","21131","18.78","img/117/4/1/bw/001.png","","","interesting"
"","","","","","animation","155","1672745","0.0-155.0","1920x1080","","4915","9.13","img/117/2.5/0.66667/bw/001.png","","","interesting"
"","","","","","animation","156","1706704","0.0-156.0","1920x1080","","33958.30000001192","25.00","img/314/4/0.66667/bw/001.png","","","interesting"
"","","","","","animation","157","1713028","0.0-157.0","1920x1080","","6322.799999982119","14.55","img/117/3.5/0.5/bw/001.png","","","interesting"
"","","","","","animation","158","1720383","0.0-158.0","1920x1080","","7355.200000017881","12.04","img/117/3.5/1.5/bw/001.png","","","interesting"
"","","","","","html-button-response","159","1773071","0.0-159.0","1920x1080","","52685.90000000596","","<div class=""intro"">You are about to view a new series of animations.<br><br></div><div class=""intro"">You will evaluate them based on a different descriptor.<br><br></div><div class=""intro"">Move the slider to indicate how <strong style=""text-transform:capitalize"">RELAXING</strong> you find each animation.<br><br></div><div class=""intro"">0 = Least Relaxing<br></div><div class=""intro"">1 = Most Relaxing<br><br></div><div class=""intro"">Remember to use the <strong><em>entire range</em></strong> of the slider to make your ratings.<br></div><div class=""intro"">Please <strong><em>take your time</em></strong> and carefully consider each rating you make.<br><br></div>","0","",""
"","","","","","call-function","160","1773075","0.0-160.0","1920x1080","","","","","","",""
"","","","","","animation","161","1783703","0.0-161.0","1920x1080","","10618.299999982119","20","img/238/4.5/0.66667/bw/001.png","","","relaxing"
"","","","","","animation","162","1786869","0.0-162.0","1920x1080","","3163.0999999940395","5.03","img/314/2.5/1.5/bw/001.png","","","relaxing"
"","","","","","animation","163","1791224","0.0-163.0","1920x1080","","4353.800000011921","5.95","img/117/3.5/1/bw/001.png","","","relaxing"
"","","","","","animation","164","1798652","0.0-164.0","1920x1080","","7427.5999999940395","70.37","img/314/4.5/2/bw/001.png","","","relaxing"
"","","","","","animation","165","1802420","0.0-165.0","1920x1080","","3764.899999976158","17.06","img/314/3.5/2/bw/001.png","","","relaxing"
"","","","","","animation","166","1808270","0.0-166.0","1920x1080","","5848.5","64.55","img/238/4.5/2/bw/001.png","","","relaxing"
"","","","","","animation","167","1818175","0.0-167.0","1920x1080","","9904.399999976158","19","img/117/4.5/0.66667/bw/001.png","","","relaxing"
"","","","","","animation","168","1821985","0.0-168.0","1920x1080","","3808.699999988079","10.45","img/238/3.5/1.5/bw/001.png","","","relaxing"
"","","","","","animation","169","1827008","0.0-169.0","1920x1080","","5021.5999999940395","15.34","img/238/4.5/0.5/bw/001.png","","","relaxing"
"","","","","","animation","170","1831519","0.0-170.0","1920x1080","","4510.0999999940395","8.07","img/117/4/0.5/bw/001.png","","","relaxing"
"","","","","","animation","171","1843686","0.0-171.0","1920x1080","","12165.09999999404","71.03","img/314/5.5/1.5/bw/001.png","","","relaxing"
"","","","","","animation","172","1849255","0.0-172.0","1920x1080","","5568.700000017881","12","img/314/4/0.5/bw/001.png","","","relaxing"
"","","","","","animation","173","1851655","0.0-173.0","1920x1080","","2398.7999999821186","1.72","img/117/2.5/0.5/bw/001.png","","","relaxing"
"","","","","","animation","174","1860040","0.0-174.0","1920x1080","","8383.399999976158","85.85","img/238/5.5/2/bw/001.png","","","relaxing"
"","","","","","animation","175","1865687","0.0-175.0","1920x1080","","5646.300000011921","40.87","img/238/4.5/1/bw/001.png","","","relaxing"
"","","","","","animation","176","1871819","0.0-176.0","1920x1080","","6130.299999982119","65","img/117/4.5/1.5/bw/001.png","","","relaxing"
"","","","","","animation","177","1877087","0.0-177.0","1920x1080","","5267.700000017881","19.18","img/117/3.5/0.66667/bw/001.png","","","relaxing"
"","","","","","animation","178","1890728","0.0-178.0","1920x1080","","13639.300000011921","25","img/117/2.5/2/bw/001.png","","","relaxing"
"","","","","","animation","179","1893851","0.0-179.0","1920x1080","","3121.9000000059605","24.47","img/314/2.5/2/bw/001.png","","","relaxing"
"","","","","","animation","180","1900706","0.0-180.0","1920x1080","","6859.399999976158","14.29","img/117/3.5/1.5/bw/001.png","","","relaxing"
"","","","","","animation","181","1912106","0.0-181.0","1920x1080","","11398.700000017881","9.13","img/314/4.5/0.5/bw/001.png","","","relaxing"
"","","","","","animation","182","1914381","0.0-182.0","1920x1080","","2272.199999988079","1.32","img/314/2.5/1/bw/001.png","","","relaxing"
"","","","","","animation","183","1918948","0.0-183.0","1920x1080","","4566","5.16","img/238/3.5/0.66667/bw/001.png","","","relaxing"
"","","","","","animation","184","1923154","0.0-184.0","1920x1080","","4204.899999976158","5","img/314/4/0.66667/bw/001.png","","","relaxing"
"","","","","","animation","185","1926386","0.0-185.0","1920x1080","","3231","2.51","img/314/3.5/0.5/bw/001.png","","","relaxing"
"","","","","","animation","186","1929234","0.0-186.0","1920x1080","","2846.399999976158","8.86","img/238/3.5/1/bw/001.png","","","relaxing"
"","","","","","animation","187","1934706","0.0-187.0","1920x1080","","5471","39.55","img/314/4.5/1/bw/001.png","","","relaxing"
"","","","","","animation","188","1939363","0.0-188.0","1920x1080","","4655.5","53.17","img/238/5.5/0.66667/bw/001.png","","","relaxing"
"","","","","","animation","189","1944082","0.0-189.0","1920x1080","","4717.5999999940395","21","img/117/4/1/bw/001.png","","","relaxing"
"","","","","","animation","190","1982595","0.0-190.0","1920x1080","","38513.59999999404","14.55","img/117/4.5/0.5/bw/001.png","","","relaxing"
"","","","","","animation","191","1989769","0.0-191.0","1920x1080","","7172.300000011921","35.19","img/314/4/1.5/bw/001.png","","","relaxing"
"","","","","","animation","192","1992511","0.0-192.0","1920x1080","","2739.5999999940395","9.26","img/238/2.5/0.5/bw/001.png","","","relaxing"
"","","","","","animation","193","1995249","0.0-193.0","1920x1080","","2736.5999999940395","15.87","img/314/3.5/0.66667/bw/001.png","","","relaxing"
"","","","","","animation","194","2013446","0.0-194.0","1920x1080","","18195.19999998808","18.78","img/117/4/0.66667/bw/001.png","","","relaxing"
"","","","","","animation","195","2018428","0.0-195.0","1920x1080","","4981.9000000059605","42.59","img/117/5.5/0.66667/bw/001.png","","","relaxing"
"","","","","","animation","196","2023477","0.0-196.0","1920x1080","","5047.9000000059605","53.31","img/117/4.5/2/bw/001.png","","","relaxing"
"","","","","","animation","197","2027520","0.0-197.0","1920x1080","","4041.699999988079","67.99","img/117/5.5/2/bw/001.png","","","relaxing"
"","","","","","animation","198","2030863","0.0-198.0","1920x1080","","3341.300000011921","51.46","img/314/4.5/1.5/bw/001.png","","","relaxing"
"","","","","","animation","199","2034880","0.0-199.0","1920x1080","","4015.7000000178814","26.85","img/314/3.5/1/bw/001.png","","","relaxing"
"","","","","","animation","200","2042512","0.0-200.0","1920x1080","","7630.699999988079","64.81","img/117/5.5/1/bw/001.png","","","relaxing"
"","","","","","animation","201","2045077","0.0-201.0","1920x1080","","2564","14.15","img/238/3.5/0.5/bw/001.png","","","relaxing"
"","","","","","animation","202","2048121","0.0-202.0","1920x1080","","3042.2999999821186","19.84","img/238/4/1/bw/001.png","","","relaxing"
"","","","","","animation","203","2053584","0.0-203.0","1920x1080","","5462.699999988079","79","img/117/5.5/1.5/bw/001.png","","","relaxing"
"","","","","","animation","204","2059496","0.0-204.0","1920x1080","","5910.199999988079","30","img/314/5.5/0.5/bw/001.png","","","relaxing"
"","","","","","animation","205","2069144","0.0-205.0","1920x1080","","9646.90000000596","49","img/314/4/2/bw/001.png","","","relaxing"
"","","","","","animation","206","2082029","0.0-206.0","1920x1080","","12882.299999982119","52","img/238/5.5/0.5/bw/001.png","","","relaxing"
"","","","","","animation","207","2089979","0.0-207.0","1920x1080","","7948.800000011921","44.44","img/314/4/1/bw/001.png","","","relaxing"
"","","","","","animation","208","2095266","0.0-208.0","1920x1080","","5286.0999999940395","35.32","img/238/2.5/2/bw/001.png","","","relaxing"
"","","","","","animation","209","2100212","0.0-209.0","1920x1080","","4945.100000023842","19","img/238/2.5/1.5/bw/001.png","","","relaxing"
"","","","","","animation","210","2103002","0.0-210.0","1920x1080","","2789","1.19","img/314/2.5/0.5/bw/001.png","","","relaxing"
"","","","","","animation","211","2143712","0.0-211.0","1920x1080","","40708.5","50","img/117/4.5/1/bw/001.png","","","relaxing"
"","","","","","animation","212","2151554","0.0-212.0","1920x1080","","7838.5","83.20","img/314/5.5/1/bw/001.png","","","relaxing"
"","","","","","animation","213","2159679","0.0-213.0","1920x1080","","8124.199999988079","81.75","img/238/5.5/1/bw/001.png","","","relaxing"
"","","","","","animation","214","2164002","0.0-214.0","1920x1080","","4320.699999988079","29.50","img/314/4.5/0.66667/bw/001.png","","","relaxing"
"","","","","","animation","215","2169461","0.0-215.0","1920x1080","","5458.4000000059605","0.00","img/238/2.5/0.66667/bw/001.png","","","relaxing"
"","","","","","animation","216","2174214","0.0-216.0","1920x1080","","4752.199999988079","0.53","img/314/2.5/0.66667/bw/001.png","","","relaxing"
"","","","","","animation","217","2186186","0.0-217.0","1920x1080","","11969.299999982119","21.96","img/238/4/0.66667/bw/001.png","","","relaxing"
"","","","","","animation","218","2192478","0.0-218.0","1920x1080","","6291","69","img/238/4.5/1.5/bw/001.png","","","relaxing"
"","","","","","animation","219","2197276","0.0-219.0","1920x1080","","4798.0999999940395","44.05","img/314/3.5/1.5/bw/001.png","","","relaxing"
"","","","","","animation","220","2202295","0.0-220.0","1920x1080","","5018.5","17.86","img/117/3.5/0.5/bw/001.png","","","relaxing"
"","","","","","animation","221","2230692","0.0-221.0","1920x1080","","28395.90000000596","12.70","img/238/4/0.5/bw/001.png","","","relaxing"
"","","","","","animation","222","2236226","0.0-222.0","1920x1080","","5532.200000017881","41.40","img/117/4/1.5/bw/001.png","","","relaxing"
"","","","","","animation","223","2238279","0.0-223.0","1920x1080","","2052.300000011921","11.64","img/117/2.5/1/bw/001.png","","","relaxing"
"","","","","","animation","224","2241048","0.0-224.0","1920x1080","","2767","62.83","img/314/5.5/2/bw/001.png","","","relaxing"
"","","","","","animation","225","2243847","0.0-225.0","1920x1080","","2798.699999988079","46.30","img/314/5.5/0.66667/bw/001.png","","","relaxing"
"","","","","","animation","226","2247095","0.0-226.0","1920x1080","","3246.4000000059605","42.59","img/117/5.5/0.5/bw/001.png","","","relaxing"
"","","","","","animation","227","2258741","0.0-227.0","1920x1080","","11645.899999976158","60","img/238/4/1.5/bw/001.png","","","relaxing"
"","","","","","animation","228","2262274","0.0-228.0","1920x1080","","3531.5999999940395","60.19","img/238/4/2/bw/001.png","","","relaxing"
"","","","","","animation","229","2266241","0.0-229.0","1920x1080","","3965.7000000178814","3.70","img/238/2.5/1/bw/001.png","","","relaxing"
"","","","","","animation","230","2277510","0.0-230.0","1920x1080","","11267.800000011921","42.86","img/238/3.5/2/bw/001.png","","","relaxing"
"","","","","","animation","231","2279724","0.0-231.0","1920x1080","","2213.0999999940395","4.63","img/117/2.5/1.5/bw/001.png","","","relaxing"
"","","","","","animation","232","2283491","0.0-232.0","1920x1080","","3765.5","36.24","img/117/4/2/bw/001.png","","","relaxing"
"","","","","","animation","233","2286658","0.0-233.0","1920x1080","","3165.9000000059605","29.63","img/117/3.5/2/bw/001.png","","","relaxing"
"","","","","","animation","234","2288958","0.0-234.0","1920x1080","","2298.100000023842","3.70","img/117/2.5/0.66667/bw/001.png","","","relaxing"
"","","","","","animation","235","2294758","0.0-235.0","1920x1080","","5799.4000000059605","90","img/238/5.5/1.5/bw/001.png","","","relaxing"
"","","","","","html-button-response","236","2333424","0.0-236.0","1920x1080","","38654.40000000596","","<div class=""intro"">You are about to view a new series of animations.<br><br></div><div class=""intro"">You will evaluate them based on a different descriptor.<br><br></div><div class=""intro"">Move the slider to indicate how <strong style=""text-transform:capitalize"">NATURAL</strong> you find each animation.<br><br></div><div class=""intro"">0 = Least Natural<br></div><div class=""intro"">1 = Most Natural<br><br></div><div class=""intro"">Remember to use the <strong><em>entire range</em></strong> of the slider to make your ratings.<br></div><div class=""intro"">Please <strong><em>take your time</em></strong> and carefully consider each rating you make.<br><br></div>","0","",""
"","","","","","call-function","237","2333430","0.0-237.0","1920x1080","","","","","","",""
"","","","","","animation","238","2346352","0.0-238.0","1920x1080","","12920.40000000596","83.47","img/314/5.5/1/bw/001.png","","","natural"
"","","","","","animation","239","2351056","0.0-239.0","1920x1080","","4703","45.24","img/117/3.5/1.5/bw/001.png","","","natural"
"","","","","","animation","240","2358634","0.0-240.0","1920x1080","","7576.5999999940395","35.85","img/238/2.5/1.5/bw/001.png","","","natural"
"","","","","","animation","241","2369352","0.0-241.0","1920x1080","","10716.800000011921","32.41","img/314/3.5/1/bw/001.png","","","natural"
"","","","","","animation","242","2373440","0.0-242.0","1920x1080","","4087.4000000059605","25.40","img/238/4.5/0.5/bw/001.png","","","natural"
"","","","","","animation","243","2377577","0.0-243.0","1920x1080","","4141.5","25.00","img/117/4.5/0.5/bw/001.png","","","natural"
"","","","","","animation","244","2381881","0.0-244.0","1920x1080","","4303","64.29","img/238/4.5/1/bw/001.png","","","natural"
"","","","","","animation","245","2395160","0.0-245.0","1920x1080","","13276.90000000596","75.53","img/238/3.5/1.5/bw/001.png","","","natural"
"","","","","","animation","246","2406110","0.0-246.0","1920x1080","","10949.09999999404","15.34","img/117/3.5/0.5/bw/001.png","","","natural"
"","","","","","animation","247","2409477","0.0-247.0","1920x1080","","3365.4000000059605","45.37","img/314/3.5/1.5/bw/001.png","","","natural"
"","","","","","animation","248","2417127","0.0-248.0","1920x1080","","7647.799999982119","36.77","img/117/5.5/1/bw/001.png","","","natural"
"","","","","","animation","249","2424145","0.0-249.0","1920x1080","","7017.0999999940395","27","img/238/2.5/0.5/bw/001.png","","","natural"
"","","","","","animation","250","2428561","0.0-250.0","1920x1080","","4414.5999999940395","34.52","img/314/4.5/1.5/bw/001.png","","","natural"
"","","","","","animation","251","2432927","0.0-251.0","1920x1080","","4364.5","9","img/238/4/0.5/bw/001.png","","","natural"
"","","","","","animation","252","2441825","0.0-252.0","1920x1080","","8897.799999982119","22","img/314/5.5/0.5/bw/001.png","","","natural"
"","","","","","animation","253","2446279","0.0-253.0","1920x1080","","4452.700000017881","68.39","img/117/4.5/2/bw/001.png","","","natural"
"","","","","","animation","254","2448343","0.0-254.0","1920x1080","","2062.199999988079","76.19","img/238/4.5/2/bw/001.png","","","natural"
"","","","","","animation","255","2456511","0.0-255.0","1920x1080","","8167.0999999940395","75.53","img/117/3.5/1/bw/001.png","","","natural"
"","","","","","animation","256","2460127","0.0-256.0","1920x1080","","3614.699999988079","28.57","img/117/3.5/0.66667/bw/001.png","","","natural"
"","","","","","animation","257","2463574","0.0-257.0","1920x1080","","3446.199999988079","39","img/117/2.5/0.5/bw/001.png","","","natural"
"","","","","","animation","258","2466631","0.0-258.0","1920x1080","","3056","30.29","img/238/4/0.66667/bw/001.png","","","natural"
"","","","","","animation","259","2469375","0.0-259.0","1920x1080","","2742.4000000059605","32.28","img/314/2.5/0.5/bw/001.png","","","natural"
"","","","","","animation","260","2475558","0.0-260.0","1920x1080","","6181.4000000059605","44.44","img/314/4/2/bw/001.png","","","natural"
"","","","","","animation","261","2480974","0.0-261.0","1920x1080","","5414.800000011921","51.72","img/314/3.5/2/bw/001.png","","","natural"
"","","","","","animation","262","2487895","0.0-262.0","1920x1080","","6920","39","img/238/4.5/1.5/bw/001.png","","","natural"
"","","","","","animation","263","2491992","0.0-263.0","1920x1080","","4095.300000011921","29.89","img/314/4/0.5/bw/001.png","","","natural"
"","","","","","animation","264","2498111","0.0-264.0","1920x1080","","6117.699999988079","41.40","img/238/5.5/1.5/bw/001.png","","","natural"
"","","","","","animation","265","2519158","0.0-265.0","1920x1080","","21045.899999976158","49.34","img/238/2.5/1/bw/001.png","","","natural"
"","","","","","animation","266","2532479","0.0-266.0","1920x1080","","13316.90000000596","23.28","img/314/2.5/0.66667/bw/001.png","","","natural"
"","","","","","animation","267","2537463","0.0-267.0","1920x1080","","4982.799999982119","29.76","img/314/4.5/0.5/bw/001.png","","","natural"
"","","","","","animation","268","2544441","0.0-268.0","1920x1080","","6976","42","img/314/2.5/1.5/bw/001.png","","","natural"
"","","","","","animation","269","2547441","0.0-269.0","1920x1080","","2998.7000000178814","44.18","img/314/2.5/2/bw/001.png","","","natural"
"","","","","","animation","270","2553527","0.0-270.0","1920x1080","","6084.800000011921","39.55","img/117/5.5/0.66667/bw/001.png","","","natural"
"","","","","","animation","271","2556625","0.0-271.0","1920x1080","","3095.9000000059605","25","img/117/4.5/0.66667/bw/001.png","","","natural"
"","","","","","animation","272","2559942","0.0-272.0","1920x1080","","3315.0999999940395","39.95","img/238/3.5/0.66667/bw/001.png","","","natural"
"","","","","","animation","273","2563059","0.0-273.0","1920x1080","","3115.2000000178814","47.35","img/117/2.5/1/bw/001.png","","","natural"
"","","","","","animation","274","2586792","0.0-274.0","1920x1080","","23731.600000023842","44","img/314/4/0.66667/bw/001.png","","","natural"
"","","","","","animation","275","2589360","0.0-275.0","1920x1080","","2566.5999999940395","46.43","img/117/2.5/0.66667/bw/001.png","","","natural"
"","","","","","animation","276","2599725","0.0-276.0","1920x1080","","10364.199999988079","27","img/117/4/0.66667/bw/001.png","","","natural"
"","","","","","animation","277","2619241","0.0-277.0","1920x1080","","19515","69.44","img/117/4/2/bw/001.png","","","natural"
"","","","","","animation","278","2623858","0.0-278.0","1920x1080","","4615.699999988079","45.77","img/314/2.5/1/bw/001.png","","","natural"
"","","","","","animation","279","2626791","0.0-279.0","1920x1080","","2930.5999999940395","34","img/117/4.5/1/bw/001.png","","","natural"
"","","","","","animation","280","2632275","0.0-280.0","1920x1080","","5482.0999999940395","24.60","img/238/4.5/0.66667/bw/001.png","","","natural"
"","","","","","animation","281","2647459","0.0-281.0","1920x1080","","15182.799999982119","35.19","img/314/5.5/0.66667/bw/001.png","","","natural"
"","","","","","animation","282","2657741","0.0-282.0","1920x1080","","10276.40000000596","39","img/238/3.5/1/bw/001.png","","","natural"
"","","","","","animation","283","2667280","0.0-283.0","1920x1080","","9537.100000023842","48.68","img/117/4/1/bw/001.png","","","natural"
"","","","","","animation","284","2672775","0.0-284.0","1920x1080","","5493.5","53","img/238/4/1.5/bw/001.png","","","natural"
"","","","","","animation","285","2682806","0.0-285.0","1920x1080","","10031.800000011921","31.61","img/117/4/0.5/bw/001.png","","","natural"
"","","","","","animation","286","2686974","0.0-286.0","1920x1080","","4166.600000023842","65","img/238/3.5/2/bw/001.png","","","natural"
"","","","","","animation","287","2690282","0.0-287.0","1920x1080","","3306.4000000059605","37.30","img/238/2.5/0.66667/bw/001.png","","","natural"
"","","","","","animation","288","2693540","0.0-288.0","1920x1080","","3252.199999988079","63.76","img/314/4/1.5/bw/001.png","","","natural"
"","","","","","animation","289","2706246","0.0-289.0","1920x1080","","12705.199999988079","27.12","img/314/3.5/0.66667/bw/001.png","","","natural"
"","","","","","animation","290","2715278","0.0-290.0","1920x1080","","9030.09999999404","21.03","img/314/3.5/0.5/bw/001.png","","","natural"
"","","","","","animation","291","2722895","0.0-291.0","1920x1080","","7614.5","14.81","img/238/3.5/0.5/bw/001.png","","","natural"
"","","","","","animation","292","2728926","0.0-292.0","1920x1080","","6029.800000011921","40.21","img/117/4.5/1.5/bw/001.png","","","natural"
"","","","","","animation","293","2732191","0.0-293.0","1920x1080","","3261.800000011921","46.83","img/314/5.5/2/bw/001.png","","","natural"
"","","","","","animation","294","2736111","0.0-294.0","1920x1080","","3917.7000000178814","33.20","img/238/5.5/0.5/bw/001.png","","","natural"
"","","","","","animation","295","2739842","0.0-295.0","1920x1080","","3727.5","49.74","img/117/2.5/1.5/bw/001.png","","","natural"
"","","","","","animation","296","2744042","0.0-296.0","1920x1080","","4198","45.37","img/238/5.5/1/bw/001.png","","","natural"
"","","","","","animation","297","2746826","0.0-297.0","1920x1080","","2782.5","50.93","img/117/2.5/2/bw/001.png","","","natural"
"","","","","","animation","298","2749961","0.0-298.0","1920x1080","","3134.199999988079","38.76","img/314/4.5/1/bw/001.png","","","natural"
"","","","","","animation","299","2752742","0.0-299.0","1920x1080","","2780","60.98","img/314/4.5/2/bw/001.png","","","natural"
"","","","","","animation","300","2755049","0.0-300.0","1920x1080","","2305.0999999940395","52.25","img/238/2.5/2/bw/001.png","","","natural"
"","","","","","animation","301","2758092","0.0-301.0","1920x1080","","3041.399999976158","66.14","img/117/3.5/2/bw/001.png","","","natural"
"","","","","","animation","302","2761161","0.0-302.0","1920x1080","","3067.5999999940395","43.65","img/238/5.5/0.66667/bw/001.png","","","natural"
"","","","","","animation","303","2765129","0.0-303.0","1920x1080","","3966.9000000059605","44.44","img/238/5.5/2/bw/001.png","","","natural"
"","","","","","animation","304","2768642","0.0-304.0","1920x1080","","3511.5","46.56","img/117/5.5/1.5/bw/001.png","","","natural"
"","","","","","animation","305","2777459","0.0-305.0","1920x1080","","8815.90000000596","46.03","img/314/5.5/1.5/bw/001.png","","","natural"
"","","","","","animation","306","2779745","0.0-306.0","1920x1080","","2284.699999988079","52.12","img/117/5.5/2/bw/001.png","","","natural"
"","","","","","animation","307","2782681","0.0-307.0","1920x1080","","2935","30.29","img/314/4.5/0.66667/bw/001.png","","","natural"
"","","","","","animation","308","2785410","0.0-308.0","1920x1080","","2726.800000011921","15.87","img/238/4/1/bw/001.png","","","natural"
"","","","","","animation","309","2788561","0.0-309.0","1920x1080","","3149.5","35.71","img/117/4/1.5/bw/001.png","","","natural"
"","","","","","animation","310","2790929","0.0-310.0","1920x1080","","2367","20.37","img/117/5.5/0.5/bw/001.png","","","natural"
"","","","","","animation","311","2793626","0.0-311.0","1920x1080","","2695.300000011921","33.07","img/314/4/1/bw/001.png","","","natural"
"","","","","","animation","312","2796584","0.0-312.0","1920x1080","","2956.5","35.98","img/238/4/2/bw/001.png","","","natural"
"","","","","","html-button-response","313","2847307","0.0-313.0","1920x1080","","50712.19999998808","","<div class=""intro"">You are about to view a new series of animations.<br><br></div><div class=""intro"">You will evaluate them based on a different descriptor.<br><br></div><div class=""intro"">Move the slider to indicate how <strong style=""text-transform:capitalize"">APPEALING</strong> you find each animation.<br><br></div><div class=""intro"">0 = Least Appealing<br></div><div class=""intro"">1 = Most Appealing<br><br></div><div class=""intro"">Remember to use the <strong><em>entire range</em></strong> of the slider to make your ratings.<br></div><div class=""intro"">Please <strong><em>take your time</em></strong> and carefully consider each rating you make.<br><br></div>","0","",""
"","","","","","call-function","314","2847311","0.0-314.0","1920x1080","","","","","","",""
"","","","","","animation","315","2852451","0.0-315.0","1920x1080","","5138.5","34.92","img/238/4/2/bw/001.png","","","appealing"
"","","","","","animation","316","2857211","0.0-316.0","1920x1080","","4765.699999988079","85.19","img/314/5.5/0.5/bw/001.png","","","appealing"
"","","","","","animation","317","2861027","0.0-317.0","1920x1080","","3814.5","20.37","img/238/4/0.5/bw/001.png","","","appealing"
"","","","","","animation","318","2863747","0.0-318.0","1920x1080","","2718","2.65","img/238/2.5/0.5/bw/001.png","","","appealing"
"","","","","","animation","319","2867083","0.0-319.0","1920x1080","","3334.7000000178814","81.08","img/117/4.5/2/bw/001.png","","","appealing"
"","","","","","animation","320","2872316","0.0-320.0","1920x1080","","5231.5","84","img/238/5.5/0.5/bw/001.png","","","appealing"
"","","","","","animation","321","2876494","0.0-321.0","1920x1080","","4174.700000017881","39.95","img/117/4.5/0.5/bw/001.png","","","appealing"
"","","","","","animation","322","2879737","0.0-322.0","1920x1080","","3241.4000000059605","31.22","img/117/2.5/1.5/bw/001.png","","","appealing"
"","","","","","animation","323","2886028","0.0-323.0","1920x1080","","6256.299999982119","78","img/314/5.5/1/bw/001.png","","","appealing"
"","","","","","animation","324","2888977","0.0-324.0","1920x1080","","2947.7000000178814","54.63","img/117/3.5/1.5/bw/001.png","","","appealing"
"","","","","","animation","325","2891977","0.0-325.0","1920x1080","","2998.800000011921","66.67","img/238/4/1/bw/001.png","","","appealing"
"","","","","","animation","326","2894411","0.0-326.0","1920x1080","","2432.5","26.59","img/238/2.5/0.66667/bw/001.png","","","appealing"
"","","","","","animation","327","2898866","0.0-327.0","1920x1080","","4453.5","17","img/314/2.5/1/bw/001.png","","","appealing"
"","","","","","animation","328","2903499","0.0-328.0","1920x1080","","4631.5999999940395","30.42","img/238/2.5/2/bw/001.png","","","appealing"
"","","","","","animation","329","2908047","0.0-329.0","1920x1080","","4546.0999999940395","20.90","img/238/2.5/1/bw/001.png","","","appealing"
"","","","","","animation","330","2911103","0.0-330.0","1920x1080","","3052.4000000059605","10.05","img/314/3.5/0.5/bw/001.png","","","appealing"
"","","","","","animation","331","2913761","0.0-331.0","1920x1080","","2656.0999999940395","36","img/314/4.5/1.5/bw/001.png","","","appealing"
"","","","","","animation","332","2929883","0.0-332.0","1920x1080","","16121.199999988079","63.23","img/238/4.5/2/bw/001.png","","","appealing"
"","","","","","animation","333","2932549","0.0-333.0","1920x1080","","2664.899999976158","34.92","img/314/4.5/0.66667/bw/001.png","","","appealing"
"","","","","","animation","334","2938343","0.0-334.0","1920x1080","","5792.800000011921","49","img/238/4/1.5/bw/001.png","","","appealing"
"","","","","","animation","335","2941201","0.0-335.0","1920x1080","","2857.199999988079","25.26","img/117/4/0.66667/bw/001.png","","","appealing"
"","","","","","animation","336","2943883","0.0-336.0","1920x1080","","2679.7000000178814","37","img/314/3.5/1.5/bw/001.png","","","appealing"
"","","","","","animation","337","2946331","0.0-337.0","1920x1080","","2446.5999999940395","64.68","img/117/5.5/0.5/bw/001.png","","","appealing"
"","","","","","animation","338","2952060","0.0-338.0","1920x1080","","5727.9000000059605","82.14","img/238/5.5/1.5/bw/001.png","","","appealing"
"","","","","","animation","339","2955193","0.0-339.0","1920x1080","","3129.2000000178814","13.23","img/314/2.5/2/bw/001.png","","","appealing"
"","","","","","animation","340","2957478","0.0-340.0","1920x1080","","2282.600000023842","16.27","img/117/2.5/2/bw/001.png","","","appealing"
"","","","","","animation","341","2995938","0.0-341.0","1920x1080","","38461.59999999404","53.84","img/117/4.5/1/bw/001.png","","","appealing"
"","","","","","animation","342","2999625","0.0-342.0","1920x1080","","3684.800000011921","25.13","img/117/3.5/1/bw/001.png","","","appealing"
"","","","","","animation","343","3002341","0.0-343.0","1920x1080","","2714.5","73.54","img/117/5.5/1/bw/001.png","","","appealing"
"","","","","","animation","344","3006558","0.0-344.0","1920x1080","","4215.4000000059605","34.39","img/314/4.5/0.5/bw/001.png","","","appealing"
"","","","","","animation","345","3016332","0.0-345.0","1920x1080","","9772.199999988079","36","img/117/3.5/0.66667/bw/001.png","","","appealing"
"","","","","","animation","346","3022840","0.0-346.0","1920x1080","","6507","60.58","img/314/5.5/2/bw/001.png","","","appealing"
"","","","","","animation","347","3025241","0.0-347.0","1920x1080","","2399","6","img/117/2.5/1/bw/001.png","","","appealing"
"","","","","","animation","348","3027842","0.0-348.0","1920x1080","","2599.4000000059605","83.86","img/238/5.5/1/bw/001.png","","","appealing"
"","","","","","animation","349","3030657","0.0-349.0","1920x1080","","2814","49","img/314/3.5/2/bw/001.png","","","appealing"
"","","","","","animation","350","3034357","0.0-350.0","1920x1080","","3697.7999999821186","57.01","img/117/4/2/bw/001.png","","","appealing"
"","","","","","animation","351","3036719","0.0-351.0","1920x1080","","2354.4000000059605","5.03","img/314/2.5/1.5/bw/001.png","","","appealing"
"","","","","","animation","352","3039064","0.0-352.0","1920x1080","","2344","70.11","img/314/4.5/2/bw/001.png","","","appealing"
"","","","","","animation","353","3042303","0.0-353.0","1920x1080","","3237.2000000178814","87.57","img/238/4.5/0.66667/bw/001.png","","","appealing"
"","","","","","animation","354","3047247","0.0-354.0","1920x1080","","4942.199999988079","58","img/314/4/1.5/bw/001.png","","","appealing"
"","","","","","animation","355","3050424","0.0-355.0","1920x1080","","3176.0999999940395","44.71","img/238/3.5/1.5/bw/001.png","","","appealing"
"","","","","","animation","356","3053680","0.0-356.0","1920x1080","","3254.4000000059605","39.81","img/117/3.5/2/bw/001.png","","","appealing"
"","","","","","animation","357","3057389","0.0-357.0","1920x1080","","3707.199999988079","72.09","img/117/4.5/0.66667/bw/001.png","","","appealing"
"","","","","","animation","358","3060334","0.0-358.0","1920x1080","","2944","83.33","img/117/5.5/0.66667/bw/001.png","","","appealing"
"","","","","","animation","359","3067414","0.0-359.0","1920x1080","","7078.700000017881","66.67","img/117/4/1/bw/001.png","","","appealing"
"","","","","","animation","360","3070086","0.0-360.0","1920x1080","","2670.899999976158","7.14","img/314/2.5/0.5/bw/001.png","","","appealing"
"","","","","","animation","361","3078567","0.0-361.0","1920x1080","","8478.800000011921","35.05","img/117/4/0.5/bw/001.png","","","appealing"
"","","","","","animation","362","3080997","0.0-362.0","1920x1080","","2428.0999999940395","7.94","img/117/2.5/0.66667/bw/001.png","","","appealing"
"","","","","","animation","363","3084753","0.0-363.0","1920x1080","","3754.5","88.10","img/238/5.5/0.66667/bw/001.png","","","appealing"
"","","","","","animation","364","3088153","0.0-364.0","1920x1080","","3398.9000000059605","71","img/238/4.5/1.5/bw/001.png","","","appealing"
"","","","","","animation","365","3092727","0.0-365.0","1920x1080","","4572.200000017881","39.95","img/314/3.5/0.66667/bw/001.png","","","appealing"
"","","","","","animation","366","3100615","0.0-366.0","1920x1080","","7885.5999999940395","31.08","img/314/3.5/1/bw/001.png","","","appealing"
"","","","","","animation","367","3115465","0.0-367.0","1920x1080","","14848.600000023842","39","img/238/3.5/1/bw/001.png","","","appealing"
"","","","","","animation","368","3117965","0.0-368.0","1920x1080","","2498.4000000059605","65.74","img/314/4/0.66667/bw/001.png","","","appealing"
"","","","","","animation","369","3121522","0.0-369.0","1920x1080","","3556","30","img/117/3.5/0.5/bw/001.png","","","appealing"
"","","","","","animation","370","3123764","0.0-370.0","1920x1080","","2239.9000000059605","53.84","img/117/5.5/2/bw/001.png","","","appealing"
"","","","","","animation","371","3128536","0.0-371.0","1920x1080","","4769.9000000059605","64","img/314/5.5/1.5/bw/001.png","","","appealing"
"","","","","","animation","372","3131358","0.0-372.0","1920x1080","","2821","65.87","img/238/5.5/2/bw/001.png","","","appealing"
"","","","","","animation","373","3133815","0.0-373.0","1920x1080","","2455.300000011921","52.51","img/314/4/2/bw/001.png","","","appealing"
"","","","","","animation","374","3137665","0.0-374.0","1920x1080","","3848.800000011921","75.40","img/238/4.5/0.5/bw/001.png","","","appealing"
"","","","","","animation","375","3140399","0.0-375.0","1920x1080","","2731.800000011921","60.45","img/314/4/0.5/bw/001.png","","","appealing"
"","","","","","animation","376","3143164","0.0-376.0","1920x1080","","2763.199999988079","50.79","img/238/3.5/2/bw/001.png","","","appealing"
"","","","","","animation","377","3147352","0.0-377.0","1920x1080","","4186.0999999940395","63.36","img/314/4.5/1/bw/001.png","","","appealing"
"","","","","","animation","378","3151960","0.0-378.0","1920x1080","","4606.9000000059605","77.25","img/314/5.5/0.66667/bw/001.png","","","appealing"
"","","","","","animation","379","3154332","0.0-379.0","1920x1080","","2370.2999999821186","51.72","img/314/4/1/bw/001.png","","","appealing"
"","","","","","animation","380","3156894","0.0-380.0","1920x1080","","2564.9000000059605","62.96","img/238/4/0.66667/bw/001.png","","","appealing"
"","","","","","animation","381","3159411","0.0-381.0","1920x1080","","2515.9000000059605","59.39","img/117/4.5/1.5/bw/001.png","","","appealing"
"","","","","","animation","382","3162084","0.0-382.0","1920x1080","","2671.699999988079","34.39","img/238/3.5/0.5/bw/001.png","","","appealing"
"","","","","","animation","383","3164497","0.0-383.0","1920x1080","","2378.9000000059605","7.94","img/117/2.5/0.5/bw/001.png","","","appealing"
"","","","","","animation","384","3168599","0.0-384.0","1920x1080","","4101.0999999940395","66","img/117/5.5/1.5/bw/001.png","","","appealing"
"","","","","","animation","385","3171102","0.0-385.0","1920x1080","","2501.9000000059605","59.39","img/117/4/1.5/bw/001.png","","","appealing"
"","","","","","animation","386","3175327","0.0-386.0","1920x1080","","4222.700000017881","33.20","img/238/3.5/0.66667/bw/001.png","","","appealing"
"","","","","","animation","387","3178332","0.0-387.0","1920x1080","","3004.4000000059605","8.86","img/238/2.5/1.5/bw/001.png","","","appealing"
"","","","","","animation","388","3181064","0.0-388.0","1920x1080","","2726.300000011921","69.18","img/238/4.5/1/bw/001.png","","","appealing"
"","","","","","animation","389","3183827","0.0-389.0","1920x1080","","2761.899999976158","14","img/314/2.5/0.66667/bw/001.png","","","appealing"
"","","","","","html-button-response","390","3274214","0.0-390.0","1920x1080","","90373.5","","<strong>Study Debriefing</strong><br><p class=""debrief""><strong>Background:</strong> The patterns you rated are called <em>fractals</em>. The term fractal describes a class of irregular curves or shapes for which any suitably chosen part is similar in shape to a given larger or smaller part when magnified or reduced to the same size. Fractal properties are found throughout the natural and manmade world. The series of animations you saw today displayed animated fractal patterns of a varying complexity.</p><p class=""debrief""><strong>Purpose of this study:</strong> We hope to better understand how the perception of static fractals differs from the perception of animated fractals, and how the speed of the animated patterns influences people&apos;s perception of them. Fractals allow us to study the perception of aesthetic properties (e.g. the perceived level of beauty in an image) without using recognizable content, which makes them an excellent tool for studying abstract aesthetic judgement.</p><p class=""debrief""><strong>Your part:</strong> Your participation has helped us to further understand how humans perceive these patterns across different levels of speed and complexity. This research with allow us to better understand how the visual system and brain process our ever-changing visual environments.<p class=""debrief""><strong>Feedback and Further information:</strong> If you have additional questions about this study, please feel free to ask the researcher, Nathan Gonzales-Hess at nhess @ uoregon.edu. If you have any questions concerning your rights as a research participant, please contact Research Compliance Services, 5237 University of Oregon, Eugene, OR 97403, 541-346-2510, or email researchCompliance @ uoregon.edu. You can also email the Human Subjects Coordinator for psychology and linguistics research at hscoord @ uoregon.edu. ","0","",""
"","","","","","html-button-response","391","3280992","0.0-391.0","1920x1080","","6773.0999999940395","","Thank you for participating in this study. <br>Please click below to finish the experiment and submit your responses.<br><br>","0","",""
"true","","","","","fullscreen","392","3282008","0.0-392.0","1920x1080","13:20 14/10/2022","","","","","",""
