"success","timeout","failed_images","failed_audio","failed_video","trial_type","trial_index","time_elapsed","internal_node_id","resolution","timeStamp","rt","response","stimulus","button_pressed","value","descriptor"
"true","false","[]","[]","[]","preload","0","18169","0.0-0.0","1920x1080","","","","","","",""
"true","false","[]","[]","[]","preload","1","36996","0.0-1.0","1920x1080","","","","","","",""
"true","false","[]","[]","[]","preload","2","55590","0.0-2.0","1920x1080","","","","","","",""
"true","","","","","fullscreen","3","92128","0.0-3.0","1920x1080","11:28 27/10/2022","","","","","",""
"","","","","","survey-html-form","4","100688","0.0-4.0","1920x1080","","8559.100000000006","{""age"":""21"",""gender"":""Female""}","","","",""
"","","","","","html-button-response","5","183665","0.0-5.0","1920x1080","","82975.69999999998","","<div class=""complex"">You are going to see a series of animations.<br><br></div><div class=""complex"">Move the slider to indicate how <strong style=""text-transform:capitalize"">COMPLEX</strong> you find each animation.<br><br></div><div class=""complex"">0 = Least Complex<br></div><div class=""complex"">1 = Most Complex<br><br></div><div class=""complex"">Remember to use the <strong><em>entire range</em></strong> of the slider to make your ratings.<br></div><div class=""complex"">Please <strong><em>take your time</em></strong> and carefully consider each rating you make.<br><br></div><div class=""complex"">The study has five sections and will take about 45 minutes to complete.<br><br></div>","0","",""
"","","","","","call-function","6","183665","0.0-6.0","1920x1080","","","","","","",""
"","","","","","animation","7","195104","0.0-7.0","1920x1080","","11436.100000000006","62.83","img/238/5.5/1/bw/001.png","","","complex"
"","","","","","animation","8","202024","0.0-8.0","1920x1080","","6918.700000000012","73.94","img/314/4/1.5/bw/001.png","","","complex"
"","","","","","animation","9","216463","0.0-9.0","1920x1080","","14438.600000000006","84.79","img/238/3.5/1/bw/001.png","","","complex"
"","","","","","animation","10","219023","0.0-10.0","1920x1080","","2559.100000000006","75.66","img/117/4/1/bw/001.png","","","complex"
"","","","","","animation","11","220999","0.0-11.0","1920x1080","","1975.3000000000175","94.18","img/238/3.5/0.66667/bw/001.png","","","complex"
"","","","","","animation","12","225111","0.0-12.0","1920x1080","","4111.200000000012","93.65","img/238/2.5/1/bw/001.png","","","complex"
"","","","","","animation","13","230167","0.0-13.0","1920x1080","","5055.200000000012","89.15","img/314/2.5/2/bw/001.png","","","complex"
"","","","","","animation","14","234976","0.0-14.0","1920x1080","","4807.799999999988","96","img/117/2.5/1/bw/001.png","","","complex"
"","","","","","animation","15","240776","0.0-15.0","1920x1080","","5798.899999999965","24","img/314/5.5/0.5/bw/001.png","","","complex"
"","","","","","animation","16","243304","0.0-16.0","1920x1080","","2527.2999999999884","22.35","img/238/5.5/0.66667/bw/001.png","","","complex"
"","","","","","animation","17","245783","0.0-17.0","1920x1080","","2478.600000000035","68.12","img/117/4/0.5/bw/001.png","","","complex"
"","","","","","animation","18","247848","0.0-18.0","1920x1080","","2064","48.94","img/314/4.5/2/bw/001.png","","","complex"
"","","","","","animation","19","249848","0.0-19.0","1920x1080","","1999.2999999999884","35.58","img/117/5.5/1/bw/001.png","","","complex"
"","","","","","animation","20","251904","0.0-20.0","1920x1080","","2054.5","54.23","img/314/4/2/bw/001.png","","","complex"
"","","","","","animation","21","254480","0.0-21.0","1920x1080","","2575.2999999999884","40.74","img/238/4.5/1.5/bw/001.png","","","complex"
"","","","","","animation","22","256376","0.0-22.0","1920x1080","","1895.2999999999884","68.78","img/238/3.5/0.5/bw/001.png","","","complex"
"","","","","","animation","23","260200","0.0-23.0","1920x1080","","3823.0999999999767","73.41","img/117/3.5/0.5/bw/001.png","","","complex"
"","","","","","animation","24","262776","0.0-24.0","1920x1080","","2575.0999999999767","90.34","img/238/2.5/0.66667/bw/001.png","","","complex"
"","","","","","animation","25","265088","0.0-25.0","1920x1080","","2311.2000000000116","36.77","img/238/4.5/0.5/bw/001.png","","","complex"
"","","","","","animation","26","269183","0.0-26.0","1920x1080","","4094.899999999965","97","img/117/2.5/0.5/bw/001.png","","","complex"
"","","","","","animation","27","271672","0.0-27.0","1920x1080","","2487.7999999999884","18.92","img/117/5.5/1.5/bw/001.png","","","complex"
"","","","","","animation","28","277840","0.0-28.0","1920x1080","","6167","56.75","img/117/4/2/bw/001.png","","","complex"
"","","","","","animation","29","282415","0.0-29.0","1920x1080","","4574.599999999977","97","img/117/2.5/2/bw/001.png","","","complex"
"","","","","","animation","30","284504","0.0-30.0","1920x1080","","2087.4000000000233","96","img/117/2.5/1.5/bw/001.png","","","complex"
"","","","","","animation","31","287296","0.0-31.0","1920x1080","","2791.2999999999884","41.27","img/314/4/1/bw/001.png","","","complex"
"","","","","","animation","32","290519","0.0-32.0","1920x1080","","3222.9000000000233","85.71","img/117/2.5/0.66667/bw/001.png","","","complex"
"","","","","","animation","33","292967","0.0-33.0","1920x1080","","2447","27.78","img/314/4/0.66667/bw/001.png","","","complex"
"","","","","","animation","34","297282","0.0-34.0","1920x1080","","4313.400000000023","34.52","img/314/3.5/2/bw/001.png","","","complex"
"","","","","","animation","35","300081","0.0-35.0","1920x1080","","2799.2000000000116","21.43","img/314/4.5/0.66667/bw/001.png","","","complex"
"","","","","","animation","36","304018","0.0-36.0","1920x1080","","3957.2999999999884","31.75","img/238/4/1/bw/001.png","","","complex"
"","","","","","animation","37","306554","0.0-37.0","1920x1080","","2535.4000000000233","22.62","img/117/5.5/0.5/bw/001.png","","","complex"
"","","","","","animation","38","309330","0.0-38.0","1920x1080","","2774.7999999999884","35.05","img/117/3.5/1/bw/001.png","","","complex"
"","","","","","animation","39","316882","0.0-39.0","1920x1080","","7551.299999999988","47.62","img/238/3.5/1.5/bw/001.png","","","complex"
"","","","","","animation","40","320850","0.0-40.0","1920x1080","","3967.100000000035","36.11","img/117/4.5/0.66667/bw/001.png","","","complex"
"","","","","","animation","41","325513","0.0-41.0","1920x1080","","4662.799999999988","73.81","img/238/3.5/2/bw/001.png","","","complex"
"","","","","","animation","42","327570","0.0-42.0","1920x1080","","2055.4000000000233","33.20","img/238/4.5/0.66667/bw/001.png","","","complex"
"","","","","","animation","43","331170","0.0-43.0","1920x1080","","3599.4000000000233","46","img/314/3.5/1/bw/001.png","","","complex"
"","","","","","animation","44","334434","0.0-44.0","1920x1080","","3263.2999999999884","5.03","img/238/5.5/1.5/bw/001.png","","","complex"
"","","","","","animation","45","337577","0.0-45.0","1920x1080","","3142.5999999999767","13.23","img/117/5.5/0.66667/bw/001.png","","","complex"
"","","","","","animation","46","339442","0.0-46.0","1920x1080","","1864.4000000000233","20.24","img/117/4/1.5/bw/001.png","","","complex"
"","","","","","animation","47","341450","0.0-47.0","1920x1080","","2006.5999999999767","35.85","img/314/4.5/0.5/bw/001.png","","","complex"
"","","","","","animation","48","343426","0.0-48.0","1920x1080","","1975.5999999999767","48.41","img/117/3.5/2/bw/001.png","","","complex"
"","","","","","animation","49","345627","0.0-49.0","1920x1080","","2200.0999999999767","59.79","img/314/3.5/1.5/bw/001.png","","","complex"
"","","","","","animation","50","347602","0.0-50.0","1920x1080","","1973.9000000000233","72.22","img/238/4/0.66667/bw/001.png","","","complex"
"","","","","","animation","51","349827","0.0-51.0","1920x1080","","2224.5","67.33","img/117/4.5/0.5/bw/001.png","","","complex"
"","","","","","animation","52","352922","0.0-52.0","1920x1080","","3093.600000000035","3","img/238/5.5/2/bw/001.png","","","complex"
"","","","","","animation","53","355113","0.0-53.0","1920x1080","","2191","25.66","img/314/4.5/1.5/bw/001.png","","","complex"
"","","","","","animation","54","359002","0.0-54.0","1920x1080","","3887.0999999999767","19.31","img/238/4.5/2/bw/001.png","","","complex"
"","","","","","animation","55","361754","0.0-55.0","1920x1080","","2751.2999999999884","95","img/314/3.5/0.5/bw/001.png","","","complex"
"","","","","","animation","56","364934","0.0-56.0","1920x1080","","3294.9000000000233","100","img/238/2.5/2/bw/001.png","","","complex"
"","","","","","animation","57","368647","0.0-57.0","1920x1080","","3712","24.87","img/314/5.5/2/bw/001.png","","","complex"
"","","","","","animation","58","373358","0.0-58.0","1920x1080","","4710.5","82.28","img/238/2.5/0.5/bw/001.png","","","complex"
"","","","","","animation","59","376638","0.0-59.0","1920x1080","","3279.0999999999767","25.26","img/238/5.5/0.5/bw/001.png","","","complex"
"","","","","","animation","60","379934","0.0-60.0","1920x1080","","3294.2999999999884","53.17","img/314/5.5/0.66667/bw/001.png","","","complex"
"","","","","","animation","61","383630","0.0-61.0","1920x1080","","3694.7999999999884","3","img/314/5.5/1.5/bw/001.png","","","complex"
"","","","","","animation","62","385670","0.0-62.0","1920x1080","","2039.7000000000116","92.72","img/314/2.5/1.5/bw/001.png","","","complex"
"","","","","","animation","63","388030","0.0-63.0","1920x1080","","2358.5","65.34","img/117/4.5/2/bw/001.png","","","complex"
"","","","","","animation","64","391254","0.0-64.0","1920x1080","","3223.5","75","img/117/3.5/1.5/bw/001.png","","","complex"
"","","","","","animation","65","394229","0.0-65.0","1920x1080","","2974.7999999999884","21.56","img/117/5.5/2/bw/001.png","","","complex"
"","","","","","animation","66","396438","0.0-66.0","1920x1080","","2207.2000000000116","95","img/314/2.5/0.66667/bw/001.png","","","complex"
"","","","","","animation","67","399006","0.0-67.0","1920x1080","","2566.9000000000233","56.88","img/314/4/0.5/bw/001.png","","","complex"
"","","","","","animation","68","401414","0.0-68.0","1920x1080","","2406.899999999965","42.33","img/238/4/2/bw/001.png","","","complex"
"","","","","","animation","69","403630","0.0-69.0","1920x1080","","2215","90.61","img/238/2.5/1.5/bw/001.png","","","complex"
"","","","","","animation","70","405822","0.0-70.0","1920x1080","","2191.4000000000233","6.22","img/314/5.5/1/bw/001.png","","","complex"
"","","","","","animation","71","407974","0.0-71.0","1920x1080","","2151.2000000000116","82.14","img/314/3.5/0.66667/bw/001.png","","","complex"
"","","","","","animation","72","410030","0.0-72.0","1920x1080","","2054.5999999999767","62.43","img/238/4/0.5/bw/001.png","","","complex"
"","","","","","animation","73","411961","0.0-73.0","1920x1080","","1930.5999999999767","36.90","img/117/4.5/1.5/bw/001.png","","","complex"
"","","","","","animation","74","416445","0.0-74.0","1920x1080","","4483.5","59.79","img/238/4/1.5/bw/001.png","","","complex"
"","","","","","animation","75","422111","0.0-75.0","1920x1080","","5665","78.57","img/117/4.5/1/bw/001.png","","","complex"
"","","","","","animation","76","425179","0.0-76.0","1920x1080","","3182.9000000000233","52.78","img/117/4/0.66667/bw/001.png","","","complex"
"","","","","","animation","77","427338","0.0-77.0","1920x1080","","2158","68.78","img/117/3.5/0.66667/bw/001.png","","","complex"
"","","","","","animation","78","429596","0.0-78.0","1920x1080","","2257.5999999999767","91.93","img/314/2.5/1/bw/001.png","","","complex"
"","","","","","animation","79","431745","0.0-79.0","1920x1080","","2148","11.90","img/238/4.5/1/bw/001.png","","","complex"
"","","","","","animation","80","434298","0.0-80.0","1920x1080","","2551.2000000000116","24.60","img/314/4.5/1/bw/001.png","","","complex"
"","","","","","animation","81","436658","0.0-81.0","1920x1080","","2359.5","79.89","img/314/2.5/0.5/bw/001.png","","","complex"
"","","","","","html-button-response","82","455315","0.0-82.0","1920x1080","","18654.900000000023","","<div class=""intro"">You are about to view a new series of animations.<br><br></div><div class=""intro"">You will evaluate them based on a different descriptor.<br><br></div><div class=""intro"">Move the slider to indicate how <strong style=""text-transform:capitalize"">RELAXING</strong> you find each animation.<br><br></div><div class=""intro"">0 = Least Relaxing<br></div><div class=""intro"">1 = Most Relaxing<br><br></div><div class=""intro"">Remember to use the <strong><em>entire range</em></strong> of the slider to make your ratings.<br></div><div class=""intro"">Please <strong><em>take your time</em></strong> and carefully consider each rating you make.<br><br></div>","0","",""
"","","","","","call-function","83","455315","0.0-83.0","1920x1080","","","","","","",""
"","","","","","animation","84","459570","0.0-84.0","1920x1080","","4254.099999999977","24.74","img/238/4/1.5/bw/001.png","","","relaxing"
"","","","","","animation","85","462412","0.0-85.0","1920x1080","","2841.399999999965","82.54","img/117/5.5/1.5/bw/001.png","","","relaxing"
"","","","","","animation","86","465161","0.0-86.0","1920x1080","","2748.3000000000466","5.69","img/314/2.5/0.5/bw/001.png","","","relaxing"
"","","","","","animation","87","467595","0.0-87.0","1920x1080","","2432.0999999999767","13.36","img/314/3.5/2/bw/001.png","","","relaxing"
"","","","","","animation","88","470179","0.0-88.0","1920x1080","","2583.7999999999884","82.67","img/238/4.5/2/bw/001.png","","","relaxing"
"","","","","","animation","89","474186","0.0-89.0","1920x1080","","4005.5","20.50","img/314/4.5/1.5/bw/001.png","","","relaxing"
"","","","","","animation","90","477329","0.0-90.0","1920x1080","","3142.399999999965","19.05","img/314/4/1/bw/001.png","","","relaxing"
"","","","","","animation","91","480061","0.0-91.0","1920x1080","","2731.100000000035","1.59","img/238/2.5/0.66667/bw/001.png","","","relaxing"
"","","","","","animation","92","482570","0.0-92.0","1920x1080","","2507.29999999993","7.67","img/117/2.5/2/bw/001.png","","","relaxing"
"","","","","","animation","93","485033","0.0-93.0","1920x1080","","2574.600000000093","51.85","img/117/4.5/1.5/bw/001.png","","","relaxing"
"","","","","","animation","94","487483","0.0-94.0","1920x1080","","2448.8000000000466","32.54","img/117/4/1/bw/001.png","","","relaxing"
"","","","","","animation","95","489977","0.0-95.0","1920x1080","","2493.5","18.78","img/117/3.5/0.5/bw/001.png","","","relaxing"
"","","","","","animation","96","492178","0.0-96.0","1920x1080","","2199.70000000007","73.28","img/238/4.5/1/bw/001.png","","","relaxing"
"","","","","","animation","97","495300","0.0-97.0","1920x1080","","3120.79999999993","49","img/238/4/2/bw/001.png","","","relaxing"
"","","","","","animation","98","497283","0.0-98.0","1920x1080","","1982.3000000000466","82.94","img/238/5.5/0.5/bw/001.png","","","relaxing"
"","","","","","animation","99","499522","0.0-99.0","1920x1080","","2237.6999999999534","22.88","img/238/3.5/1.5/bw/001.png","","","relaxing"
"","","","","","animation","100","501451","0.0-100.0","1920x1080","","1928.4000000000233","25.00","img/314/4/2/bw/001.png","","","relaxing"
"","","","","","animation","101","503100","0.0-101.0","1920x1080","","1648.1999999999534","29.23","img/238/4.5/0.66667/bw/001.png","","","relaxing"
"","","","","","animation","102","505451","0.0-102.0","1920x1080","","2349.70000000007","2.91","img/238/2.5/1/bw/001.png","","","relaxing"
"","","","","","animation","103","507610","0.0-103.0","1920x1080","","2157.9000000000233","25.93","img/238/4/0.5/bw/001.png","","","relaxing"
"","","","","","animation","104","511483","0.0-104.0","1920x1080","","3871.6999999999534","0","img/117/2.5/0.66667/bw/001.png","","","relaxing"
"","","","","","animation","105","514569","0.0-105.0","1920x1080","","3085.9000000000233","53.44","img/117/5.5/0.5/bw/001.png","","","relaxing"
"","","","","","animation","106","516883","0.0-106.0","1920x1080","","2312.70000000007","3.70","img/314/2.5/1/bw/001.png","","","relaxing"
"","","","","","animation","107","520218","0.0-107.0","1920x1080","","3333.79999999993","3.97","img/238/4.5/1.5/bw/001.png","","","relaxing"
"","","","","","animation","108","522178","0.0-108.0","1920x1080","","1959.0999999999767","10.85","img/117/3.5/1.5/bw/001.png","","","relaxing"
"","","","","","animation","109","524466","0.0-109.0","1920x1080","","2287.100000000093","31.88","img/238/4.5/0.5/bw/001.png","","","relaxing"
"","","","","","animation","110","527949","0.0-110.0","1920x1080","","3482.3000000000466","55","img/238/3.5/2/bw/001.png","","","relaxing"
"","","","","","animation","111","529737","0.0-111.0","1920x1080","","1787.5999999999767","69.31","img/314/5.5/0.66667/bw/001.png","","","relaxing"
"","","","","","animation","112","532750","0.0-112.0","1920x1080","","3012","9.92","img/314/4/0.5/bw/001.png","","","relaxing"
"","","","","","animation","113","536785","0.0-113.0","1920x1080","","4034.0999999999767","3.84","img/314/2.5/1.5/bw/001.png","","","relaxing"
"","","","","","animation","114","539138","0.0-114.0","1920x1080","","2351.0999999999767","1.98","img/117/2.5/1.5/bw/001.png","","","relaxing"
"","","","","","animation","115","541410","0.0-115.0","1920x1080","","2271.0999999999767","92.46","img/238/5.5/0.66667/bw/001.png","","","relaxing"
"","","","","","animation","116","544285","0.0-116.0","1920x1080","","2991","72.75","img/117/4.5/2/bw/001.png","","","relaxing"
"","","","","","animation","117","546278","0.0-117.0","1920x1080","","1991.2000000000698","79.76","img/117/5.5/0.66667/bw/001.png","","","relaxing"
"","","","","","animation","118","548469","0.0-118.0","1920x1080","","2189.70000000007","13.89","img/238/3.5/0.5/bw/001.png","","","relaxing"
"","","","","","animation","119","551885","0.0-119.0","1920x1080","","3414.899999999907","40","img/314/3.5/1.5/bw/001.png","","","relaxing"
"","","","","","animation","120","554253","0.0-120.0","1920x1080","","2367.3000000000466","4.89","img/238/2.5/2/bw/001.png","","","relaxing"
"","","","","","animation","121","556701","0.0-121.0","1920x1080","","2447.100000000093","6.22","img/238/2.5/0.5/bw/001.png","","","relaxing"
"","","","","","animation","122","559685","0.0-122.0","1920x1080","","2983.100000000093","83.20","img/314/4.5/1/bw/001.png","","","relaxing"
"","","","","","animation","123","562389","0.0-123.0","1920x1080","","2703.4000000000233","13","img/314/3.5/0.66667/bw/001.png","","","relaxing"
"","","","","","animation","124","564501","0.0-124.0","1920x1080","","2110.5999999999767","97","img/117/5.5/1/bw/001.png","","","relaxing"
"","","","","","animation","125","567005","0.0-125.0","1920x1080","","2503.5","4.50","img/117/2.5/0.5/bw/001.png","","","relaxing"
"","","","","","animation","126","569605","0.0-126.0","1920x1080","","2599","16","img/238/3.5/0.66667/bw/001.png","","","relaxing"
"","","","","","animation","127","572849","0.0-127.0","1920x1080","","3242.6999999999534","99","img/314/5.5/2/bw/001.png","","","relaxing"
"","","","","","animation","128","575251","0.0-128.0","1920x1080","","2400.5999999999767","88.62","img/314/5.5/1.5/bw/001.png","","","relaxing"
"","","","","","animation","129","577821","0.0-129.0","1920x1080","","2569.5999999999767","82.01","img/238/5.5/2/bw/001.png","","","relaxing"
"","","","","","animation","130","580733","0.0-130.0","1920x1080","","2910.8000000000466","22.75","img/314/3.5/0.5/bw/001.png","","","relaxing"
"","","","","","animation","131","582725","0.0-131.0","1920x1080","","1991.4000000000233","19.71","img/117/3.5/0.66667/bw/001.png","","","relaxing"
"","","","","","animation","132","584421","0.0-132.0","1920x1080","","1695.0999999999767","27.78","img/314/3.5/1/bw/001.png","","","relaxing"
"","","","","","animation","133","586449","0.0-133.0","1920x1080","","2027.1999999999534","22.35","img/117/4/0.5/bw/001.png","","","relaxing"
"","","","","","animation","134","588869","0.0-134.0","1920x1080","","2418.8000000000466","32.14","img/117/4/1.5/bw/001.png","","","relaxing"
"","","","","","animation","135","591333","0.0-135.0","1920x1080","","2463.0999999999767","32.14","img/117/3.5/2/bw/001.png","","","relaxing"
"","","","","","animation","136","593877","0.0-136.0","1920x1080","","2539.4000000000233","4","img/117/2.5/1/bw/001.png","","","relaxing"
"","","","","","animation","137","596277","0.0-137.0","1920x1080","","2396.79999999993","74.74","img/117/4/2/bw/001.png","","","relaxing"
"","","","","","animation","138","598357","0.0-138.0","1920x1080","","2078.79999999993","18.39","img/314/4/0.66667/bw/001.png","","","relaxing"
"","","","","","animation","139","602101","0.0-139.0","1920x1080","","3742.5","63.89","img/314/4.5/2/bw/001.png","","","relaxing"
"","","","","","animation","140","604228","0.0-140.0","1920x1080","","2223.5","94.05","img/314/5.5/1/bw/001.png","","","relaxing"
"","","","","","animation","141","606580","0.0-141.0","1920x1080","","2350.9000000000233","95","img/314/5.5/0.5/bw/001.png","","","relaxing"
"","","","","","animation","142","608612","0.0-142.0","1920x1080","","2031","81.48","img/117/5.5/2/bw/001.png","","","relaxing"
"","","","","","animation","143","611445","0.0-143.0","1920x1080","","2831.1999999999534","41.80","img/314/4.5/0.66667/bw/001.png","","","relaxing"
"","","","","","animation","144","613765","0.0-144.0","1920x1080","","2319","28.97","img/117/3.5/1/bw/001.png","","","relaxing"
"","","","","","animation","145","615888","0.0-145.0","1920x1080","","2122","24.07","img/238/4/1/bw/001.png","","","relaxing"
"","","","","","animation","146","618556","0.0-146.0","1920x1080","","2666.8000000000466","70.63","img/238/5.5/1/bw/001.png","","","relaxing"
"","","","","","animation","147","620337","0.0-147.0","1920x1080","","1779.5999999999767","22.49","img/117/4.5/0.5/bw/001.png","","","relaxing"
"","","","","","animation","148","621736","0.0-148.0","1920x1080","","1398.9000000000233","28.57","img/117/4.5/0.66667/bw/001.png","","","relaxing"
"","","","","","animation","149","623936","0.0-149.0","1920x1080","","2199.3000000000466","42.06","img/238/4/0.66667/bw/001.png","","","relaxing"
"","","","","","animation","150","628260","0.0-150.0","1920x1080","","4323.400000000023","9.79","img/238/3.5/1/bw/001.png","","","relaxing"
"","","","","","animation","151","632108","0.0-151.0","1920x1080","","3847","20.50","img/117/4.5/1/bw/001.png","","","relaxing"
"","","","","","animation","152","637772","0.0-152.0","1920x1080","","5661.900000000023","95","img/238/5.5/1.5/bw/001.png","","","relaxing"
"","","","","","animation","153","646503","0.0-153.0","1920x1080","","8729.300000000047","24.34","img/117/4/0.66667/bw/001.png","","","relaxing"
"","","","","","animation","154","649108","0.0-154.0","1920x1080","","2602.1999999999534","6.35","img/314/2.5/0.66667/bw/001.png","","","relaxing"
"","","","","","animation","155","651092","0.0-155.0","1920x1080","","1982.8000000000466","0","img/238/2.5/1.5/bw/001.png","","","relaxing"
"","","","","","animation","156","654788","0.0-156.0","1920x1080","","3694.5999999999767","24","img/314/4/1.5/bw/001.png","","","relaxing"
"","","","","","animation","157","657086","0.0-157.0","1920x1080","","2297","9","img/314/2.5/2/bw/001.png","","","relaxing"
"","","","","","animation","158","660157","0.0-158.0","1920x1080","","3069.6999999999534","13.23","img/314/4.5/0.5/bw/001.png","","","relaxing"
"","","","","","html-button-response","159","679100","0.0-159.0","1920x1080","","18934.800000000047","","<div class=""intro"">You are about to view a new series of animations.<br><br></div><div class=""intro"">You will evaluate them based on a different descriptor.<br><br></div><div class=""intro"">Move the slider to indicate how <strong style=""text-transform:capitalize"">INTERESTING</strong> you find each animation.<br><br></div><div class=""intro"">0 = Least Interesting<br></div><div class=""intro"">1 = Most Interesting<br><br></div><div class=""intro"">Remember to use the <strong><em>entire range</em></strong> of the slider to make your ratings.<br></div><div class=""intro"">Please <strong><em>take your time</em></strong> and carefully consider each rating you make.<br><br></div>","0","",""
"","","","","","call-function","160","679100","0.0-160.0","1920x1080","","","","","","",""
"","","","","","animation","161","683160","0.0-161.0","1920x1080","","4059","23.81","img/314/4/0.66667/bw/001.png","","","interesting"
"","","","","","animation","162","685143","0.0-162.0","1920x1080","","1982.7999999999302","15.87","img/117/3.5/1.5/bw/001.png","","","interesting"
"","","","","","animation","163","688411","0.0-163.0","1920x1080","","3266.5","89.68","img/238/4.5/0.66667/bw/001.png","","","interesting"
"","","","","","animation","164","690963","0.0-164.0","1920x1080","","2551","59.26","img/238/3.5/0.66667/bw/001.png","","","interesting"
"","","","","","animation","165","693293","0.0-165.0","1920x1080","","2329.3000000000466","64.29","img/117/4.5/2/bw/001.png","","","interesting"
"","","","","","animation","166","695451","0.0-166.0","1920x1080","","2157.0999999999767","16.80","img/314/3.5/0.5/bw/001.png","","","interesting"
"","","","","","animation","167","697460","0.0-167.0","1920x1080","","2008.1999999999534","37.96","img/314/4/0.5/bw/001.png","","","interesting"
"","","","","","animation","168","703477","0.0-168.0","1920x1080","","6015.699999999953","90.48","img/238/4.5/0.5/bw/001.png","","","interesting"
"","","","","","animation","169","706235","0.0-169.0","1920x1080","","2757.0999999999767","55.95","img/314/4/1.5/bw/001.png","","","interesting"
"","","","","","animation","170","708211","0.0-170.0","1920x1080","","1974.5999999999767","42.33","img/117/4.5/0.66667/bw/001.png","","","interesting"
"","","","","","animation","171","711219","0.0-171.0","1920x1080","","3007.3000000000466","10.19","img/238/3.5/2/bw/001.png","","","interesting"
"","","","","","animation","172","714403","0.0-172.0","1920x1080","","3183.0999999999767","100","img/117/5.5/0.5/bw/001.png","","","interesting"
"","","","","","animation","173","717893","0.0-173.0","1920x1080","","3488.5","64.15","img/238/4/0.66667/bw/001.png","","","interesting"
"","","","","","animation","174","720667","0.0-174.0","1920x1080","","2773.3000000000466","3.04","img/238/2.5/0.66667/bw/001.png","","","interesting"
"","","","","","animation","175","724056","0.0-175.0","1920x1080","","3391.5999999999767","57.28","img/238/4/1.5/bw/001.png","","","interesting"
"","","","","","animation","176","726775","0.0-176.0","1920x1080","","2718.0999999999767","99","img/314/5.5/0.5/bw/001.png","","","interesting"
"","","","","","animation","177","729007","0.0-177.0","1920x1080","","2230.4000000000233","25.79","img/117/4/1/bw/001.png","","","interesting"
"","","","","","animation","178","733023","0.0-178.0","1920x1080","","4014.6999999999534","82.67","img/314/5.5/2/bw/001.png","","","interesting"
"","","","","","animation","179","735863","0.0-179.0","1920x1080","","2838.9000000000233","7.80","img/117/2.5/0.5/bw/001.png","","","interesting"
"","","","","","animation","180","738559","0.0-180.0","1920x1080","","2694.4000000000233","23.41","img/314/3.5/0.66667/bw/001.png","","","interesting"
"","","","","","animation","181","740711","0.0-181.0","1920x1080","","2151.100000000093","10.58","img/314/2.5/0.66667/bw/001.png","","","interesting"
"","","","","","animation","182","742863","0.0-182.0","1920x1080","","2151.0999999999767","26.19","img/117/3.5/0.66667/bw/001.png","","","interesting"
"","","","","","animation","183","745756","0.0-183.0","1920x1080","","2892","86.38","img/314/4.5/1/bw/001.png","","","interesting"
"","","","","","animation","184","747889","0.0-184.0","1920x1080","","2131.5","98","img/117/5.5/2/bw/001.png","","","interesting"
"","","","","","animation","185","751511","0.0-185.0","1920x1080","","3621.100000000093","6.35","img/314/2.5/2/bw/001.png","","","interesting"
"","","","","","animation","186","754599","0.0-186.0","1920x1080","","3086.4000000000233","71.69","img/238/4.5/1/bw/001.png","","","interesting"
"","","","","","animation","187","757559","0.0-187.0","1920x1080","","2958.0999999999767","50.53","img/314/4/1/bw/001.png","","","interesting"
"","","","","","animation","188","759543","0.0-188.0","1920x1080","","1983","45.63","img/314/3.5/2/bw/001.png","","","interesting"
"","","","","","animation","189","761559","0.0-189.0","1920x1080","","2014.9000000000233","84","img/117/4.5/1/bw/001.png","","","interesting"
"","","","","","animation","190","765123","0.0-190.0","1920x1080","","3562.5","76.85","img/117/4.5/1.5/bw/001.png","","","interesting"
"","","","","","animation","191","766591","0.0-191.0","1920x1080","","1467.3000000000466","67.33","img/314/4.5/0.5/bw/001.png","","","interesting"
"","","","","","animation","192","768773","0.0-192.0","1920x1080","","2180.5999999999767","23.41","img/238/3.5/1/bw/001.png","","","interesting"
"","","","","","animation","193","771295","0.0-193.0","1920x1080","","2521.9000000000233","8.47","img/314/2.5/1.5/bw/001.png","","","interesting"
"","","","","","animation","194","773656","0.0-194.0","1920x1080","","2358.0999999999767","2.12","img/238/2.5/1/bw/001.png","","","interesting"
"","","","","","animation","195","776295","0.0-195.0","1920x1080","","2638.3000000000466","100","img/117/5.5/0.66667/bw/001.png","","","interesting"
"","","","","","animation","196","780073","0.0-196.0","1920x1080","","3774.79999999993","68.78","img/238/4.5/2/bw/001.png","","","interesting"
"","","","","","animation","197","781927","0.0-197.0","1920x1080","","1853","53.17","img/117/4/1.5/bw/001.png","","","interesting"
"","","","","","animation","198","783590","0.0-198.0","1920x1080","","1662.8000000000466","47.75","img/238/4/1/bw/001.png","","","interesting"
"","","","","","animation","199","786990","0.0-199.0","1920x1080","","3399.0999999999767","82","img/238/3.5/0.5/bw/001.png","","","interesting"
"","","","","","animation","200","789374","0.0-200.0","1920x1080","","2382.9000000000233","6.22","img/238/2.5/1.5/bw/001.png","","","interesting"
"","","","","","animation","201","792574","0.0-201.0","1920x1080","","3198.8000000000466","21.56","img/314/2.5/0.5/bw/001.png","","","interesting"
"","","","","","animation","202","795678","0.0-202.0","1920x1080","","3103.4000000000233","11.51","img/117/2.5/1.5/bw/001.png","","","interesting"
"","","","","","animation","203","797905","0.0-203.0","1920x1080","","2225.9000000000233","89.95","img/238/5.5/1/bw/001.png","","","interesting"
"","","","","","animation","204","802158","0.0-204.0","1920x1080","","4252","91.27","img/117/5.5/1.5/bw/001.png","","","interesting"
"","","","","","animation","205","806455","0.0-205.0","1920x1080","","4295.70000000007","0","img/314/2.5/1/bw/001.png","","","interesting"
"","","","","","animation","206","808542","0.0-206.0","1920x1080","","2086.5","100","img/238/5.5/0.5/bw/001.png","","","interesting"
"","","","","","animation","207","811155","0.0-207.0","1920x1080","","2611.70000000007","6.22","img/117/3.5/0.5/bw/001.png","","","interesting"
"","","","","","animation","208","815814","0.0-208.0","1920x1080","","4658.5","25.53","img/314/4.5/0.66667/bw/001.png","","","interesting"
"","","","","","animation","209","817958","0.0-209.0","1920x1080","","2142.0999999999767","35.98","img/314/4/2/bw/001.png","","","interesting"
"","","","","","animation","210","820771","0.0-210.0","1920x1080","","2812.8000000000466","3.57","img/238/2.5/0.5/bw/001.png","","","interesting"
"","","","","","animation","211","823894","0.0-211.0","1920x1080","","3121.9000000000233","89.02","img/238/5.5/0.66667/bw/001.png","","","interesting"
"","","","","","animation","212","826326","0.0-212.0","1920x1080","","2430.6999999999534","6.61","img/314/3.5/1/bw/001.png","","","interesting"
"","","","","","animation","213","828472","0.0-213.0","1920x1080","","2145","34.26","img/238/3.5/1.5/bw/001.png","","","interesting"
"","","","","","animation","214","830246","0.0-214.0","1920x1080","","1772.8000000000466","5.03","img/238/2.5/2/bw/001.png","","","interesting"
"","","","","","animation","215","833974","0.0-215.0","1920x1080","","3726.8000000000466","23.68","img/117/4/0.66667/bw/001.png","","","interesting"
"","","","","","animation","216","836089","0.0-216.0","1920x1080","","2113.29999999993","93.65","img/238/5.5/1.5/bw/001.png","","","interesting"
"","","","","","animation","217","837726","0.0-217.0","1920x1080","","1636.1999999999534","44.97","img/117/3.5/2/bw/001.png","","","interesting"
"","","","","","animation","218","839310","0.0-218.0","1920x1080","","1583.1000000000931","55.16","img/314/4.5/1.5/bw/001.png","","","interesting"
"","","","","","animation","219","841255","0.0-219.0","1920x1080","","1943.8000000000466","64.42","img/314/4.5/2/bw/001.png","","","interesting"
"","","","","","animation","220","842828","0.0-220.0","1920x1080","","1573.7000000000698","77.38","img/314/5.5/1.5/bw/001.png","","","interesting"
"","","","","","animation","221","845060","0.0-221.0","1920x1080","","2230.899999999907","43.25","img/238/4.5/1.5/bw/001.png","","","interesting"
"","","","","","animation","222","846753","0.0-222.0","1920x1080","","1690.4000000000233","8.07","img/117/2.5/0.66667/bw/001.png","","","interesting"
"","","","","","animation","223","848653","0.0-223.0","1920x1080","","1898.9000000000233","21.03","img/314/3.5/1.5/bw/001.png","","","interesting"
"","","","","","animation","224","851003","0.0-224.0","1920x1080","","2348.899999999907","12.57","img/117/2.5/2/bw/001.png","","","interesting"
"","","","","","animation","225","885019","0.0-225.0","1920x1080","","34015.80000000005","39.68","img/238/4/0.5/bw/001.png","","","interesting"
"","","","","","animation","226","888219","0.0-226.0","1920x1080","","3198.9000000000233","53.57","img/117/4/0.5/bw/001.png","","","interesting"
"","","","","","animation","227","890802","0.0-227.0","1920x1080","","2581.9000000000233","89.68","img/117/5.5/1/bw/001.png","","","interesting"
"","","","","","animation","228","893851","0.0-228.0","1920x1080","","3047.1999999999534","36.90","img/117/4.5/0.5/bw/001.png","","","interesting"
"","","","","","animation","229","896052","0.0-229.0","1920x1080","","2196.6999999999534","96","img/314/5.5/0.66667/bw/001.png","","","interesting"
"","","","","","animation","230","898340","0.0-230.0","1920x1080","","2286.1999999999534","35.45","img/117/4/2/bw/001.png","","","interesting"
"","","","","","animation","231","900492","0.0-231.0","1920x1080","","2151","17.33","img/117/3.5/1/bw/001.png","","","interesting"
"","","","","","animation","232","902754","0.0-232.0","1920x1080","","2259.70000000007","92.06","img/238/5.5/2/bw/001.png","","","interesting"
"","","","","","animation","233","904709","0.0-233.0","1920x1080","","1954","9.79","img/117/2.5/1/bw/001.png","","","interesting"
"","","","","","animation","234","906221","0.0-234.0","1920x1080","","1511.0999999999767","23.41","img/238/4/2/bw/001.png","","","interesting"
"","","","","","animation","235","908340","0.0-235.0","1920x1080","","2116.3000000000466","99","img/314/5.5/1/bw/001.png","","","interesting"
"","","","","","html-button-response","236","927173","0.0-236.0","1920x1080","","18831.900000000023","","<div class=""intro"">You are about to view a new series of animations.<br><br></div><div class=""intro"">You will evaluate them based on a different descriptor.<br><br></div><div class=""intro"">Move the slider to indicate how <strong style=""text-transform:capitalize"">APPEALING</strong> you find each animation.<br><br></div><div class=""intro"">0 = Least Appealing<br></div><div class=""intro"">1 = Most Appealing<br><br></div><div class=""intro"">Remember to use the <strong><em>entire range</em></strong> of the slider to make your ratings.<br></div><div class=""intro"">Please <strong><em>take your time</em></strong> and carefully consider each rating you make.<br><br></div>","0","",""
"","","","","","call-function","237","927174","0.0-237.0","1920x1080","","","","","","",""
"","","","","","animation","238","930805","0.0-238.0","1920x1080","","3630.20000000007","0.40","img/314/2.5/0.66667/bw/001.png","","","appealing"
"","","","","","animation","239","933829","0.0-239.0","1920x1080","","3022.6999999999534","4.23","img/314/2.5/0.5/bw/001.png","","","appealing"
"","","","","","animation","240","936093","0.0-240.0","1920x1080","","2262.6999999999534","94.97","img/314/5.5/1/bw/001.png","","","appealing"
"","","","","","animation","241","939157","0.0-241.0","1920x1080","","3063.0999999999767","21.69","img/238/4/0.5/bw/001.png","","","appealing"
"","","","","","animation","242","941573","0.0-242.0","1920x1080","","2414.600000000093","29.10","img/314/4.5/0.66667/bw/001.png","","","appealing"
"","","","","","animation","243","944054","0.0-243.0","1920x1080","","2480.1999999999534","41.53","img/238/4/0.66667/bw/001.png","","","appealing"
"","","","","","animation","244","946558","0.0-244.0","1920x1080","","2497.8000000000466","32.54","img/314/4.5/1/bw/001.png","","","appealing"
"","","","","","animation","245","949141","0.0-245.0","1920x1080","","2581.79999999993","2.25","img/117/2.5/1.5/bw/001.png","","","appealing"
"","","","","","animation","246","951104","0.0-246.0","1920x1080","","1961.4000000000233","70.63","img/238/4.5/0.5/bw/001.png","","","appealing"
"","","","","","animation","247","954137","0.0-247.0","1920x1080","","3032.0999999999767","84.92","img/117/4.5/0.66667/bw/001.png","","","appealing"
"","","","","","animation","248","956120","0.0-248.0","1920x1080","","1981.8000000000466","29.63","img/117/3.5/1/bw/001.png","","","appealing"
"","","","","","animation","249","958157","0.0-249.0","1920x1080","","2035.0999999999767","11.64","img/117/2.5/0.5/bw/001.png","","","appealing"
"","","","","","animation","250","961154","0.0-250.0","1920x1080","","2996.20000000007","59.13","img/238/4.5/1.5/bw/001.png","","","appealing"
"","","","","","animation","251","963277","0.0-251.0","1920x1080","","2120.4000000000233","33.60","img/314/4/1.5/bw/001.png","","","appealing"
"","","","","","animation","252","965893","0.0-252.0","1920x1080","","2614.6999999999534","19.44","img/117/3.5/2/bw/001.png","","","appealing"
"","","","","","animation","253","968604","0.0-253.0","1920x1080","","2710.29999999993","78.44","img/117/5.5/0.66667/bw/001.png","","","appealing"
"","","","","","animation","254","971541","0.0-254.0","1920x1080","","2935.1999999999534","99","img/238/5.5/0.5/bw/001.png","","","appealing"
"","","","","","animation","255","973677","0.0-255.0","1920x1080","","2134.9000000000233","5.69","img/314/4/0.66667/bw/001.png","","","appealing"
"","","","","","animation","256","975437","0.0-256.0","1920x1080","","1758.8999999999069","11.64","img/238/3.5/1/bw/001.png","","","appealing"
"","","","","","animation","257","977087","0.0-257.0","1920x1080","","1649.1999999999534","17.33","img/117/4/2/bw/001.png","","","appealing"
"","","","","","animation","258","979804","0.0-258.0","1920x1080","","2715.1999999999534","27.91","img/314/4/0.5/bw/001.png","","","appealing"
"","","","","","animation","259","982461","0.0-259.0","1920x1080","","2655.5","100","img/314/5.5/2/bw/001.png","","","appealing"
"","","","","","animation","260","984604","0.0-260.0","1920x1080","","2142.1999999999534","88.49","img/314/4.5/2/bw/001.png","","","appealing"
"","","","","","animation","261","986270","0.0-261.0","1920x1080","","1664.6999999999534","78.97","img/238/5.5/1.5/bw/001.png","","","appealing"
"","","","","","animation","262","988845","0.0-262.0","1920x1080","","2573.5","2.91","img/238/2.5/0.66667/bw/001.png","","","appealing"
"","","","","","animation","263","990756","0.0-263.0","1920x1080","","1910.3999999999069","29.10","img/314/4.5/0.5/bw/001.png","","","appealing"
"","","","","","animation","264","993404","0.0-264.0","1920x1080","","2646.1999999999534","16.01","img/314/3.5/1.5/bw/001.png","","","appealing"
"","","","","","animation","265","995837","0.0-265.0","1920x1080","","2431.5","26.85","img/117/4/1.5/bw/001.png","","","appealing"
"","","","","","animation","266","998756","0.0-266.0","1920x1080","","2918.1999999999534","10.19","img/238/4.5/1/bw/001.png","","","appealing"
"","","","","","animation","267","1000788","0.0-267.0","1920x1080","","2030.6999999999534","68.78","img/314/4.5/1.5/bw/001.png","","","appealing"
"","","","","","animation","268","1003410","0.0-268.0","1920x1080","","2621","0.79","img/117/2.5/1/bw/001.png","","","appealing"
"","","","","","animation","269","1005623","0.0-269.0","1920x1080","","2211.5","76.98","img/314/5.5/0.66667/bw/001.png","","","appealing"
"","","","","","animation","270","1007037","0.0-270.0","1920x1080","","1412.2000000000698","45.50","img/238/4.5/0.66667/bw/001.png","","","appealing"
"","","","","","animation","271","1009104","0.0-271.0","1920x1080","","2065.8000000000466","68.52","img/238/5.5/2/bw/001.png","","","appealing"
"","","","","","animation","272","1011140","0.0-272.0","1920x1080","","2035.5","21.16","img/314/3.5/1/bw/001.png","","","appealing"
"","","","","","animation","273","1016937","0.0-273.0","1920x1080","","5795.40000000014","1.19","img/238/2.5/0.5/bw/001.png","","","appealing"
"","","","","","animation","274","1019244","0.0-274.0","1920x1080","","2306.1999999999534","60.58","img/117/4/1/bw/001.png","","","appealing"
"","","","","","animation","275","1023323","0.0-275.0","1920x1080","","4078.7999999998137","99","img/238/5.5/1/bw/001.png","","","appealing"
"","","","","","animation","276","1025319","0.0-276.0","1920x1080","","1994.3000000000466","12.30","img/314/4/2/bw/001.png","","","appealing"
"","","","","","animation","277","1027019","0.0-277.0","1920x1080","","1698.5","19.44","img/238/4.5/2/bw/001.png","","","appealing"
"","","","","","animation","278","1029875","0.0-278.0","1920x1080","","2855.5","2.78","img/117/3.5/0.5/bw/001.png","","","appealing"
"","","","","","animation","279","1032060","0.0-279.0","1920x1080","","2182.899999999907","80.56","img/238/5.5/0.66667/bw/001.png","","","appealing"
"","","","","","animation","280","1033736","0.0-280.0","1920x1080","","1674.9000000001397","45.24","img/314/3.5/0.66667/bw/001.png","","","appealing"
"","","","","","animation","281","1035339","0.0-281.0","1920x1080","","1602.5","38.23","img/117/4.5/0.5/bw/001.png","","","appealing"
"","","","","","animation","282","1037276","0.0-282.0","1920x1080","","1934.9000000001397","58.47","img/117/5.5/0.5/bw/001.png","","","appealing"
"","","","","","animation","283","1039769","0.0-283.0","1920x1080","","2492.600000000093","45.90","img/238/3.5/0.5/bw/001.png","","","appealing"
"","","","","","animation","284","1041787","0.0-284.0","1920x1080","","2016.1000000000931","44.58","img/117/4/0.5/bw/001.png","","","appealing"
"","","","","","animation","285","1044452","0.0-285.0","1920x1080","","2664.3000000000466","90.61","img/314/5.5/0.5/bw/001.png","","","appealing"
"","","","","","animation","286","1046587","0.0-286.0","1920x1080","","2133.100000000093","23.41","img/314/3.5/2/bw/001.png","","","appealing"
"","","","","","animation","287","1049152","0.0-287.0","1920x1080","","2563.8000000000466","28.84","img/117/4.5/2/bw/001.png","","","appealing"
"","","","","","animation","288","1053086","0.0-288.0","1920x1080","","3932.4000000001397","0","img/238/2.5/1.5/bw/001.png","","","appealing"
"","","","","","animation","289","1055228","0.0-289.0","1920x1080","","2140.399999999907","0.13","img/238/2.5/1/bw/001.png","","","appealing"
"","","","","","animation","290","1057089","0.0-290.0","1920x1080","","1859.0999999998603","25.53","img/314/4/1/bw/001.png","","","appealing"
"","","","","","animation","291","1059202","0.0-291.0","1920x1080","","2112.399999999907","88.36","img/117/5.5/1.5/bw/001.png","","","appealing"
"","","","","","animation","292","1061507","0.0-292.0","1920x1080","","2303.8000000000466","71.30","img/314/5.5/1.5/bw/001.png","","","appealing"
"","","","","","animation","293","1064307","0.0-293.0","1920x1080","","2798.1999999999534","5.42","img/117/2.5/0.66667/bw/001.png","","","appealing"
"","","","","","animation","294","1067107","0.0-294.0","1920x1080","","2798.6999999999534","10.45","img/238/3.5/1.5/bw/001.png","","","appealing"
"","","","","","animation","295","1071036","0.0-295.0","1920x1080","","3927.1999999999534","96","img/117/5.5/1/bw/001.png","","","appealing"
"","","","","","animation","296","1072969","0.0-296.0","1920x1080","","1931.5","17.72","img/238/2.5/2/bw/001.png","","","appealing"
"","","","","","animation","297","1074653","0.0-297.0","1920x1080","","1682.0999999998603","77.51","img/117/5.5/2/bw/001.png","","","appealing"
"","","","","","animation","298","1076019","0.0-298.0","1920x1080","","1365.3000000000466","29.10","img/314/2.5/1.5/bw/001.png","","","appealing"
"","","","","","animation","299","1078469","0.0-299.0","1920x1080","","2448.5","70.63","img/117/4/0.66667/bw/001.png","","","appealing"
"","","","","","animation","300","1080523","0.0-300.0","1920x1080","","2052.600000000093","11","img/314/2.5/2/bw/001.png","","","appealing"
"","","","","","animation","301","1082713","0.0-301.0","1920x1080","","2182.6999999999534","7.80","img/117/2.5/2/bw/001.png","","","appealing"
"","","","","","animation","302","1084275","0.0-302.0","1920x1080","","1560.2000000001863","9.66","img/314/2.5/1/bw/001.png","","","appealing"
"","","","","","animation","303","1087475","0.0-303.0","1920x1080","","3199.1999999999534","18.92","img/238/3.5/0.66667/bw/001.png","","","appealing"
"","","","","","animation","304","1089561","0.0-304.0","1920x1080","","2084.399999999907","32.01","img/117/4.5/1.5/bw/001.png","","","appealing"
"","","","","","animation","305","1091441","0.0-305.0","1920x1080","","1879.1000000000931","31.22","img/238/4/1.5/bw/001.png","","","appealing"
"","","","","","animation","306","1093529","0.0-306.0","1920x1080","","2086.6999999999534","16.01","img/117/3.5/0.66667/bw/001.png","","","appealing"
"","","","","","animation","307","1096481","0.0-307.0","1920x1080","","2950.8000000000466","18.52","img/314/3.5/0.5/bw/001.png","","","appealing"
"","","","","","animation","308","1098508","0.0-308.0","1920x1080","","2026","10.45","img/238/3.5/2/bw/001.png","","","appealing"
"","","","","","animation","309","1100177","0.0-309.0","1920x1080","","1667.3000000000466","36.38","img/117/3.5/1.5/bw/001.png","","","appealing"
"","","","","","animation","310","1102234","0.0-310.0","1920x1080","","2055.399999999907","59.13","img/117/4.5/1/bw/001.png","","","appealing"
"","","","","","animation","311","1104858","0.0-311.0","1920x1080","","2623","60.85","img/238/4/2/bw/001.png","","","appealing"
"","","","","","animation","312","1106611","0.0-312.0","1920x1080","","1751.8000000000466","72.35","img/238/4/1/bw/001.png","","","appealing"
"","","","","","html-button-response","313","1132825","0.0-313.0","1920x1080","","26212.399999999907","","<div class=""intro"">You are about to view a new series of animations.<br><br></div><div class=""intro"">You will evaluate them based on a different descriptor.<br><br></div><div class=""intro"">Move the slider to indicate how <strong style=""text-transform:capitalize"">NATURAL</strong> you find each animation.<br><br></div><div class=""intro"">0 = Least Natural<br></div><div class=""intro"">1 = Most Natural<br><br></div><div class=""intro"">Remember to use the <strong><em>entire range</em></strong> of the slider to make your ratings.<br></div><div class=""intro"">Please <strong><em>take your time</em></strong> and carefully consider each rating you make.<br><br></div>","0","",""
"","","","","","call-function","314","1132828","0.0-314.0","1920x1080","","","","","","",""
"","","","","","animation","315","1137481","0.0-315.0","1920x1080","","4651.399999999907","61.64","img/314/4/1/bw/001.png","","","natural"
"","","","","","animation","316","1139858","0.0-316.0","1920x1080","","2375.5","2.38","img/117/2.5/0.5/bw/001.png","","","natural"
"","","","","","animation","317","1142855","0.0-317.0","1920x1080","","3006.600000000093","75.66","img/238/4.5/1/bw/001.png","","","natural"
"","","","","","animation","318","1145153","0.0-318.0","1920x1080","","2296.100000000093","5.16","img/117/2.5/2/bw/001.png","","","natural"
"","","","","","animation","319","1147351","0.0-319.0","1920x1080","","2196.399999999907","3.17","img/314/2.5/1/bw/001.png","","","natural"
"","","","","","animation","320","1149914","0.0-320.0","1920x1080","","2562.399999999907","85.71","img/238/4.5/1.5/bw/001.png","","","natural"
"","","","","","animation","321","1152071","0.0-321.0","1920x1080","","2155.5999999998603","90.21","img/238/4/2/bw/001.png","","","natural"
"","","","","","animation","322","1155583","0.0-322.0","1920x1080","","3510.3000000000466","15.61","img/314/4/0.5/bw/001.png","","","natural"
"","","","","","animation","323","1158048","0.0-323.0","1920x1080","","2464","97","img/314/5.5/0.5/bw/001.png","","","natural"
"","","","","","animation","324","1160615","0.0-324.0","1920x1080","","2565.0999999998603","65.61","img/314/5.5/2/bw/001.png","","","natural"
"","","","","","animation","325","1164115","0.0-325.0","1920x1080","","3498.3000000000466","70","img/314/4.5/1.5/bw/001.png","","","natural"
"","","","","","animation","326","1168399","0.0-326.0","1920x1080","","4282.5","10.19","img/238/2.5/1.5/bw/001.png","","","natural"
"","","","","","animation","327","1171733","0.0-327.0","1920x1080","","3331.600000000093","67.72","img/117/3.5/2/bw/001.png","","","natural"
"","","","","","animation","328","1174519","0.0-328.0","1920x1080","","2784.3000000000466","10.85","img/117/4.5/0.5/bw/001.png","","","natural"
"","","","","","animation","329","1176881","0.0-329.0","1920x1080","","2360.7000000001863","14.29","img/117/4.5/0.66667/bw/001.png","","","natural"
"","","","","","animation","330","1179103","0.0-330.0","1920x1080","","2220.100000000093","26.32","img/117/4/0.5/bw/001.png","","","natural"
"","","","","","animation","331","1182182","0.0-331.0","1920x1080","","3077.7000000001863","91.53","img/314/5.5/0.66667/bw/001.png","","","natural"
"","","","","","animation","332","1184871","0.0-332.0","1920x1080","","2686.600000000093","24.07","img/314/4/0.66667/bw/001.png","","","natural"
"","","","","","animation","333","1186855","0.0-333.0","1920x1080","","1982.6000000000931","27.91","img/314/4.5/0.5/bw/001.png","","","natural"
"","","","","","animation","334","1189131","0.0-334.0","1920x1080","","2274","38.76","img/314/4.5/1/bw/001.png","","","natural"
"","","","","","animation","335","1190999","0.0-335.0","1920x1080","","1866.7999999998137","49.87","img/117/4/1/bw/001.png","","","natural"
"","","","","","animation","336","1193031","0.0-336.0","1920x1080","","2031.4000000001397","29.23","img/238/3.5/1/bw/001.png","","","natural"
"","","","","","animation","337","1195065","0.0-337.0","1920x1080","","2032.1000000000931","66.14","img/117/5.5/0.5/bw/001.png","","","natural"
"","","","","","animation","338","1197581","0.0-338.0","1920x1080","","2515.100000000093","8","img/238/2.5/1/bw/001.png","","","natural"
"","","","","","animation","339","1199985","0.0-339.0","1920x1080","","2403","6.35","img/314/2.5/1.5/bw/001.png","","","natural"
"","","","","","animation","340","1202171","0.0-340.0","1920x1080","","2184.3000000000466","65.34","img/314/3.5/1/bw/001.png","","","natural"
"","","","","","animation","341","1205255","0.0-341.0","1920x1080","","3075.8000000000466","78.04","img/117/4/2/bw/001.png","","","natural"
"","","","","","animation","342","1207138","0.0-342.0","1920x1080","","1882","96","img/314/5.5/1/bw/001.png","","","natural"
"","","","","","animation","343","1209757","0.0-343.0","1920x1080","","2617.899999999907","12.43","img/117/2.5/1/bw/001.png","","","natural"
"","","","","","animation","344","1212539","0.0-344.0","1920x1080","","2779.4000000001397","83.99","img/117/4.5/2/bw/001.png","","","natural"
"","","","","","animation","345","1222788","0.0-345.0","1920x1080","","10247.600000000093","7.80","img/314/3.5/2/bw/001.png","","","natural"
"","","","","","animation","346","1224661","0.0-346.0","1920x1080","","1871.7000000001863","47.35","img/238/3.5/2/bw/001.png","","","natural"
"","","","","","animation","347","1226881","0.0-347.0","1920x1080","","2218.6999999999534","73.54","img/314/5.5/1.5/bw/001.png","","","natural"
"","","","","","animation","348","1229093","0.0-348.0","1920x1080","","2211","29.63","img/238/3.5/0.66667/bw/001.png","","","natural"
"","","","","","animation","349","1231255","0.0-349.0","1920x1080","","2159.4000000001397","80.16","img/238/4.5/2/bw/001.png","","","natural"
"","","","","","animation","350","1240955","0.0-350.0","1920x1080","","9699.09999999986","92.33","img/238/5.5/1/bw/001.png","","","natural"
"","","","","","animation","351","1245278","0.0-351.0","1920x1080","","4321.40000000014","98","img/238/5.5/0.66667/bw/001.png","","","natural"
"","","","","","animation","352","1247778","0.0-352.0","1920x1080","","2498.399999999907","18.25","img/117/4/0.66667/bw/001.png","","","natural"
"","","","","","animation","353","1249709","0.0-353.0","1920x1080","","1929.6999999999534","6.35","img/238/2.5/2/bw/001.png","","","natural"
"","","","","","animation","354","1251772","0.0-354.0","1920x1080","","2061.3000000000466","82.80","img/117/5.5/1.5/bw/001.png","","","natural"
"","","","","","animation","355","1254757","0.0-355.0","1920x1080","","2984.1999999999534","87.70","img/117/5.5/1/bw/001.png","","","natural"
"","","","","","animation","356","1257179","0.0-356.0","1920x1080","","2419.6999999999534","10.32","img/117/3.5/0.66667/bw/001.png","","","natural"
"","","","","","animation","357","1259977","0.0-357.0","1920x1080","","2796.6999999999534","25.13","img/117/4.5/1/bw/001.png","","","natural"
"","","","","","animation","358","1262447","0.0-358.0","1920x1080","","2470.3000000000466","15.21","img/238/3.5/1.5/bw/001.png","","","natural"
"","","","","","animation","359","1267440","0.0-359.0","1920x1080","","4990.800000000047","41.80","img/238/4/0.5/bw/001.png","","","natural"
"","","","","","animation","360","1271190","0.0-360.0","1920x1080","","3748.899999999907","0","img/314/2.5/0.5/bw/001.png","","","natural"
"","","","","","animation","361","1273988","0.0-361.0","1920x1080","","2795.6999999999534","99","img/238/5.5/2/bw/001.png","","","natural"
"","","","","","animation","362","1276070","0.0-362.0","1920x1080","","2080.5999999998603","74.74","img/238/5.5/1.5/bw/001.png","","","natural"
"","","","","","animation","363","1278245","0.0-363.0","1920x1080","","2173.899999999907","62.96","img/117/5.5/2/bw/001.png","","","natural"
"","","","","","animation","364","1280824","0.0-364.0","1920x1080","","2577.399999999907","23.94","img/238/4.5/0.5/bw/001.png","","","natural"
"","","","","","animation","365","1282671","0.0-365.0","1920x1080","","1846.1000000000931","25.13","img/314/4.5/0.66667/bw/001.png","","","natural"
"","","","","","animation","366","1284804","0.0-366.0","1920x1080","","2131.100000000093","8.33","img/238/2.5/0.66667/bw/001.png","","","natural"
"","","","","","animation","367","1288524","0.0-367.0","1920x1080","","3718.899999999907","17.99","img/238/4/1/bw/001.png","","","natural"
"","","","","","animation","368","1291588","0.0-368.0","1920x1080","","3062.0999999998603","89.02","img/117/5.5/0.66667/bw/001.png","","","natural"
"","","","","","animation","369","1294295","0.0-369.0","1920x1080","","2704.899999999907","18.39","img/314/3.5/0.5/bw/001.png","","","natural"
"","","","","","animation","370","1297292","0.0-370.0","1920x1080","","2995.4000000001397","2.12","img/238/2.5/0.5/bw/001.png","","","natural"
"","","","","","animation","371","1299870","0.0-371.0","1920x1080","","2576.2999999998137","5.56","img/314/2.5/2/bw/001.png","","","natural"
"","","","","","animation","372","1303537","0.0-372.0","1920x1080","","3665.2999999998137","28.17","img/117/3.5/1.5/bw/001.png","","","natural"
"","","","","","animation","373","1306840","0.0-373.0","1920x1080","","3301.8000000000466","2.78","img/117/2.5/1.5/bw/001.png","","","natural"
"","","","","","animation","374","1311253","0.0-374.0","1920x1080","","4411.300000000047","0","img/117/2.5/0.66667/bw/001.png","","","natural"
"","","","","","animation","375","1313234","0.0-375.0","1920x1080","","1978.8999999999069","16.40","img/238/4/1.5/bw/001.png","","","natural"
"","","","","","animation","376","1315094","0.0-376.0","1920x1080","","1858.1999999999534","40.74","img/314/4.5/2/bw/001.png","","","natural"
"","","","","","animation","377","1317737","0.0-377.0","1920x1080","","2641.399999999907","13.36","img/314/2.5/0.66667/bw/001.png","","","natural"
"","","","","","animation","378","1320653","0.0-378.0","1920x1080","","2914","27.25","img/238/3.5/0.5/bw/001.png","","","natural"
"","","","","","animation","379","1323728","0.0-379.0","1920x1080","","3085.4000000001397","83.73","img/117/4.5/1.5/bw/001.png","","","natural"
"","","","","","animation","380","1325608","0.0-380.0","1920x1080","","1878.2999999998137","67.20","img/314/4/2/bw/001.png","","","natural"
"","","","","","animation","381","1327641","0.0-381.0","1920x1080","","2032.5","77.78","img/238/5.5/0.5/bw/001.png","","","natural"
"","","","","","animation","382","1329280","0.0-382.0","1920x1080","","1637","56","img/117/3.5/0.5/bw/001.png","","","natural"
"","","","","","animation","383","1331376","0.0-383.0","1920x1080","","2093","41.40","img/238/4/0.66667/bw/001.png","","","natural"
"","","","","","animation","384","1333059","0.0-384.0","1920x1080","","1681.3999999999069","25.93","img/117/3.5/1/bw/001.png","","","natural"
"","","","","","animation","385","1335160","0.0-385.0","1920x1080","","2100","18.78","img/314/3.5/1.5/bw/001.png","","","natural"
"","","","","","animation","386","1337592","0.0-386.0","1920x1080","","2430.8000000000466","15.87","img/314/3.5/0.66667/bw/001.png","","","natural"
"","","","","","animation","387","1339698","0.0-387.0","1920x1080","","2104.7000000001863","28.31","img/117/4/1.5/bw/001.png","","","natural"
"","","","","","animation","388","1342058","0.0-388.0","1920x1080","","2358.8000000000466","49.60","img/238/4.5/0.66667/bw/001.png","","","natural"
"","","","","","animation","389","1343725","0.0-389.0","1920x1080","","1665.1000000000931","34.66","img/314/4/1.5/bw/001.png","","","natural"
"","","","","","html-button-response","390","1373807","0.0-390.0","1920x1080","","30080.399999999907","","<strong>Study Debriefing</strong><br><p class=""debrief""><strong>Background:</strong> The patterns you rated are called <em>fractals</em>. The term fractal describes a class of irregular curves or shapes for which any suitably chosen part is similar in shape to a given larger or smaller part when magnified or reduced to the same size. Fractal properties are found throughout the natural and manmade world. The series of animations you saw today displayed animated fractal patterns of a varying complexity.</p><p class=""debrief""><strong>Purpose of this study:</strong> We hope to better understand how the perception of static fractals differs from the perception of animated fractals, and how the speed of the animated patterns influences people&apos;s perception of them. Fractals allow us to study the perception of aesthetic properties (e.g. the perceived level of beauty in an image) without using recognizable content, which makes them an excellent tool for studying abstract aesthetic judgement.</p><p class=""debrief""><strong>Your part:</strong> Your participation has helped us to further understand how humans perceive these patterns across different levels of speed and complexity. This research with allow us to better understand how the visual system and brain process our ever-changing visual environments.<p class=""debrief""><strong>Feedback and Further information:</strong> If you have additional questions about this study, please feel free to ask the researcher, Nathan Gonzales-Hess at nhess @ uoregon.edu. If you have any questions concerning your rights as a research participant, please contact Research Compliance Services, 5237 University of Oregon, Eugene, OR 97403, 541-346-2510, or email researchCompliance @ uoregon.edu. You can also email the Human Subjects Coordinator for psychology and linguistics research at hscoord @ uoregon.edu. ","0","",""
"","","","","","html-button-response","391","1379235","0.0-391.0","1920x1080","","5424.800000000047","","Thank you for participating in this study. <br>Please click below to finish the experiment and submit your responses.<br><br>","0","",""
"true","","","","","fullscreen","392","1380250","0.0-392.0","1920x1080","11:50 27/10/2022","","","","","",""
