"success","timeout","failed_images","failed_audio","failed_video","trial_type","trial_index","time_elapsed","internal_node_id","resolution","timeStamp","rt","response","stimulus","button_pressed","value","descriptor"
"true","false","[]","[]","[]","preload","0","6025","0.0-0.0","1920x1080","","","","","","",""
"true","false","[]","[]","[]","preload","1","12174","0.0-1.0","1920x1080","","","","","","",""
"true","false","[]","[]","[]","preload","2","18149","0.0-2.0","1920x1080","","","","","","",""
"true","","","","","fullscreen","3","199348","0.0-3.0","1920x1080","12:56 14/10/2022","","","","","",""
"","","","","","survey-html-form","4","214833","0.0-4.0","1920x1080","","15481.299999982119","{""age"":""18"",""gender"":""Female""}","","","",""
"","","","","","html-button-response","5","293225","0.0-5.0","1920x1080","","78390.90000000596","","<div class=""complex"">You are going to see a series of animations.<br><br></div><div class=""complex"">Move the slider to indicate how <strong style=""text-transform:capitalize"">COMPLEX</strong> you find each animation.<br><br></div><div class=""complex"">0 = Least Complex<br></div><div class=""complex"">1 = Most Complex<br><br></div><div class=""complex"">Remember to use the <strong><em>entire range</em></strong> of the slider to make your ratings.<br></div><div class=""complex"">Please <strong><em>take your time</em></strong> and carefully consider each rating you make.<br><br></div><div class=""complex"">The study has five sections and will take about 45 minutes to complete.<br><br></div>","0","",""
"","","","","","call-function","6","293225","0.0-6.0","1920x1080","","","","","","",""
"","","","","","animation","7","330432","0.0-7.0","1920x1080","","37205.59999999404","21.30","img/238/4/1.5/bw/001.png","","","complex"
"","","","","","animation","8","345784","0.0-8.0","1920x1080","","15351.40000000596","8.60","img/117/5.5/0.5/bw/001.png","","","complex"
"","","","","","animation","9","356336","0.0-9.0","1920x1080","","10550.5","15","img/238/5.5/0.66667/bw/001.png","","","complex"
"","","","","","animation","10","363720","0.0-10.0","1920x1080","","7383.5999999940395","57.94","img/238/3.5/0.66667/bw/001.png","","","complex"
"","","","","","animation","11","372553","0.0-11.0","1920x1080","","8831.699999988079","82.67","img/117/2.5/0.66667/bw/001.png","","","complex"
"","","","","","animation","12","377585","0.0-12.0","1920x1080","","5031.0999999940395","52","img/238/3.5/1.5/bw/001.png","","","complex"
"","","","","","animation","13","385913","0.0-13.0","1920x1080","","8327.09999999404","38.10","img/314/4/0.5/bw/001.png","","","complex"
"","","","","","animation","14","389393","0.0-14.0","1920x1080","","3479.5","70","img/117/3.5/1.5/bw/001.png","","","complex"
"","","","","","animation","15","396897","0.0-15.0","1920x1080","","7503.0999999940395","22.75","img/117/4.5/0.66667/bw/001.png","","","complex"
"","","","","","animation","16","400488","0.0-16.0","1920x1080","","3590.7999999821186","7.14","img/117/4.5/1.5/bw/001.png","","","complex"
"","","","","","animation","17","407265","0.0-17.0","1920x1080","","6775.5999999940395","39","img/314/4/2/bw/001.png","","","complex"
"","","","","","animation","18","411104","0.0-18.0","1920x1080","","3838.5999999940395","36.24","img/117/4/1.5/bw/001.png","","","complex"
"","","","","","animation","19","413854","0.0-19.0","1920x1080","","2751.2999999821186","34.39","img/117/4/1/bw/001.png","","","complex"
"","","","","","animation","20","418222","0.0-20.0","1920x1080","","4367.299999982119","53.31","img/314/4/1/bw/001.png","","","complex"
"","","","","","animation","21","422918","0.0-21.0","1920x1080","","4695","98","img/117/3.5/1/bw/001.png","","","complex"
"","","","","","animation","22","430286","0.0-22.0","1920x1080","","7367.699999988079","21","img/238/4.5/1/bw/001.png","","","complex"
"","","","","","animation","23","433654","0.0-23.0","1920x1080","","3367.0999999940395","31","img/314/4/0.66667/bw/001.png","","","complex"
"","","","","","animation","24","440718","0.0-24.0","1920x1080","","7063","16.40","img/238/4.5/1.5/bw/001.png","","","complex"
"","","","","","animation","25","445974","0.0-25.0","1920x1080","","5255.699999988079","17","img/238/4.5/0.66667/bw/001.png","","","complex"
"","","","","","animation","26","448990","0.0-26.0","1920x1080","","3015.2999999821186","54.89","img/117/4/0.5/bw/001.png","","","complex"
"","","","","","animation","27","453030","0.0-27.0","1920x1080","","4039.100000023842","78.70","img/314/3.5/2/bw/001.png","","","complex"
"","","","","","animation","28","456358","0.0-28.0","1920x1080","","3327.300000011921","92.20","img/117/3.5/0.5/bw/001.png","","","complex"
"","","","","","animation","29","459726","0.0-29.0","1920x1080","","3366.899999976158","89.29","img/238/3.5/0.5/bw/001.png","","","complex"
"","","","","","animation","30","461862","0.0-30.0","1920x1080","","2135.4000000059605","48.94","img/314/4/1.5/bw/001.png","","","complex"
"","","","","","animation","31","465894","0.0-31.0","1920x1080","","4031.5999999940395","35.85","img/314/4.5/1/bw/001.png","","","complex"
"","","","","","animation","32","470286","0.0-32.0","1920x1080","","4390.699999988079","100","img/238/2.5/0.5/bw/001.png","","","complex"
"","","","","","animation","33","473955","0.0-33.0","1920x1080","","3671.800000011921","37","img/238/4/0.5/bw/001.png","","","complex"
"","","","","","animation","34","478795","0.0-34.0","1920x1080","","4839.0999999940395","100","img/314/2.5/2/bw/001.png","","","complex"
"","","","","","animation","35","483922","0.0-35.0","1920x1080","","5126.4000000059605","100","img/238/2.5/1/bw/001.png","","","complex"
"","","","","","animation","36","489723","0.0-36.0","1920x1080","","5799.4000000059605","3","img/314/4.5/1.5/bw/001.png","","","complex"
"","","","","","animation","37","498131","0.0-37.0","1920x1080","","8407.59999999404","1.98","img/117/5.5/2/bw/001.png","","","complex"
"","","","","","animation","38","501364","0.0-38.0","1920x1080","","3232","17.59","img/117/4.5/0.5/bw/001.png","","","complex"
"","","","","","animation","39","504250","0.0-39.0","1920x1080","","2885.399999976158","99","img/238/2.5/0.66667/bw/001.png","","","complex"
"","","","","","animation","40","509410","0.0-40.0","1920x1080","","5158.5999999940395","4.23","img/238/5.5/1.5/bw/001.png","","","complex"
"","","","","","animation","41","514994","0.0-41.0","1920x1080","","5583.200000017881","53","img/117/3.5/2/bw/001.png","","","complex"
"","","","","","animation","42","532477","0.0-42.0","1920x1080","","17486.80000001192","5.56","img/238/5.5/0.5/bw/001.png","","","complex"
"","","","","","animation","43","559990","0.0-43.0","1920x1080","","27510","2","img/314/5.5/1.5/bw/001.png","","","complex"
"","","","","","animation","44","565446","0.0-44.0","1920x1080","","5454.799999982119","99","img/314/2.5/0.5/bw/001.png","","","complex"
"","","","","","animation","45","591919","0.0-45.0","1920x1080","","26463.90000000596","87.30","img/117/3.5/0.66667/bw/001.png","","","complex"
"","","","","","animation","46","599430","0.0-46.0","1920x1080","","7510.4000000059605","8","img/117/5.5/1/bw/001.png","","","complex"
"","","","","","animation","47","601894","0.0-47.0","1920x1080","","2462.9000000059605","57.67","img/238/4/0.66667/bw/001.png","","","complex"
"","","","","","animation","48","608646","0.0-48.0","1920x1080","","6750.9000000059605","0","img/314/5.5/2/bw/001.png","","","complex"
"","","","","","animation","49","611319","0.0-49.0","1920x1080","","2671.5999999940395","41.53","img/238/4/1/bw/001.png","","","complex"
"","","","","","animation","50","615686","0.0-50.0","1920x1080","","4366.299999982119","50","img/314/5.5/0.5/bw/001.png","","","complex"
"","","","","","animation","51","619910","0.0-51.0","1920x1080","","4223.5","78","img/238/3.5/2/bw/001.png","","","complex"
"","","","","","animation","52","624742","0.0-52.0","1920x1080","","4831","96","img/117/2.5/1.5/bw/001.png","","","complex"
"","","","","","animation","53","627374","0.0-53.0","1920x1080","","2630.699999988079","74.74","img/314/3.5/1/bw/001.png","","","complex"
"","","","","","animation","54","630151","0.0-54.0","1920x1080","","2776.100000023842","93.78","img/117/2.5/2/bw/001.png","","","complex"
"","","","","","animation","55","632446","0.0-55.0","1920x1080","","2291.5999999940395","59.13","img/238/3.5/1/bw/001.png","","","complex"
"","","","","","animation","56","637590","0.0-56.0","1920x1080","","5142.5999999940395","4.37","img/238/5.5/1/bw/001.png","","","complex"
"","","","","","animation","57","640768","0.0-57.0","1920x1080","","3177.0999999940395","2.91","img/314/5.5/1/bw/001.png","","","complex"
"","","","","","animation","58","643062","0.0-58.0","1920x1080","","2293.300000011921","98","img/314/2.5/1/bw/001.png","","","complex"
"","","","","","animation","59","646062","0.0-59.0","1920x1080","","2999.4000000059605","8.60","img/314/5.5/0.66667/bw/001.png","","","complex"
"","","","","","animation","60","650078","0.0-60.0","1920x1080","","4015","37.43","img/238/4.5/0.5/bw/001.png","","","complex"
"","","","","","animation","61","655333","0.0-61.0","1920x1080","","5255.600000023842","62","img/314/3.5/0.66667/bw/001.png","","","complex"
"","","","","","animation","62","657836","0.0-62.0","1920x1080","","2502.600000023842","12.04","img/117/5.5/1.5/bw/001.png","","","complex"
"","","","","","animation","63","661484","0.0-63.0","1920x1080","","3646.9000000059605","85.58","img/314/2.5/1.5/bw/001.png","","","complex"
"","","","","","animation","64","664093","0.0-64.0","1920x1080","","2607.4000000059605","94.97","img/238/2.5/1.5/bw/001.png","","","complex"
"","","","","","animation","65","666950","0.0-65.0","1920x1080","","2856.4000000059605","62.96","img/117/4/0.66667/bw/001.png","","","complex"
"","","","","","animation","66","669917","0.0-66.0","1920x1080","","2966.2999999821186","91.67","img/238/2.5/2/bw/001.png","","","complex"
"","","","","","animation","67","672372","0.0-67.0","1920x1080","","2453.5999999940395","9.39","img/238/5.5/2/bw/001.png","","","complex"
"","","","","","animation","68","675676","0.0-68.0","1920x1080","","3303.7000000178814","97","img/314/2.5/0.66667/bw/001.png","","","complex"
"","","","","","animation","69","691261","0.0-69.0","1920x1080","","15583.199999988079","31.61","img/117/5.5/0.66667/bw/001.png","","","complex"
"","","","","","animation","70","694844","0.0-70.0","1920x1080","","3582.800000011921","37.43","img/117/4.5/1/bw/001.png","","","complex"
"","","","","","animation","71","696534","0.0-71.0","1920x1080","","1689","35.19","img/238/4.5/2/bw/001.png","","","complex"
"","","","","","animation","72","699252","0.0-72.0","1920x1080","","2717.0999999940395","48","img/117/4.5/2/bw/001.png","","","complex"
"","","","","","animation","73","701413","0.0-73.0","1920x1080","","2159.9000000059605","92.33","img/314/3.5/0.5/bw/001.png","","","complex"
"","","","","","animation","74","703293","0.0-74.0","1920x1080","","1877.5","52.51","img/314/4.5/2/bw/001.png","","","complex"
"","","","","","animation","75","755012","0.0-75.0","1920x1080","","51719","39.02","img/117/4/2/bw/001.png","","","complex"
"","","","","","animation","76","759000","0.0-76.0","1920x1080","","3986.4000000059605","99","img/117/2.5/1/bw/001.png","","","complex"
"","","","","","animation","77","762292","0.0-77.0","1920x1080","","3291.0999999940395","45.37","img/238/4/2/bw/001.png","","","complex"
"","","","","","animation","78","767188","0.0-78.0","1920x1080","","4895.700000017881","48","img/314/4.5/0.5/bw/001.png","","","complex"
"","","","","","animation","79","769292","0.0-79.0","1920x1080","","2102","47.35","img/314/4.5/0.66667/bw/001.png","","","complex"
"","","","","","animation","80","771036","0.0-80.0","1920x1080","","1742.7999999821186","50.26","img/314/3.5/1.5/bw/001.png","","","complex"
"","","","","","animation","81","774425","0.0-81.0","1920x1080","","3391.4000000059605","98","img/117/2.5/0.5/bw/001.png","","","complex"
"","","","","","html-button-response","82","792969","0.0-82.0","1920x1080","","18542.30000001192","","<div class=""intro"">You are about to view a new series of animations.<br><br></div><div class=""intro"">You will evaluate them based on a different descriptor.<br><br></div><div class=""intro"">Move the slider to indicate how <strong style=""text-transform:capitalize"">RELAXING</strong> you find each animation.<br><br></div><div class=""intro"">0 = Least Relaxing<br></div><div class=""intro"">1 = Most Relaxing<br><br></div><div class=""intro"">Remember to use the <strong><em>entire range</em></strong> of the slider to make your ratings.<br></div><div class=""intro"">Please <strong><em>take your time</em></strong> and carefully consider each rating you make.<br><br></div>","0","",""
"","","","","","call-function","83","792970","0.0-83.0","1920x1080","","","","","","",""
"","","","","","animation","84","799857","0.0-84.0","1920x1080","","6886.800000011921","5.56","img/117/3.5/0.66667/bw/001.png","","","relaxing"
"","","","","","animation","85","804889","0.0-85.0","1920x1080","","5030.5","77","img/314/3.5/2/bw/001.png","","","relaxing"
"","","","","","animation","86","810753","0.0-86.0","1920x1080","","5862.9000000059605","100","img/314/5.5/2/bw/001.png","","","relaxing"
"","","","","","animation","87","818137","0.0-87.0","1920x1080","","7382.4000000059605","3","img/117/3.5/1/bw/001.png","","","relaxing"
"","","","","","animation","88","822465","0.0-88.0","1920x1080","","4326.5999999940395","7.80","img/314/4.5/0.66667/bw/001.png","","","relaxing"
"","","","","","animation","89","825930","0.0-89.0","1920x1080","","3464.2000000178814","0","img/314/3.5/0.5/bw/001.png","","","relaxing"
"","","","","","animation","90","831232","0.0-90.0","1920x1080","","5301.200000017881","17","img/314/3.5/1.5/bw/001.png","","","relaxing"
"","","","","","animation","91","835363","0.0-91.0","1920x1080","","4130.0999999940395","47.88","img/238/5.5/1.5/bw/001.png","","","relaxing"
"","","","","","animation","92","840096","0.0-92.0","1920x1080","","4731.700000017881","47.62","img/314/4/1.5/bw/001.png","","","relaxing"
"","","","","","animation","93","845097","0.0-93.0","1920x1080","","4999.899999976158","0","img/117/4.5/0.5/bw/001.png","","","relaxing"
"","","","","","animation","94","847873","0.0-94.0","1920x1080","","2774.5999999940395","0.40","img/238/2.5/0.66667/bw/001.png","","","relaxing"
"","","","","","animation","95","852563","0.0-95.0","1920x1080","","4689.700000017881","28.44","img/238/5.5/0.66667/bw/001.png","","","relaxing"
"","","","","","animation","96","854714","0.0-96.0","1920x1080","","2149.300000011921","20","img/117/5.5/0.66667/bw/001.png","","","relaxing"
"","","","","","animation","97","860597","0.0-97.0","1920x1080","","5881.800000011921","1.32","img/314/2.5/2/bw/001.png","","","relaxing"
"","","","","","animation","98","863579","0.0-98.0","1920x1080","","2981.5","1","img/238/4.5/0.5/bw/001.png","","","relaxing"
"","","","","","animation","99","866212","0.0-99.0","1920x1080","","2631.0999999940395","0.40","img/314/2.5/1.5/bw/001.png","","","relaxing"
"","","","","","animation","100","869441","0.0-100.0","1920x1080","","3228.199999988079","11","img/238/5.5/0.5/bw/001.png","","","relaxing"
"","","","","","animation","101","872225","0.0-101.0","1920x1080","","2782.9000000059605","7.14","img/117/4.5/0.66667/bw/001.png","","","relaxing"
"","","","","","animation","102","875746","0.0-102.0","1920x1080","","3520","43","img/117/3.5/1.5/bw/001.png","","","relaxing"
"","","","","","animation","103","882929","0.0-103.0","1920x1080","","7182.0999999940395","2","img/238/2.5/2/bw/001.png","","","relaxing"
"","","","","","animation","104","885680","0.0-104.0","1920x1080","","2749.9000000059605","0","img/117/2.5/2/bw/001.png","","","relaxing"
"","","","","","animation","105","891466","0.0-105.0","1920x1080","","5783.199999988079","95","img/314/5.5/1.5/bw/001.png","","","relaxing"
"","","","","","animation","106","893732","0.0-106.0","1920x1080","","2264.9000000059605","96","img/117/5.5/1.5/bw/001.png","","","relaxing"
"","","","","","animation","107","897198","0.0-107.0","1920x1080","","3464.0999999940395","46.96","img/314/5.5/1/bw/001.png","","","relaxing"
"","","","","","animation","108","900675","0.0-108.0","1920x1080","","3476.0999999940395","0","img/314/4/0.66667/bw/001.png","","","relaxing"
"","","","","","animation","109","905171","0.0-109.0","1920x1080","","4495","0","img/314/5.5/0.5/bw/001.png","","","relaxing"
"","","","","","animation","110","908834","0.0-110.0","1920x1080","","3662","2.65","img/117/4/1.5/bw/001.png","","","relaxing"
"","","","","","animation","111","911587","0.0-111.0","1920x1080","","2751.4000000059605","4.37","img/314/4.5/1/bw/001.png","","","relaxing"
"","","","","","animation","112","914949","0.0-112.0","1920x1080","","3361","1.32","img/314/2.5/1/bw/001.png","","","relaxing"
"","","","","","animation","113","918707","0.0-113.0","1920x1080","","3757.2000000178814","1.32","img/314/3.5/0.66667/bw/001.png","","","relaxing"
"","","","","","animation","114","921555","0.0-114.0","1920x1080","","2846.9000000059605","0.93","img/117/3.5/0.5/bw/001.png","","","relaxing"
"","","","","","animation","115","924243","0.0-115.0","1920x1080","","2687.100000023842","0","img/117/4.5/1/bw/001.png","","","relaxing"
"","","","","","animation","116","928082","0.0-116.0","1920x1080","","3838.5999999940395","29","img/238/4.5/1.5/bw/001.png","","","relaxing"
"","","","","","animation","117","930632","0.0-117.0","1920x1080","","2549","0","img/314/4.5/0.5/bw/001.png","","","relaxing"
"","","","","","animation","118","933650","0.0-118.0","1920x1080","","3017.0999999940395","2.38","img/314/5.5/0.66667/bw/001.png","","","relaxing"
"","","","","","animation","119","937764","0.0-119.0","1920x1080","","4112.799999982119","19","img/117/4/2/bw/001.png","","","relaxing"
"","","","","","animation","120","940987","0.0-120.0","1920x1080","","3221.9000000059605","0","img/238/3.5/1/bw/001.png","","","relaxing"
"","","","","","animation","121","943516","0.0-121.0","1920x1080","","2528.0999999940395","1.59","img/238/4/1.5/bw/001.png","","","relaxing"
"","","","","","animation","122","947466","0.0-122.0","1920x1080","","3949.600000023842","3.44","img/117/5.5/0.5/bw/001.png","","","relaxing"
"","","","","","animation","123","951522","0.0-123.0","1920x1080","","4055.2000000178814","0","img/117/2.5/1.5/bw/001.png","","","relaxing"
"","","","","","animation","124","955030","0.0-124.0","1920x1080","","3506.5","1.59","img/238/3.5/1.5/bw/001.png","","","relaxing"
"","","","","","animation","125","957874","0.0-125.0","1920x1080","","2843.2000000178814","17.46","img/238/4.5/1/bw/001.png","","","relaxing"
"","","","","","animation","126","960250","0.0-126.0","1920x1080","","2375","51","img/314/4.5/2/bw/001.png","","","relaxing"
"","","","","","animation","127","962498","0.0-127.0","1920x1080","","2246.800000011921","97","img/238/5.5/2/bw/001.png","","","relaxing"
"","","","","","animation","128","966818","0.0-128.0","1920x1080","","4319.4000000059605","7.54","img/238/4.5/0.66667/bw/001.png","","","relaxing"
"","","","","","animation","129","970706","0.0-129.0","1920x1080","","3887","5.03","img/238/4/1/bw/001.png","","","relaxing"
"","","","","","animation","130","973818","0.0-130.0","1920x1080","","3110.800000011921","0","img/314/3.5/1/bw/001.png","","","relaxing"
"","","","","","animation","131","978122","0.0-131.0","1920x1080","","4302.800000011921","27.38","img/314/4/2/bw/001.png","","","relaxing"
"","","","","","animation","132","983938","0.0-132.0","1920x1080","","5815","0","img/314/2.5/0.66667/bw/001.png","","","relaxing"
"","","","","","animation","133","987043","0.0-133.0","1920x1080","","3103.4000000059605","0.00","img/117/2.5/1/bw/001.png","","","relaxing"
"","","","","","animation","134","990230","0.0-134.0","1920x1080","","3186.800000011921","10.19","img/238/4/0.66667/bw/001.png","","","relaxing"
"","","","","","animation","135","992274","0.0-135.0","1920x1080","","2042.9000000059605","3.70","img/117/4/1/bw/001.png","","","relaxing"
"","","","","","animation","136","994738","0.0-136.0","1920x1080","","2463.0999999940395","50","img/117/5.5/2/bw/001.png","","","relaxing"
"","","","","","animation","137","998370","0.0-137.0","1920x1080","","3630.9000000059605","6.35","img/238/4/0.5/bw/001.png","","","relaxing"
"","","","","","animation","138","1000747","0.0-138.0","1920x1080","","2375.7000000178814","1","img/314/4/1/bw/001.png","","","relaxing"
"","","","","","animation","139","1003498","0.0-139.0","1920x1080","","2749.600000023842","0.79","img/117/4/0.66667/bw/001.png","","","relaxing"
"","","","","","animation","140","1007398","0.0-140.0","1920x1080","","3899.2000000178814","0","img/117/2.5/0.66667/bw/001.png","","","relaxing"
"","","","","","animation","141","1011098","0.0-141.0","1920x1080","","3698.800000011921","77","img/238/4.5/2/bw/001.png","","","relaxing"
"","","","","","animation","142","1014414","0.0-142.0","1920x1080","","3315.800000011921","0.00","img/117/4/0.5/bw/001.png","","","relaxing"
"","","","","","animation","143","1019906","0.0-143.0","1920x1080","","5490.5999999940395","0","img/117/2.5/0.5/bw/001.png","","","relaxing"
"","","","","","animation","144","1024202","0.0-144.0","1920x1080","","4294.600000023842","3.84","img/238/2.5/1.5/bw/001.png","","","relaxing"
"","","","","","animation","145","1027930","0.0-145.0","1920x1080","","3727.4000000059605","28.70","img/117/5.5/1/bw/001.png","","","relaxing"
"","","","","","animation","146","1031316","0.0-146.0","1920x1080","","3384.5999999940395","0.13","img/238/3.5/0.66667/bw/001.png","","","relaxing"
"","","","","","animation","147","1035267","0.0-147.0","1920x1080","","3949.800000011921","32.80","img/117/3.5/2/bw/001.png","","","relaxing"
"","","","","","animation","148","1042849","0.0-148.0","1920x1080","","7581.200000017881","66","img/314/4.5/1.5/bw/001.png","","","relaxing"
"","","","","","animation","149","1045354","0.0-149.0","1920x1080","","2503.100000023842","62.57","img/117/4.5/2/bw/001.png","","","relaxing"
"","","","","","animation","150","1048618","0.0-150.0","1920x1080","","3261.4000000059605","2.51","img/238/3.5/0.5/bw/001.png","","","relaxing"
"","","","","","animation","151","1051633","0.0-151.0","1920x1080","","3014.4000000059605","27.51","img/238/3.5/2/bw/001.png","","","relaxing"
"","","","","","animation","152","1054564","0.0-152.0","1920x1080","","2929.0999999940395","0","img/238/2.5/0.5/bw/001.png","","","relaxing"
"","","","","","animation","153","1059580","0.0-153.0","1920x1080","","5015.399999976158","1.98","img/314/4/0.5/bw/001.png","","","relaxing"
"","","","","","animation","154","1063554","0.0-154.0","1920x1080","","3972.5","0","img/314/2.5/0.5/bw/001.png","","","relaxing"
"","","","","","animation","155","1069674","0.0-155.0","1920x1080","","6119.0999999940395","2.25","img/238/2.5/1/bw/001.png","","","relaxing"
"","","","","","animation","156","1072816","0.0-156.0","1920x1080","","3139.100000023842","75.93","img/117/4.5/1.5/bw/001.png","","","relaxing"
"","","","","","animation","157","1111908","0.0-157.0","1920x1080","","39090.80000001192","100","img/238/5.5/1/bw/001.png","","","relaxing"
"","","","","","animation","158","1114900","0.0-158.0","1920x1080","","2990.7999999821186","33.07","img/238/4/2/bw/001.png","","","relaxing"
"","","","","","html-button-response","159","1354820","0.0-159.0","1920x1080","","239915.19999998808","","<div class=""intro"">You are about to view a new series of animations.<br><br></div><div class=""intro"">You will evaluate them based on a different descriptor.<br><br></div><div class=""intro"">Move the slider to indicate how <strong style=""text-transform:capitalize"">APPEALING</strong> you find each animation.<br><br></div><div class=""intro"">0 = Least Appealing<br></div><div class=""intro"">1 = Most Appealing<br><br></div><div class=""intro"">Remember to use the <strong><em>entire range</em></strong> of the slider to make your ratings.<br></div><div class=""intro"">Please <strong><em>take your time</em></strong> and carefully consider each rating you make.<br><br></div>","0","",""
"","","","","","call-function","160","1354824","0.0-160.0","1920x1080","","","","","","",""
"","","","","","animation","161","1361391","0.0-161.0","1920x1080","","6566.0999999940395","59.79","img/314/4.5/2/bw/001.png","","","appealing"
"","","","","","animation","162","1364023","0.0-162.0","1920x1080","","2630","15.34","img/314/4/1.5/bw/001.png","","","appealing"
"","","","","","animation","163","1366287","0.0-163.0","1920x1080","","2262.699999988079","67","img/238/5.5/1.5/bw/001.png","","","appealing"
"","","","","","animation","164","1370669","0.0-164.0","1920x1080","","4381","8.99","img/238/4/1.5/bw/001.png","","","appealing"
"","","","","","animation","165","1373584","0.0-165.0","1920x1080","","2920.600000023842","0.79","img/117/3.5/2/bw/001.png","","","appealing"
"","","","","","animation","166","1377595","0.0-166.0","1920x1080","","4010.699999988079","55.16","img/238/5.5/0.66667/bw/001.png","","","appealing"
"","","","","","animation","167","1380472","0.0-167.0","1920x1080","","2874.600000023842","0","img/117/4/1.5/bw/001.png","","","appealing"
"","","","","","animation","168","1382799","0.0-168.0","1920x1080","","2326.4000000059605","0","img/238/3.5/1/bw/001.png","","","appealing"
"","","","","","animation","169","1391472","0.0-169.0","1920x1080","","8670.90000000596","2.12","img/238/3.5/0.5/bw/001.png","","","appealing"
"","","","","","animation","170","1394600","0.0-170.0","1920x1080","","3126.4000000059605","1.98","img/238/3.5/2/bw/001.png","","","appealing"
"","","","","","animation","171","1398911","0.0-171.0","1920x1080","","4310.200000017881","0.93","img/117/2.5/0.66667/bw/001.png","","","appealing"
"","","","","","animation","172","1402663","0.0-172.0","1920x1080","","3750.9000000059605","30.56","img/314/4/1/bw/001.png","","","appealing"
"","","","","","animation","173","1405784","0.0-173.0","1920x1080","","3119","0","img/314/2.5/1.5/bw/001.png","","","appealing"
"","","","","","animation","174","1409045","0.0-174.0","1920x1080","","3259.800000011921","2.65","img/117/3.5/1/bw/001.png","","","appealing"
"","","","","","animation","175","1412800","0.0-175.0","1920x1080","","3753.5","1.19","img/314/2.5/0.5/bw/001.png","","","appealing"
"","","","","","animation","176","1416662","0.0-176.0","1920x1080","","3861.0999999940395","0.93","img/117/2.5/0.5/bw/001.png","","","appealing"
"","","","","","animation","177","1422768","0.0-177.0","1920x1080","","6104.5","86.64","img/117/5.5/2/bw/001.png","","","appealing"
"","","","","","animation","178","1426119","0.0-178.0","1920x1080","","3350.5","0","img/238/2.5/1/bw/001.png","","","appealing"
"","","","","","animation","179","1429211","0.0-179.0","1920x1080","","3089.699999988079","23.02","img/238/3.5/1.5/bw/001.png","","","appealing"
"","","","","","animation","180","1431580","0.0-180.0","1920x1080","","2365.7999999821186","59","img/117/4.5/1/bw/001.png","","","appealing"
"","","","","","animation","181","1434985","0.0-181.0","1920x1080","","3404.5","0","img/238/4/0.5/bw/001.png","","","appealing"
"","","","","","animation","182","1437196","0.0-182.0","1920x1080","","2209.5","1","img/117/4.5/0.5/bw/001.png","","","appealing"
"","","","","","animation","183","1439673","0.0-183.0","1920x1080","","2476.600000023842","4.10","img/314/3.5/2/bw/001.png","","","appealing"
"","","","","","animation","184","1443433","0.0-184.0","1920x1080","","3758.9000000059605","45.90","img/238/4.5/0.66667/bw/001.png","","","appealing"
"","","","","","animation","185","1448305","0.0-185.0","1920x1080","","4871.300000011921","2.25","img/238/4/0.66667/bw/001.png","","","appealing"
"","","","","","animation","186","1450679","0.0-186.0","1920x1080","","2372.5","5.56","img/117/4/1/bw/001.png","","","appealing"
"","","","","","animation","187","1452546","0.0-187.0","1920x1080","","1866","50.00","img/238/4.5/2/bw/001.png","","","appealing"
"","","","","","animation","188","1457553","0.0-188.0","1920x1080","","5006.0999999940395","0","img/117/2.5/2/bw/001.png","","","appealing"
"","","","","","animation","189","1460353","0.0-189.0","1920x1080","","2795.4000000059605","36.77","img/314/4.5/0.66667/bw/001.png","","","appealing"
"","","","","","animation","190","1465031","0.0-190.0","1920x1080","","4676.5999999940395","2.25","img/314/4/0.66667/bw/001.png","","","appealing"
"","","","","","animation","191","1467617","0.0-191.0","1920x1080","","2584.2000000178814","17.46","img/117/4/2/bw/001.png","","","appealing"
"","","","","","animation","192","1469801","0.0-192.0","1920x1080","","2183.100000023842","75.26","img/238/5.5/2/bw/001.png","","","appealing"
"","","","","","animation","193","1474429","0.0-193.0","1920x1080","","4627.0999999940395","29.76","img/117/4.5/0.66667/bw/001.png","","","appealing"
"","","","","","animation","194","1477246","0.0-194.0","1920x1080","","2815","0","img/238/2.5/1.5/bw/001.png","","","appealing"
"","","","","","animation","195","1479880","0.0-195.0","1920x1080","","2632.9000000059605","0.53","img/238/2.5/0.66667/bw/001.png","","","appealing"
"","","","","","animation","196","1482249","0.0-196.0","1920x1080","","2368.300000011921","9","img/314/3.5/1/bw/001.png","","","appealing"
"","","","","","animation","197","1484201","0.0-197.0","1920x1080","","1951.5","16.14","img/117/4/0.66667/bw/001.png","","","appealing"
"","","","","","animation","198","1486833","0.0-198.0","1920x1080","","2631","49.87","img/117/4.5/1.5/bw/001.png","","","appealing"
"","","","","","animation","199","1489063","0.0-199.0","1920x1080","","2227.899999976158","0","img/314/2.5/0.66667/bw/001.png","","","appealing"
"","","","","","animation","200","1493152","0.0-200.0","1920x1080","","4089.5999999940395","94","img/117/5.5/1/bw/001.png","","","appealing"
"","","","","","animation","201","1494952","0.0-201.0","1920x1080","","1798.5999999940395","47.22","img/238/4.5/1/bw/001.png","","","appealing"
"","","","","","animation","202","1501551","0.0-202.0","1920x1080","","6598.699999988079","8.86","img/314/4.5/0.5/bw/001.png","","","appealing"
"","","","","","animation","203","1504212","0.0-203.0","1920x1080","","2659.399999976158","4.23","img/314/4.5/1/bw/001.png","","","appealing"
"","","","","","animation","204","1506952","0.0-204.0","1920x1080","","2738.300000011921","6","img/314/3.5/1.5/bw/001.png","","","appealing"
"","","","","","animation","205","1509728","0.0-205.0","1920x1080","","2775.0999999940395","56.61","img/314/5.5/1/bw/001.png","","","appealing"
"","","","","","animation","206","1513079","0.0-206.0","1920x1080","","3350.0999999940395","22.35","img/238/4/2/bw/001.png","","","appealing"
"","","","","","animation","207","1516831","0.0-207.0","1920x1080","","3751","69","img/314/5.5/1.5/bw/001.png","","","appealing"
"","","","","","animation","208","1566583","0.0-208.0","1920x1080","","49751","73.41","img/314/5.5/0.5/bw/001.png","","","appealing"
"","","","","","animation","209","1569583","0.0-209.0","1920x1080","","2995.4000000059605","0.13","img/314/2.5/2/bw/001.png","","","appealing"
"","","","","","animation","210","1572414","0.0-210.0","1920x1080","","2830.4000000059605","18.39","img/238/4.5/0.5/bw/001.png","","","appealing"
"","","","","","animation","211","1575220","0.0-211.0","1920x1080","","2804.399999976158","13.89","img/314/3.5/0.5/bw/001.png","","","appealing"
"","","","","","animation","212","1579646","0.0-212.0","1920x1080","","4424.0999999940395","71.83","img/117/5.5/0.66667/bw/001.png","","","appealing"
"","","","","","animation","213","1589345","0.0-213.0","1920x1080","","9696.600000023842","83.60","img/314/5.5/0.66667/bw/001.png","","","appealing"
"","","","","","animation","214","1592351","0.0-214.0","1920x1080","","3003.4000000059605","1.72","img/117/4/0.5/bw/001.png","","","appealing"
"","","","","","animation","215","1596327","0.0-215.0","1920x1080","","3975","68.52","img/238/5.5/1/bw/001.png","","","appealing"
"","","","","","animation","216","1599310","0.0-216.0","1920x1080","","2981.5","3.44","img/238/3.5/0.66667/bw/001.png","","","appealing"
"","","","","","animation","217","1603351","0.0-217.0","1920x1080","","4039.9000000059605","1.32","img/117/3.5/0.66667/bw/001.png","","","appealing"
"","","","","","animation","218","1607262","0.0-218.0","1920x1080","","3908.800000011921","1.72","img/117/3.5/0.5/bw/001.png","","","appealing"
"","","","","","animation","219","1611476","0.0-219.0","1920x1080","","4213.600000023842","1.72","img/117/3.5/1.5/bw/001.png","","","appealing"
"","","","","","animation","220","1615526","0.0-220.0","1920x1080","","4048.4000000059605","92.33","img/314/5.5/2/bw/001.png","","","appealing"
"","","","","","animation","221","1617918","0.0-221.0","1920x1080","","2390.4000000059605","53.31","img/314/4/2/bw/001.png","","","appealing"
"","","","","","animation","222","1620718","0.0-222.0","1920x1080","","2799.300000011921","0","img/238/2.5/2/bw/001.png","","","appealing"
"","","","","","animation","223","1626209","0.0-223.0","1920x1080","","5490.300000011921","1.19","img/314/4/0.5/bw/001.png","","","appealing"
"","","","","","animation","224","1628444","0.0-224.0","1920x1080","","2232.5","62.43","img/238/5.5/0.5/bw/001.png","","","appealing"
"","","","","","animation","225","1660814","0.0-225.0","1920x1080","","32369","77.38","img/314/4.5/1.5/bw/001.png","","","appealing"
"","","","","","animation","226","1663950","0.0-226.0","1920x1080","","3134.800000011921","89.68","img/117/5.5/1.5/bw/001.png","","","appealing"
"","","","","","animation","227","1668646","0.0-227.0","1920x1080","","4694.300000011921","0.53","img/117/2.5/1/bw/001.png","","","appealing"
"","","","","","animation","228","1671459","0.0-228.0","1920x1080","","2812.5","1.32","img/314/2.5/1/bw/001.png","","","appealing"
"","","","","","animation","229","1675842","0.0-229.0","1920x1080","","4382.5","0.40","img/238/2.5/0.5/bw/001.png","","","appealing"
"","","","","","animation","230","1682213","0.0-230.0","1920x1080","","6369.600000023842","0.93","img/117/2.5/1.5/bw/001.png","","","appealing"
"","","","","","animation","231","1684893","0.0-231.0","1920x1080","","2678.2000000178814","58.60","img/117/4.5/2/bw/001.png","","","appealing"
"","","","","","animation","232","1687797","0.0-232.0","1920x1080","","2903.300000011921","78.04","img/117/5.5/0.5/bw/001.png","","","appealing"
"","","","","","animation","233","1691365","0.0-233.0","1920x1080","","3566.800000011921","5.56","img/314/3.5/0.66667/bw/001.png","","","appealing"
"","","","","","animation","234","1694442","0.0-234.0","1920x1080","","3076.0999999940395","32.54","img/238/4.5/1.5/bw/001.png","","","appealing"
"","","","","","animation","235","1701509","0.0-235.0","1920x1080","","7065","22","img/238/4/1/bw/001.png","","","appealing"
"","","","","","html-button-response","236","1944750","0.0-236.0","1920x1080","","243231.69999998808","","<div class=""intro"">You are about to view a new series of animations.<br><br></div><div class=""intro"">You will evaluate them based on a different descriptor.<br><br></div><div class=""intro"">Move the slider to indicate how <strong style=""text-transform:capitalize"">INTERESTING</strong> you find each animation.<br><br></div><div class=""intro"">0 = Least Interesting<br></div><div class=""intro"">1 = Most Interesting<br><br></div><div class=""intro"">Remember to use the <strong><em>entire range</em></strong> of the slider to make your ratings.<br></div><div class=""intro"">Please <strong><em>take your time</em></strong> and carefully consider each rating you make.<br><br></div>","0","",""
"","","","","","call-function","237","1944753","0.0-237.0","1920x1080","","","","","","",""
"","","","","","animation","238","1948757","0.0-238.0","1920x1080","","4002.9000000059605","46.96","img/314/4.5/2/bw/001.png","","","interesting"
"","","","","","animation","239","1952699","0.0-239.0","1920x1080","","3940.300000011921","54.37","img/117/3.5/1.5/bw/001.png","","","interesting"
"","","","","","animation","240","1956365","0.0-240.0","1920x1080","","3665.0999999940395","8.86","img/117/5.5/1.5/bw/001.png","","","interesting"
"","","","","","animation","241","1961249","0.0-241.0","1920x1080","","4882.799999982119","52.25","img/117/4.5/0.66667/bw/001.png","","","interesting"
"","","","","","animation","242","1965332","0.0-242.0","1920x1080","","4082","1.59","img/238/2.5/0.66667/bw/001.png","","","interesting"
"","","","","","animation","243","1969541","0.0-243.0","1920x1080","","4207.4000000059605","20.77","img/238/5.5/0.66667/bw/001.png","","","interesting"
"","","","","","animation","244","1974644","0.0-244.0","1920x1080","","5106.699999988079","42.86","img/238/5.5/1/bw/001.png","","","interesting"
"","","","","","animation","245","1978193","0.0-245.0","1920x1080","","3545.5","5.82","img/314/2.5/1/bw/001.png","","","interesting"
"","","","","","animation","246","1982463","0.0-246.0","1920x1080","","4268.100000023842","63.62","img/314/4.5/1.5/bw/001.png","","","interesting"
"","","","","","animation","247","1984410","0.0-247.0","1920x1080","","1945.7999999821186","55.95","img/117/4.5/1/bw/001.png","","","interesting"
"","","","","","animation","248","1986976","0.0-248.0","1920x1080","","2564.7999999821186","0","img/238/2.5/0.5/bw/001.png","","","interesting"
"","","","","","animation","249","1991110","0.0-249.0","1920x1080","","4132.4000000059605","17.20","img/238/4/1.5/bw/001.png","","","interesting"
"","","","","","animation","250","1993735","0.0-250.0","1920x1080","","2624.4000000059605","16.67","img/238/3.5/1.5/bw/001.png","","","interesting"
"","","","","","animation","251","1995994","0.0-251.0","1920x1080","","2257.199999988079","28.97","img/117/4.5/0.5/bw/001.png","","","interesting"
"","","","","","animation","252","1998367","0.0-252.0","1920x1080","","2372.2000000178814","56.61","img/238/4/1/bw/001.png","","","interesting"
"","","","","","animation","253","2000079","0.0-253.0","1920x1080","","1710.4000000059605","66.40","img/238/4.5/1/bw/001.png","","","interesting"
"","","","","","animation","254","2003326","0.0-254.0","1920x1080","","3246.5","0","img/117/2.5/2/bw/001.png","","","interesting"
"","","","","","animation","255","2007660","0.0-255.0","1920x1080","","4332.5999999940395","1.98","img/238/2.5/2/bw/001.png","","","interesting"
"","","","","","animation","256","2018551","0.0-256.0","1920x1080","","10889.200000017881","98","img/238/5.5/0.5/bw/001.png","","","interesting"
"","","","","","animation","257","2021247","0.0-257.0","1920x1080","","2694.399999976158","75.79","img/117/4.5/1.5/bw/001.png","","","interesting"
"","","","","","animation","258","2024495","0.0-258.0","1920x1080","","3246.5","51.85","img/314/5.5/1/bw/001.png","","","interesting"
"","","","","","animation","259","2026310","0.0-259.0","1920x1080","","1814.3999999761581","45.37","img/314/4/1/bw/001.png","","","interesting"
"","","","","","animation","260","2028327","0.0-260.0","1920x1080","","2016","52","img/238/4.5/0.5/bw/001.png","","","interesting"
"","","","","","animation","261","2030367","0.0-261.0","1920x1080","","2039.2000000178814","25","img/238/4/2/bw/001.png","","","interesting"
"","","","","","animation","262","2033043","0.0-262.0","1920x1080","","2675.199999988079","14.29","img/117/4.5/2/bw/001.png","","","interesting"
"","","","","","animation","263","2038277","0.0-263.0","1920x1080","","5232.5","3.04","img/117/3.5/0.66667/bw/001.png","","","interesting"
"","","","","","animation","264","2041126","0.0-264.0","1920x1080","","2848.5","3","img/238/4.5/1.5/bw/001.png","","","interesting"
"","","","","","animation","265","2043993","0.0-265.0","1920x1080","","2865.4000000059605","3.57","img/238/3.5/2/bw/001.png","","","interesting"
"","","","","","animation","266","2048710","0.0-266.0","1920x1080","","4715.9000000059605","8.33","img/117/4/2/bw/001.png","","","interesting"
"","","","","","animation","267","2051293","0.0-267.0","1920x1080","","2581.399999976158","5.56","img/238/3.5/1/bw/001.png","","","interesting"
"","","","","","animation","268","2053826","0.0-268.0","1920x1080","","2532.300000011921","4.23","img/238/2.5/1/bw/001.png","","","interesting"
"","","","","","animation","269","2060226","0.0-269.0","1920x1080","","6398.799999982119","3","img/314/2.5/2/bw/001.png","","","interesting"
"","","","","","animation","270","2182550","0.0-270.0","1920x1080","","122323.09999999404","71.03","img/117/4/1.5/bw/001.png","","","interesting"
"","","","","","animation","271","2185462","0.0-271.0","1920x1080","","2909.699999988079","32.28","img/314/3.5/1.5/bw/001.png","","","interesting"
"","","","","","animation","272","2188276","0.0-272.0","1920x1080","","2812.300000011921","31.35","img/238/4.5/2/bw/001.png","","","interesting"
"","","","","","animation","273","2191592","0.0-273.0","1920x1080","","3315","25.40","img/314/4.5/0.5/bw/001.png","","","interesting"
"","","","","","animation","274","2194430","0.0-274.0","1920x1080","","2835.800000011921","0.93","img/117/2.5/0.5/bw/001.png","","","interesting"
"","","","","","animation","275","2197359","0.0-275.0","1920x1080","","2927.5","2.38","img/238/3.5/0.5/bw/001.png","","","interesting"
"","","","","","animation","276","2199862","0.0-276.0","1920x1080","","2501.2000000178814","0.40","img/314/2.5/0.5/bw/001.png","","","interesting"
"","","","","","animation","277","2202376","0.0-277.0","1920x1080","","2512.800000011921","0.40","img/117/2.5/1/bw/001.png","","","interesting"
"","","","","","animation","278","2209014","0.0-278.0","1920x1080","","6636.700000017881","26","img/117/3.5/2/bw/001.png","","","interesting"
"","","","","","animation","279","2212073","0.0-279.0","1920x1080","","3060.0999999940395","1.19","img/314/2.5/1.5/bw/001.png","","","interesting"
"","","","","","animation","280","2214540","0.0-280.0","1920x1080","","2465.5","25.79","img/314/4/0.5/bw/001.png","","","interesting"
"","","","","","animation","281","2218164","0.0-281.0","1920x1080","","3622.5","51","img/314/5.5/2/bw/001.png","","","interesting"
"","","","","","animation","282","2220523","0.0-282.0","1920x1080","","2358.4000000059605","35.32","img/238/4/0.66667/bw/001.png","","","interesting"
"","","","","","animation","283","2222823","0.0-283.0","1920x1080","","2298.800000011921","63","img/117/5.5/1/bw/001.png","","","interesting"
"","","","","","animation","284","2224873","0.0-284.0","1920x1080","","2048.0999999940395","48.28","img/314/4/0.66667/bw/001.png","","","interesting"
"","","","","","animation","285","2227657","0.0-285.0","1920x1080","","2782.5999999940395","47.49","img/314/4.5/1/bw/001.png","","","interesting"
"","","","","","animation","286","2229348","0.0-286.0","1920x1080","","1689.9000000059605","40.21","img/117/4/0.66667/bw/001.png","","","interesting"
"","","","","","animation","287","2231557","0.0-287.0","1920x1080","","2207.9000000059605","19.05","img/117/4/1/bw/001.png","","","interesting"
"","","","","","animation","288","2233675","0.0-288.0","1920x1080","","2117.5","88.23","img/117/5.5/0.5/bw/001.png","","","interesting"
"","","","","","animation","289","2236161","0.0-289.0","1920x1080","","2484.5","31.75","img/117/4/0.5/bw/001.png","","","interesting"
"","","","","","animation","290","2238691","0.0-290.0","1920x1080","","2529","0","img/117/2.5/0.66667/bw/001.png","","","interesting"
"","","","","","animation","291","2247990","0.0-291.0","1920x1080","","9297.300000011921","50","img/238/5.5/2/bw/001.png","","","interesting"
"","","","","","animation","292","2251040","0.0-292.0","1920x1080","","3049.0999999940395","51","img/314/5.5/0.66667/bw/001.png","","","interesting"
"","","","","","animation","293","2253580","0.0-293.0","1920x1080","","2538.2999999821186","0.00","img/238/2.5/1.5/bw/001.png","","","interesting"
"","","","","","animation","294","2256174","0.0-294.0","1920x1080","","2593.2999999821186","0.13","img/314/3.5/2/bw/001.png","","","interesting"
"","","","","","animation","295","2258596","0.0-295.0","1920x1080","","2419.9000000059605","7.94","img/238/4.5/0.66667/bw/001.png","","","interesting"
"","","","","","animation","296","2263844","0.0-296.0","1920x1080","","5246.399999976158","25","img/314/4/2/bw/001.png","","","interesting"
"","","","","","animation","297","2266291","0.0-297.0","1920x1080","","2446.5","0.53","img/117/3.5/0.5/bw/001.png","","","interesting"
"","","","","","animation","298","2268440","0.0-298.0","1920x1080","","2147.7000000178814","7.41","img/314/3.5/0.66667/bw/001.png","","","interesting"
"","","","","","animation","299","2270548","0.0-299.0","1920x1080","","2106.199999988079","0","img/314/3.5/0.5/bw/001.png","","","interesting"
"","","","","","animation","300","2273637","0.0-300.0","1920x1080","","3078.800000011921","0.93","img/117/2.5/1.5/bw/001.png","","","interesting"
"","","","","","animation","301","2277100","0.0-301.0","1920x1080","","3462.300000011921","0.00","img/314/2.5/0.66667/bw/001.png","","","interesting"
"","","","","","animation","302","2281916","0.0-302.0","1920x1080","","4814.200000017881","28","img/238/3.5/0.66667/bw/001.png","","","interesting"
"","","","","","animation","303","2284065","0.0-303.0","1920x1080","","2147.699999988079","39.95","img/314/5.5/1.5/bw/001.png","","","interesting"
"","","","","","animation","304","2287316","0.0-304.0","1920x1080","","3249.4000000059605","49.07","img/117/5.5/2/bw/001.png","","","interesting"
"","","","","","animation","305","2291685","0.0-305.0","1920x1080","","4367.700000017881","48.02","img/238/5.5/1.5/bw/001.png","","","interesting"
"","","","","","animation","306","2294805","0.0-306.0","1920x1080","","3119.100000023842","25.00","img/314/4/1.5/bw/001.png","","","interesting"
"","","","","","animation","307","2306612","0.0-307.0","1920x1080","","11804.5","47.88","img/314/4.5/0.66667/bw/001.png","","","interesting"
"","","","","","animation","308","2308685","0.0-308.0","1920x1080","","2071.800000011921","2.38","img/117/3.5/1/bw/001.png","","","interesting"
"","","","","","animation","309","2310982","0.0-309.0","1920x1080","","2296.2999999821186","23.28","img/238/4/0.5/bw/001.png","","","interesting"
"","","","","","animation","310","2313366","0.0-310.0","1920x1080","","2382.5","43.39","img/117/5.5/0.66667/bw/001.png","","","interesting"
"","","","","","animation","311","2315000","0.0-311.0","1920x1080","","1632.2999999821186","49.87","img/314/3.5/1/bw/001.png","","","interesting"
"","","","","","animation","312","2319167","0.0-312.0","1920x1080","","4165.699999988079","85.58","img/314/5.5/0.5/bw/001.png","","","interesting"
"","","","","","html-button-response","313","2399989","0.0-313.0","1920x1080","","80820.40000000596","","<div class=""intro"">You are about to view a new series of animations.<br><br></div><div class=""intro"">You will evaluate them based on a different descriptor.<br><br></div><div class=""intro"">Move the slider to indicate how <strong style=""text-transform:capitalize"">NATURAL</strong> you find each animation.<br><br></div><div class=""intro"">0 = Least Natural<br></div><div class=""intro"">1 = Most Natural<br><br></div><div class=""intro"">Remember to use the <strong><em>entire range</em></strong> of the slider to make your ratings.<br></div><div class=""intro"">Please <strong><em>take your time</em></strong> and carefully consider each rating you make.<br><br></div>","0","",""
"","","","","","call-function","314","2399994","0.0-314.0","1920x1080","","","","","","",""
"","","","","","animation","315","2412749","0.0-315.0","1920x1080","","12754.300000011921","56.75","img/117/4/1.5/bw/001.png","","","natural"
"","","","","","animation","316","2416332","0.0-316.0","1920x1080","","3579.199999988079","0.79","img/314/2.5/0.66667/bw/001.png","","","natural"
"","","","","","animation","317","2420973","0.0-317.0","1920x1080","","4639.200000017881","5.69","img/314/3.5/0.5/bw/001.png","","","natural"
"","","","","","animation","318","2424052","0.0-318.0","1920x1080","","3077.699999988079","0","img/238/2.5/1.5/bw/001.png","","","natural"
"","","","","","animation","319","2429931","0.0-319.0","1920x1080","","5877.4000000059605","97","img/238/5.5/1.5/bw/001.png","","","natural"
"","","","","","animation","320","2433437","0.0-320.0","1920x1080","","3504.2000000178814","13.36","img/238/4/0.5/bw/001.png","","","natural"
"","","","","","animation","321","2436565","0.0-321.0","1920x1080","","3126.5","33.86","img/238/4/1.5/bw/001.png","","","natural"
"","","","","","animation","322","2439316","0.0-322.0","1920x1080","","2749.800000011921","0.13","img/314/2.5/1.5/bw/001.png","","","natural"
"","","","","","animation","323","2442855","0.0-323.0","1920x1080","","3537.4000000059605","17.46","img/314/4/1/bw/001.png","","","natural"
"","","","","","animation","324","2444972","0.0-324.0","1920x1080","","2114.4000000059605","0.53","img/314/2.5/0.5/bw/001.png","","","natural"
"","","","","","animation","325","2449283","0.0-325.0","1920x1080","","4308.700000017881","22.09","img/117/4.5/0.5/bw/001.png","","","natural"
"","","","","","animation","326","2451373","0.0-326.0","1920x1080","","2088","32.41","img/238/4.5/0.66667/bw/001.png","","","natural"
"","","","","","animation","327","2453894","0.0-327.0","1920x1080","","2527.9000000059605","0.79","img/238/2.5/0.5/bw/001.png","","","natural"
"","","","","","animation","328","2456660","0.0-328.0","1920x1080","","2761.5999999940395","3","img/117/3.5/1/bw/001.png","","","natural"
"","","","","","animation","329","2459157","0.0-329.0","1920x1080","","2495.9000000059605","2.65","img/238/3.5/0.66667/bw/001.png","","","natural"
"","","","","","animation","330","2465091","0.0-330.0","1920x1080","","5932.5","72.88","img/117/4.5/1.5/bw/001.png","","","natural"
"","","","","","animation","331","2467908","0.0-331.0","1920x1080","","2815.2000000178814","100","img/238/5.5/2/bw/001.png","","","natural"
"","","","","","animation","332","2470828","0.0-332.0","1920x1080","","2918.9000000059605","50","img/314/4.5/0.5/bw/001.png","","","natural"
"","","","","","animation","333","2474558","0.0-333.0","1920x1080","","3727.199999988079","37.70","img/314/3.5/1.5/bw/001.png","","","natural"
"","","","","","animation","334","2476796","0.0-334.0","1920x1080","","2237.0999999940395","75","img/314/4.5/2/bw/001.png","","","natural"
"","","","","","animation","335","2480007","0.0-335.0","1920x1080","","3209.699999988079","0.79","img/117/2.5/0.66667/bw/001.png","","","natural"
"","","","","","animation","336","2483636","0.0-336.0","1920x1080","","3628","32.28","img/238/4/0.66667/bw/001.png","","","natural"
"","","","","","animation","337","2485860","0.0-337.0","1920x1080","","2222.4000000059605","14.42","img/117/3.5/0.5/bw/001.png","","","natural"
"","","","","","animation","338","2488702","0.0-338.0","1920x1080","","2837","75.40","img/117/4.5/2/bw/001.png","","","natural"
"","","","","","animation","339","2503381","0.0-339.0","1920x1080","","14678","68","img/238/4.5/2/bw/001.png","","","natural"
"","","","","","animation","340","2506374","0.0-340.0","1920x1080","","2991.199999988079","0","img/314/2.5/2/bw/001.png","","","natural"
"","","","","","animation","341","2511424","0.0-341.0","1920x1080","","5048.5999999940395","0.40","img/314/2.5/1/bw/001.png","","","natural"
"","","","","","animation","342","2515143","0.0-342.0","1920x1080","","3716.4000000059605","12.43","img/117/4/0.5/bw/001.png","","","natural"
"","","","","","animation","343","2519197","0.0-343.0","1920x1080","","4052.9000000059605","56","img/314/5.5/1.5/bw/001.png","","","natural"
"","","","","","animation","344","2523307","0.0-344.0","1920x1080","","4108.0999999940395","48","img/117/4.5/1/bw/001.png","","","natural"
"","","","","","animation","345","2525724","0.0-345.0","1920x1080","","2416","30.82","img/117/4/0.66667/bw/001.png","","","natural"
"","","","","","animation","346","2528307","0.0-346.0","1920x1080","","2581.7999999821186","13","img/238/3.5/1.5/bw/001.png","","","natural"
"","","","","","animation","347","2530596","0.0-347.0","1920x1080","","2286.7999999821186","58.20","img/117/5.5/1.5/bw/001.png","","","natural"
"","","","","","animation","348","2533275","0.0-348.0","1920x1080","","2678","58","img/238/5.5/0.5/bw/001.png","","","natural"
"","","","","","animation","349","2535907","0.0-349.0","1920x1080","","2630.800000011921","6.35","img/238/3.5/0.5/bw/001.png","","","natural"
"","","","","","animation","350","2538793","0.0-350.0","1920x1080","","2883.7000000178814","5.82","img/238/4/2/bw/001.png","","","natural"
"","","","","","animation","351","2542630","0.0-351.0","1920x1080","","3836","52.25","img/117/5.5/2/bw/001.png","","","natural"
"","","","","","animation","352","2545691","0.0-352.0","1920x1080","","3059.5","3.04","img/314/3.5/1/bw/001.png","","","natural"
"","","","","","animation","353","2549780","0.0-353.0","1920x1080","","4086.2000000178814","0.79","img/117/2.5/0.5/bw/001.png","","","natural"
"","","","","","animation","354","2555174","0.0-354.0","1920x1080","","5392.200000017881","1","img/117/3.5/0.66667/bw/001.png","","","natural"
"","","","","","animation","355","2557780","0.0-355.0","1920x1080","","2603.699999988079","48.94","img/314/4.5/1/bw/001.png","","","natural"
"","","","","","animation","356","2559358","0.0-356.0","1920x1080","","1576.5","60.98","img/314/5.5/0.66667/bw/001.png","","","natural"
"","","","","","animation","357","2562090","0.0-357.0","1920x1080","","2730.800000011921","68.92","img/314/5.5/2/bw/001.png","","","natural"
"","","","","","animation","358","2564607","0.0-358.0","1920x1080","","2515.199999988079","0.53","img/117/2.5/1.5/bw/001.png","","","natural"
"","","","","","animation","359","2568319","0.0-359.0","1920x1080","","3710.9000000059605","60.05","img/238/4.5/1.5/bw/001.png","","","natural"
"","","","","","animation","360","2570774","0.0-360.0","1920x1080","","2453.0999999940395","84.13","img/238/5.5/1/bw/001.png","","","natural"
"","","","","","animation","361","2572933","0.0-361.0","1920x1080","","2158.800000011921","74.87","img/314/5.5/1/bw/001.png","","","natural"
"","","","","","animation","362","2575173","0.0-362.0","1920x1080","","2238.699999988079","59.39","img/238/4.5/1/bw/001.png","","","natural"
"","","","","","animation","363","2577326","0.0-363.0","1920x1080","","2151.5999999940395","7.28","img/314/4/0.5/bw/001.png","","","natural"
"","","","","","animation","364","2582574","0.0-364.0","1920x1080","","5246.100000023842","6.75","img/314/4.5/1.5/bw/001.png","","","natural"
"","","","","","animation","365","2584775","0.0-365.0","1920x1080","","2199.800000011921","3","img/238/3.5/2/bw/001.png","","","natural"
"","","","","","animation","366","2587316","0.0-366.0","1920x1080","","2540.2000000178814","0","img/117/3.5/2/bw/001.png","","","natural"
"","","","","","animation","367","2590859","0.0-367.0","1920x1080","","3541.800000011921","18","img/117/4/1/bw/001.png","","","natural"
"","","","","","animation","368","2593027","0.0-368.0","1920x1080","","2166.199999988079","15.74","img/238/4/1/bw/001.png","","","natural"
"","","","","","animation","369","2595256","0.0-369.0","1920x1080","","2228","60.32","img/117/5.5/1/bw/001.png","","","natural"
"","","","","","animation","370","2598540","0.0-370.0","1920x1080","","3282.2000000178814","0","img/117/2.5/1/bw/001.png","","","natural"
"","","","","","animation","371","2600613","0.0-371.0","1920x1080","","2071.0999999940395","62","img/314/5.5/0.5/bw/001.png","","","natural"
"","","","","","animation","372","2602827","0.0-372.0","1920x1080","","2212.4000000059605","44.71","img/238/4.5/0.5/bw/001.png","","","natural"
"","","","","","animation","373","2608027","0.0-373.0","1920x1080","","5198.4000000059605","1.19","img/238/2.5/0.66667/bw/001.png","","","natural"
"","","","","","animation","374","2611815","0.0-374.0","1920x1080","","3786","2.25","img/314/3.5/0.66667/bw/001.png","","","natural"
"","","","","","animation","375","2617427","0.0-375.0","1920x1080","","5610.699999988079","73","img/238/5.5/0.66667/bw/001.png","","","natural"
"","","","","","animation","376","2619876","0.0-376.0","1920x1080","","2446.9000000059605","3.17","img/238/3.5/1/bw/001.png","","","natural"
"","","","","","animation","377","2623348","0.0-377.0","1920x1080","","3470.800000011921","0.53","img/117/2.5/2/bw/001.png","","","natural"
"","","","","","animation","378","2626859","0.0-378.0","1920x1080","","3508.9000000059605","50","img/117/5.5/0.5/bw/001.png","","","natural"
"","","","","","animation","379","2629359","0.0-379.0","1920x1080","","2498.5","26.19","img/314/4/0.66667/bw/001.png","","","natural"
"","","","","","animation","380","2631853","0.0-380.0","1920x1080","","2483.300000011921","3.17","img/314/4.5/0.66667/bw/001.png","","","natural"
"","","","","","animation","381","2634005","0.0-381.0","1920x1080","","2150.5","31.88","img/117/4.5/0.66667/bw/001.png","","","natural"
"","","","","","animation","382","2636384","0.0-382.0","1920x1080","","2377.2000000178814","16.93","img/314/4/1.5/bw/001.png","","","natural"
"","","","","","animation","383","2638885","0.0-383.0","1920x1080","","2499.7000000178814","0","img/238/2.5/2/bw/001.png","","","natural"
"","","","","","animation","384","2641450","0.0-384.0","1920x1080","","2564.100000023842","0.93","img/238/2.5/1/bw/001.png","","","natural"
"","","","","","animation","385","2644866","0.0-385.0","1920x1080","","3414.100000023842","51.06","img/117/5.5/0.66667/bw/001.png","","","natural"
"","","","","","animation","386","2647305","0.0-386.0","1920x1080","","2437.5","53.17","img/314/4/2/bw/001.png","","","natural"
"","","","","","animation","387","2648876","0.0-387.0","1920x1080","","1569.8999999761581","70.77","img/117/4/2/bw/001.png","","","natural"
"","","","","","animation","388","2651416","0.0-388.0","1920x1080","","2539","15","img/117/3.5/1.5/bw/001.png","","","natural"
"","","","","","animation","389","2654503","0.0-389.0","1920x1080","","3084.7999999821186","12.96","img/314/3.5/2/bw/001.png","","","natural"
"","","","","","html-button-response","390","2671837","0.0-390.0","1920x1080","","17332.20000001788","","<strong>Study Debriefing</strong><br><p class=""debrief""><strong>Background:</strong> The patterns you rated are called <em>fractals</em>. The term fractal describes a class of irregular curves or shapes for which any suitably chosen part is similar in shape to a given larger or smaller part when magnified or reduced to the same size. Fractal properties are found throughout the natural and manmade world. The series of animations you saw today displayed animated fractal patterns of a varying complexity.</p><p class=""debrief""><strong>Purpose of this study:</strong> We hope to better understand how the perception of static fractals differs from the perception of animated fractals, and how the speed of the animated patterns influences people&apos;s perception of them. Fractals allow us to study the perception of aesthetic properties (e.g. the perceived level of beauty in an image) without using recognizable content, which makes them an excellent tool for studying abstract aesthetic judgement.</p><p class=""debrief""><strong>Your part:</strong> Your participation has helped us to further understand how humans perceive these patterns across different levels of speed and complexity. This research with allow us to better understand how the visual system and brain process our ever-changing visual environments.<p class=""debrief""><strong>Feedback and Further information:</strong> If you have additional questions about this study, please feel free to ask the researcher, Nathan Gonzales-Hess at nhess @ uoregon.edu. If you have any questions concerning your rights as a research participant, please contact Research Compliance Services, 5237 University of Oregon, Eugene, OR 97403, 541-346-2510, or email researchCompliance @ uoregon.edu. You can also email the Human Subjects Coordinator for psychology and linguistics research at hscoord @ uoregon.edu. ","0","",""
"","","","","","html-button-response","391","2677353","0.0-391.0","1920x1080","","5512.199999988079","","Thank you for participating in this study. <br>Please click below to finish the experiment and submit your responses.<br><br>","0","",""
"true","","","","","fullscreen","392","2678361","0.0-392.0","1920x1080","13:40 14/10/2022","","","","","",""
