"success","timeout","failed_images","failed_audio","failed_video","trial_type","trial_index","time_elapsed","internal_node_id","resolution","timeStamp","rt","response","stimulus","button_pressed","value","descriptor"
"true","false","[]","[]","[]","preload","0","3875","0.0-0.0","1920x1080","","","","","","",""
"true","false","[]","[]","[]","preload","1","7708","0.0-1.0","1920x1080","","","","","","",""
"true","false","[]","[]","[]","preload","2","31530","0.0-2.0","1920x1080","","","","","","",""
"true","","","","","fullscreen","3","143993333","0.0-3.0","1920x1080","18:31 18/5/2022","","","","","",""
"","","","","","survey-html-form","4","144154955","0.0-4.0","1920x1080","","161620.89999997616","{""age"":""25"",""gender"":""Male""}","","","",""
"","","","","","html-button-response","5","144210203","0.0-5.0","1920x1080","","55246.90000003576","","<div class=""complex"">You are going to see a series of animations.<br><br></div><div class=""complex"">Move the slider to indicate how <strong style=""text-transform:capitalize"">COMPLEX</strong> you find each animation.<br><br></div><div class=""complex"">0 = Least Complex<br></div><div class=""complex"">1 = Most Complex<br><br></div><div class=""complex"">Remember to use the <strong><em>entire range</em></strong> of the slider to make your ratings.<br></div><div class=""complex"">Please <strong><em>take your time</em></strong> and carefully consider each rating you make.<br><br></div><div class=""complex"">The study has five sections and will take about 45 minutes to complete.<br><br></div>","0","",""
"","","","","","call-function","6","144210204","0.0-6.0","1920x1080","","","","","","",""
"","","","","","animation","7","144220683","0.0-7.0","1920x1080","","10475.700000047684","83.99","img/314/5.5/1.5/bw/001.png","","","complex"
"","","","","","animation","8","144226122","0.0-8.0","1920x1080","","5438.699999988079","57.80","img/117/4/0.66667/bw/001.png","","","complex"
"","","","","","animation","9","144233218","0.0-9.0","1920x1080","","7095","81.35","img/314/3.5/0.66667/bw/001.png","","","complex"
"","","","","","animation","10","144239107","0.0-10.0","1920x1080","","5887.199999988079","38.36","img/314/5.5/2/bw/001.png","","","complex"
"","","","","","animation","11","144244834","0.0-11.0","1920x1080","","5726.399999976158","35.58","img/314/5.5/1/bw/001.png","","","complex"
"","","","","","animation","12","144250202","0.0-12.0","1920x1080","","5367.099999964237","62.17","img/314/4.5/0.66667/bw/001.png","","","complex"
"","","","","","animation","13","144254818","0.0-13.0","1920x1080","","4615.400000035763","79.89","img/117/4/1/bw/001.png","","","complex"
"","","","","","animation","14","144263802","0.0-14.0","1920x1080","","8983.100000023842","47","img/238/4.5/1/bw/001.png","","","complex"
"","","","","","animation","15","144268418","0.0-15.0","1920x1080","","4614.399999976158","76.85","img/238/3.5/2/bw/001.png","","","complex"
"","","","","","animation","16","144291170","0.0-16.0","1920x1080","","22751.19999998808","53.70","img/117/4.5/2/bw/001.png","","","complex"
"","","","","","animation","17","144297530","0.0-17.0","1920x1080","","6359.300000011921","60.98","img/117/5.5/0.5/bw/001.png","","","complex"
"","","","","","animation","18","144304106","0.0-18.0","1920x1080","","6575.799999952316","91","img/117/2.5/0.5/bw/001.png","","","complex"
"","","","","","animation","19","144308562","0.0-19.0","1920x1080","","4454.899999976158","87.57","img/238/2.5/0.66667/bw/001.png","","","complex"
"","","","","","animation","20","144311354","0.0-20.0","1920x1080","","2791.399999976158","72.22","img/117/3.5/0.66667/bw/001.png","","","complex"
"","","","","","animation","21","144316650","0.0-21.0","1920x1080","","5295.100000023842","41","img/314/4.5/1/bw/001.png","","","complex"
"","","","","","animation","22","144319714","0.0-22.0","1920x1080","","3063.399999976158","59.92","img/238/4/1/bw/001.png","","","complex"
"","","","","","animation","23","144324938","0.0-23.0","1920x1080","","5224","36.38","img/238/5.5/0.66667/bw/001.png","","","complex"
"","","","","","animation","24","144328338","0.0-24.0","1920x1080","","3398.899999976158","66.40","img/314/3.5/1/bw/001.png","","","complex"
"","","","","","animation","25","144331801","0.0-25.0","1920x1080","","3423","36.51","img/314/5.5/0.66667/bw/001.png","","","complex"
"","","","","","animation","26","144335633","0.0-26.0","1920x1080","","3831.100000023842","65.08","img/117/4.5/0.66667/bw/001.png","","","complex"
"","","","","","animation","27","144340273","0.0-27.0","1920x1080","","4639.300000011921","64.55","img/117/3.5/1.5/bw/001.png","","","complex"
"","","","","","animation","28","145145814","0.0-28.0","1920x1080","","805375.1999999881","56.48","img/238/4/0.5/bw/001.png","","","complex"
"","","","","","animation","29","145147998","0.0-29.0","1920x1080","","2183","51.06","img/238/4/1.5/bw/001.png","","","complex"
"","","","","","animation","30","145151151","0.0-30.0","1920x1080","","3151.800000011921","28.57","img/238/5.5/1.5/bw/001.png","","","complex"
"","","","","","animation","31","145153423","0.0-31.0","1920x1080","","2271","73","img/117/4/0.5/bw/001.png","","","complex"
"","","","","","animation","32","145155392","0.0-32.0","1920x1080","","1968.5","32","img/117/4.5/1/bw/001.png","","","complex"
"","","","","","animation","33","145157222","0.0-33.0","1920x1080","","1829.300000011921","56.08","img/238/4.5/2/bw/001.png","","","complex"
"","","","","","animation","34","145159630","0.0-34.0","1920x1080","","2407.400000035763","37.70","img/117/5.5/1.5/bw/001.png","","","complex"
"","","","","","animation","35","145162103","0.0-35.0","1920x1080","","2471.399999976158","92.33","img/117/2.5/0.66667/bw/001.png","","","complex"
"","","","","","animation","36","145164127","0.0-36.0","1920x1080","","2023.5999999642372","41.67","img/117/5.5/2/bw/001.png","","","complex"
"","","","","","animation","37","145166183","0.0-37.0","1920x1080","","2055","51.98","img/117/4.5/0.5/bw/001.png","","","complex"
"","","","","","animation","38","145167823","0.0-38.0","1920x1080","","1638.6000000238419","72.62","img/314/3.5/2/bw/001.png","","","complex"
"","","","","","animation","39","145170375","0.0-39.0","1920x1080","","2551.2999999523163","91.67","img/117/2.5/1/bw/001.png","","","complex"
"","","","","","animation","40","145172038","0.0-40.0","1920x1080","","1663","59.79","img/314/4.5/2/bw/001.png","","","complex"
"","","","","","animation","41","145173614","0.0-41.0","1920x1080","","1574.5999999642372","76.32","img/238/3.5/1/bw/001.png","","","complex"
"","","","","","animation","42","145175470","0.0-42.0","1920x1080","","1855.3999999761581","56.08","img/117/4.5/1.5/bw/001.png","","","complex"
"","","","","","animation","43","145178038","0.0-43.0","1920x1080","","2567.300000011921","81.75","img/314/2.5/0.66667/bw/001.png","","","complex"
"","","","","","animation","44","145179870","0.0-44.0","1920x1080","","1831.1000000238419","60.05","img/314/4/1/bw/001.png","","","complex"
"","","","","","animation","45","145182182","0.0-45.0","1920x1080","","2310.699999988079","72.22","img/117/3.5/2/bw/001.png","","","complex"
"","","","","","animation","46","145184110","0.0-46.0","1920x1080","","1927.0999999642372","52.78","img/117/5.5/0.66667/bw/001.png","","","complex"
"","","","","","animation","47","145188209","0.0-47.0","1920x1080","","4097.899999976158","55.16","img/117/4/2/bw/001.png","","","complex"
"","","","","","animation","48","145190238","0.0-48.0","1920x1080","","2028.9000000357628","58.73","img/314/4/0.66667/bw/001.png","","","complex"
"","","","","","animation","49","145191966","0.0-49.0","1920x1080","","1726.699999988079","70.63","img/117/3.5/0.5/bw/001.png","","","complex"
"","","","","","animation","50","145194086","0.0-50.0","1920x1080","","2119.7000000476837","45.37","img/238/5.5/2/bw/001.png","","","complex"
"","","","","","animation","51","145195982","0.0-51.0","1920x1080","","1894.7999999523163","79","img/314/2.5/2/bw/001.png","","","complex"
"","","","","","animation","52","145200078","0.0-52.0","1920x1080","","4095.099999964237","56.08","img/238/4.5/0.66667/bw/001.png","","","complex"
"","","","","","animation","53","145202560","0.0-53.0","1920x1080","","2480.800000011921","78.04","img/117/2.5/1.5/bw/001.png","","","complex"
"","","","","","animation","54","145204246","0.0-54.0","1920x1080","","1685.5","62.83","img/314/4.5/0.5/bw/001.png","","","complex"
"","","","","","animation","55","145206046","0.0-55.0","1920x1080","","1799.300000011921","75.79","img/314/2.5/1/bw/001.png","","","complex"
"","","","","","animation","56","145207760","0.0-56.0","1920x1080","","1712.699999988079","63.23","img/117/3.5/1/bw/001.png","","","complex"
"","","","","","animation","57","145209286","0.0-57.0","1920x1080","","1525.8999999761581","58.20","img/238/3.5/0.66667/bw/001.png","","","complex"
"","","","","","animation","58","145211409","0.0-58.0","1920x1080","","2121.599999964237","38.23","img/238/5.5/0.5/bw/001.png","","","complex"
"","","","","","animation","59","145213478","0.0-59.0","1920x1080","","2068.899999976158","83.73","img/314/2.5/0.5/bw/001.png","","","complex"
"","","","","","animation","60","145215486","0.0-60.0","1920x1080","","2007.5","59.13","img/238/4/0.66667/bw/001.png","","","complex"
"","","","","","animation","61","145217646","0.0-61.0","1920x1080","","2159","86.90","img/238/2.5/1/bw/001.png","","","complex"
"","","","","","animation","62","145219598","0.0-62.0","1920x1080","","1951.3999999761581","83.60","img/117/2.5/2/bw/001.png","","","complex"
"","","","","","animation","63","145221718","0.0-63.0","1920x1080","","2119","86.38","img/238/2.5/1.5/bw/001.png","","","complex"
"","","","","","animation","64","145223438","0.0-64.0","1920x1080","","1719.5","57.41","img/238/4.5/1.5/bw/001.png","","","complex"
"","","","","","animation","65","145225175","0.0-65.0","1920x1080","","1736.1000000238419","81.48","img/238/2.5/0.5/bw/001.png","","","complex"
"","","","","","animation","66","145226870","0.0-66.0","1920x1080","","1694.199999988079","66.93","img/314/5.5/0.5/bw/001.png","","","complex"
"","","","","","animation","67","145228382","0.0-67.0","1920x1080","","1510.699999988079","74","img/238/3.5/0.5/bw/001.png","","","complex"
"","","","","","animation","68","145230118","0.0-68.0","1920x1080","","1735.0999999642372","62.17","img/117/4/1.5/bw/001.png","","","complex"
"","","","","","animation","69","145231794","0.0-69.0","1920x1080","","1674.0999999642372","66.14","img/314/4/0.5/bw/001.png","","","complex"
"","","","","","animation","70","145233783","0.0-70.0","1920x1080","","1988","60.71","img/314/4.5/1.5/bw/001.png","","","complex"
"","","","","","animation","71","145235062","0.0-71.0","1920x1080","","1278.800000011921","71.16","img/314/4/1.5/bw/001.png","","","complex"
"","","","","","animation","72","145237194","0.0-72.0","1920x1080","","2130.600000023842","62.57","img/314/4/2/bw/001.png","","","complex"
"","","","","","animation","73","145238960","0.0-73.0","1920x1080","","1765.9000000357628","71.30","img/238/5.5/1/bw/001.png","","","complex"
"","","","","","animation","74","145240671","0.0-74.0","1920x1080","","1709.4000000357628","62.70","img/238/4/2/bw/001.png","","","complex"
"","","","","","animation","75","145242462","0.0-75.0","1920x1080","","1790.5","82","img/238/2.5/2/bw/001.png","","","complex"
"","","","","","animation","76","145244151","0.0-76.0","1920x1080","","1687.699999988079","67.33","img/238/4.5/0.5/bw/001.png","","","complex"
"","","","","","animation","77","145246210","0.0-77.0","1920x1080","","2058.100000023842","78.70","img/314/2.5/1.5/bw/001.png","","","complex"
"","","","","","animation","78","145247654","0.0-78.0","1920x1080","","1444.0999999642372","74.34","img/314/3.5/0.5/bw/001.png","","","complex"
"","","","","","animation","79","145249399","0.0-79.0","1920x1080","","1743.3999999761581","62.96","img/117/5.5/1/bw/001.png","","","complex"
"","","","","","animation","80","145250719","0.0-80.0","1920x1080","","1318.8999999761581","68.78","img/238/3.5/1.5/bw/001.png","","","complex"
"","","","","","animation","81","145252519","0.0-81.0","1920x1080","","1799.199999988079","68.12","img/314/3.5/1.5/bw/001.png","","","complex"
"","","","","","html-button-response","82","145271535","0.0-82.0","1920x1080","","19015.100000023842","","<div class=""intro"">You are about to view a new series of animations.<br><br></div><div class=""intro"">You will evaluate them based on a different descriptor.<br><br></div><div class=""intro"">Move the slider to indicate how <strong style=""text-transform:capitalize"">INTERESTING</strong> you find each animation.<br><br></div><div class=""intro"">0 = Least Interesting<br></div><div class=""intro"">1 = Most Interesting<br><br></div><div class=""intro"">Remember to use the <strong><em>entire range</em></strong> of the slider to make your ratings.<br></div><div class=""intro"">Please <strong><em>take your time</em></strong> and carefully consider each rating you make.<br><br></div>","0","",""
"","","","","","call-function","83","145271535","0.0-83.0","1920x1080","","","","","","",""
"","","","","","animation","84","145281846","0.0-84.0","1920x1080","","10310.300000011921","88.76","img/314/5.5/2/bw/001.png","","","interesting"
"","","","","","animation","85","145284559","0.0-85.0","1920x1080","","2711.900000035763","18.65","img/117/3.5/1/bw/001.png","","","interesting"
"","","","","","animation","86","145287998","0.0-86.0","1920x1080","","3438.399999976158","85.71","img/238/5.5/0.66667/bw/001.png","","","interesting"
"","","","","","animation","87","145293411","0.0-87.0","1920x1080","","5410.5","11","img/117/2.5/2/bw/001.png","","","interesting"
"","","","","","animation","88","145296047","0.0-88.0","1920x1080","","2635.5","28.04","img/314/3.5/0.5/bw/001.png","","","interesting"
"","","","","","animation","89","145299177","0.0-89.0","1920x1080","","3129.100000023842","29.89","img/117/4.5/1/bw/001.png","","","interesting"
"","","","","","animation","90","145301935","0.0-90.0","1920x1080","","2757","46.16","img/117/5.5/2/bw/001.png","","","interesting"
"","","","","","animation","91","145305695","0.0-91.0","1920x1080","","3758.900000035763","45.24","img/238/4.5/0.66667/bw/001.png","","","interesting"
"","","","","","animation","92","145307827","0.0-92.0","1920x1080","","2131.399999976158","40.34","img/238/4/1/bw/001.png","","","interesting"
"","","","","","animation","93","145310271","0.0-93.0","1920x1080","","2443.2999999523163","38","img/238/4/0.5/bw/001.png","","","interesting"
"","","","","","animation","94","145312681","0.0-94.0","1920x1080","","2409.2000000476837","89","img/117/5.5/1.5/bw/001.png","","","interesting"
"","","","","","animation","95","145315255","0.0-95.0","1920x1080","","2572.399999976158","10.71","img/314/2.5/0.5/bw/001.png","","","interesting"
"","","","","","animation","96","145317210","0.0-96.0","1920x1080","","1954.4000000357628","39.81","img/117/4.5/2/bw/001.png","","","interesting"
"","","","","","animation","97","145319455","0.0-97.0","1920x1080","","2244","18","img/117/2.5/0.66667/bw/001.png","","","interesting"
"","","","","","animation","98","145321751","0.0-98.0","1920x1080","","2295","34.26","img/314/3.5/0.66667/bw/001.png","","","interesting"
"","","","","","animation","99","145323811","0.0-99.0","1920x1080","","2058.599999964237","34.39","img/117/4.5/1.5/bw/001.png","","","interesting"
"","","","","","animation","100","145326071","0.0-100.0","1920x1080","","2259.5","29","img/314/3.5/1.5/bw/001.png","","","interesting"
"","","","","","animation","101","145327962","0.0-101.0","1920x1080","","1889.9000000357628","28.97","img/314/3.5/1/bw/001.png","","","interesting"
"","","","","","animation","102","145330319","0.0-102.0","1920x1080","","2356.300000011921","26.32","img/314/2.5/1/bw/001.png","","","interesting"
"","","","","","animation","103","145332999","0.0-103.0","1920x1080","","2679.100000023842","76.46","img/117/5.5/0.5/bw/001.png","","","interesting"
"","","","","","animation","104","145335095","0.0-104.0","1920x1080","","2094.7000000476837","80.95","img/314/5.5/0.66667/bw/001.png","","","interesting"
"","","","","","animation","105","145337879","0.0-105.0","1920x1080","","2782.800000011921","17.99","img/117/2.5/1.5/bw/001.png","","","interesting"
"","","","","","animation","106","145340535","0.0-106.0","1920x1080","","2655.600000023842","31.61","img/314/4/1.5/bw/001.png","","","interesting"
"","","","","","animation","107","145342535","0.0-107.0","1920x1080","","1998.800000011921","20","img/238/2.5/1.5/bw/001.png","","","interesting"
"","","","","","animation","108","145344647","0.0-108.0","1920x1080","","2110.899999976158","23","img/238/3.5/2/bw/001.png","","","interesting"
"","","","","","animation","109","145347144","0.0-109.0","1920x1080","","2495.5","84.52","img/238/5.5/1/bw/001.png","","","interesting"
"","","","","","animation","110","145349255","0.0-110.0","1920x1080","","2110.800000011921","33.07","img/238/4/1.5/bw/001.png","","","interesting"
"","","","","","animation","111","145352519","0.0-111.0","1920x1080","","3263.199999988079","75.93","img/117/3.5/0.5/bw/001.png","","","interesting"
"","","","","","animation","112","145358471","0.0-112.0","1920x1080","","5950.700000047684","46","img/314/4/1/bw/001.png","","","interesting"
"","","","","","animation","113","145362446","0.0-113.0","1920x1080","","3974.399999976158","43","img/117/4/1.5/bw/001.png","","","interesting"
"","","","","","animation","114","145365727","0.0-114.0","1920x1080","","3279.199999988079","86.24","img/314/5.5/1.5/bw/001.png","","","interesting"
"","","","","","animation","115","145372944","0.0-115.0","1920x1080","","7215.399999976158","68","img/117/4/0.5/bw/001.png","","","interesting"
"","","","","","animation","116","145387855","0.0-116.0","1920x1080","","14910.5","30","img/314/3.5/2/bw/001.png","","","interesting"
"","","","","","animation","117","145392263","0.0-117.0","1920x1080","","4406.600000023842","74","img/238/5.5/2/bw/001.png","","","interesting"
"","","","","","animation","118","145397655","0.0-118.0","1920x1080","","5391.399999976158","75.53","img/117/5.5/0.66667/bw/001.png","","","interesting"
"","","","","","animation","119","145399919","0.0-119.0","1920x1080","","2262.599999964237","25","img/314/2.5/2/bw/001.png","","","interesting"
"","","","","","animation","120","145402167","0.0-120.0","1920x1080","","2246.800000011921","19.05","img/238/2.5/2/bw/001.png","","","interesting"
"","","","","","animation","121","145408903","0.0-121.0","1920x1080","","6735.300000011921","40","img/238/2.5/0.66667/bw/001.png","","","interesting"
"","","","","","animation","122","145412719","0.0-122.0","1920x1080","","3815.100000023842","38.62","img/117/4/2/bw/001.png","","","interesting"
"","","","","","animation","123","145414927","0.0-123.0","1920x1080","","2207.300000011921","36.64","img/117/3.5/2/bw/001.png","","","interesting"
"","","","","","animation","124","145417943","0.0-124.0","1920x1080","","3014.900000035763","51.32","img/314/4.5/1/bw/001.png","","","interesting"
"","","","","","animation","125","145420810","0.0-125.0","1920x1080","","2865.800000011921","76.59","img/314/5.5/0.5/bw/001.png","","","interesting"
"","","","","","animation","126","145422767","0.0-126.0","1920x1080","","1955.6000000238419","37.17","img/238/4.5/0.5/bw/001.png","","","interesting"
"","","","","","animation","127","145425399","0.0-127.0","1920x1080","","2630.899999976158","37.17","img/117/4.5/0.66667/bw/001.png","","","interesting"
"","","","","","animation","128","145427393","0.0-128.0","1920x1080","","1994","35.98","img/117/4/1/bw/001.png","","","interesting"
"","","","","","animation","129","145433599","0.0-129.0","1920x1080","","6204.299999952316","78","img/117/5.5/1/bw/001.png","","","interesting"
"","","","","","animation","130","145436560","0.0-130.0","1920x1080","","2959.900000035763","36.90","img/117/2.5/1/bw/001.png","","","interesting"
"","","","","","animation","131","145439799","0.0-131.0","1920x1080","","3237.899999976158","36.90","img/117/2.5/0.5/bw/001.png","","","interesting"
"","","","","","animation","132","145442177","0.0-132.0","1920x1080","","2377.2999999523163","80.42","img/238/5.5/0.5/bw/001.png","","","interesting"
"","","","","","animation","133","145444793","0.0-133.0","1920x1080","","2615.099999964237","36.90","img/238/3.5/0.66667/bw/001.png","","","interesting"
"","","","","","animation","134","145446951","0.0-134.0","1920x1080","","2155.899999976158","37.17","img/314/4.5/0.5/bw/001.png","","","interesting"
"","","","","","animation","135","145448750","0.0-135.0","1920x1080","","1798.800000011921","36","img/117/3.5/0.66667/bw/001.png","","","interesting"
"","","","","","animation","136","145451630","0.0-136.0","1920x1080","","2879.099999964237","37.57","img/238/4/2/bw/001.png","","","interesting"
"","","","","","animation","137","145454410","0.0-137.0","1920x1080","","2778.899999976158","31.35","img/314/4.5/1.5/bw/001.png","","","interesting"
"","","","","","animation","138","145456487","0.0-138.0","1920x1080","","2075.699999988079","30.42","img/117/3.5/1.5/bw/001.png","","","interesting"
"","","","","","animation","139","145458394","0.0-139.0","1920x1080","","1906.3999999761581","30.16","img/238/4.5/1/bw/001.png","","","interesting"
"","","","","","animation","140","145460967","0.0-140.0","1920x1080","","2571.600000023842","80.82","img/314/5.5/1/bw/001.png","","","interesting"
"","","","","","animation","141","145463087","0.0-141.0","1920x1080","","2119.100000023842","22.35","img/314/2.5/1.5/bw/001.png","","","interesting"
"","","","","","animation","142","145465580","0.0-142.0","1920x1080","","2492.699999988079","26","img/314/4.5/2/bw/001.png","","","interesting"
"","","","","","animation","143","145467560","0.0-143.0","1920x1080","","1978.300000011921","34.79","img/314/4/0.5/bw/001.png","","","interesting"
"","","","","","animation","144","145470799","0.0-144.0","1920x1080","","3237.199999988079","79.37","img/238/5.5/1.5/bw/001.png","","","interesting"
"","","","","","animation","145","145473244","0.0-145.0","1920x1080","","2444.199999988079","21.56","img/314/2.5/0.66667/bw/001.png","","","interesting"
"","","","","","animation","146","145475935","0.0-146.0","1920x1080","","2690","74.21","img/117/4.5/0.5/bw/001.png","","","interesting"
"","","","","","animation","147","145481679","0.0-147.0","1920x1080","","5742.400000035763","68","img/238/3.5/0.5/bw/001.png","","","interesting"
"","","","","","animation","148","145483703","0.0-148.0","1920x1080","","2023.6000000238419","54.89","img/314/4.5/0.66667/bw/001.png","","","interesting"
"","","","","","animation","149","145486044","0.0-149.0","1920x1080","","2339.800000011921","35.85","img/238/4.5/1.5/bw/001.png","","","interesting"
"","","","","","animation","150","145489151","0.0-150.0","1920x1080","","3105.899999976158","61","img/314/4/2/bw/001.png","","","interesting"
"","","","","","animation","151","145492079","0.0-151.0","1920x1080","","2926.699999988079","46.03","img/238/3.5/1/bw/001.png","","","interesting"
"","","","","","animation","152","145494145","0.0-152.0","1920x1080","","2065.399999976158","35.19","img/238/3.5/1.5/bw/001.png","","","interesting"
"","","","","","animation","153","145496395","0.0-153.0","1920x1080","","2249","33.73","img/238/4.5/2/bw/001.png","","","interesting"
"","","","","","animation","154","145498655","0.0-154.0","1920x1080","","2258.900000035763","34.66","img/314/4/0.66667/bw/001.png","","","interesting"
"","","","","","animation","155","145500344","0.0-155.0","1920x1080","","1688.199999988079","43.12","img/238/4/0.66667/bw/001.png","","","interesting"
"","","","","","animation","156","145502561","0.0-156.0","1920x1080","","2216.099999964237","31.08","img/238/2.5/0.5/bw/001.png","","","interesting"
"","","","","","animation","157","145504351","0.0-157.0","1920x1080","","1789.199999988079","27.51","img/238/2.5/1/bw/001.png","","","interesting"
"","","","","","animation","158","145506231","0.0-158.0","1920x1080","","1878.7000000476837","36","img/117/4/0.66667/bw/001.png","","","interesting"
"","","","","","html-button-response","159","145525228","0.0-159.0","1920x1080","","18996","","<div class=""intro"">You are about to view a new series of animations.<br><br></div><div class=""intro"">You will evaluate them based on a different descriptor.<br><br></div><div class=""intro"">Move the slider to indicate how <strong style=""text-transform:capitalize"">APPEALING</strong> you find each animation.<br><br></div><div class=""intro"">0 = Least Appealing<br></div><div class=""intro"">1 = Most Appealing<br><br></div><div class=""intro"">Remember to use the <strong><em>entire range</em></strong> of the slider to make your ratings.<br></div><div class=""intro"">Please <strong><em>take your time</em></strong> and carefully consider each rating you make.<br><br></div>","0","",""
"","","","","","call-function","160","145525229","0.0-160.0","1920x1080","","","","","","",""
"","","","","","animation","161","145528535","0.0-161.0","1920x1080","","3306.399999976158","43.12","img/117/4.5/0.5/bw/001.png","","","appealing"
"","","","","","animation","162","145533679","0.0-162.0","1920x1080","","5142.300000011921","98","img/238/5.5/2/bw/001.png","","","appealing"
"","","","","","animation","163","145536247","0.0-163.0","1920x1080","","2567","41.53","img/314/4.5/2/bw/001.png","","","appealing"
"","","","","","animation","164","145537961","0.0-164.0","1920x1080","","1713.0999999642372","39.02","img/238/4/2/bw/001.png","","","appealing"
"","","","","","animation","165","145542612","0.0-165.0","1920x1080","","4650","13","img/238/2.5/0.66667/bw/001.png","","","appealing"
"","","","","","animation","166","145545695","0.0-166.0","1920x1080","","3082.800000011921","30.56","img/314/4.5/0.66667/bw/001.png","","","appealing"
"","","","","","animation","167","145549011","0.0-167.0","1920x1080","","3314.899999976158","31.22","img/314/4/1.5/bw/001.png","","","appealing"
"","","","","","animation","168","145551367","0.0-168.0","1920x1080","","2354.699999988079","5.16","img/314/2.5/0.5/bw/001.png","","","appealing"
"","","","","","animation","169","145553828","0.0-169.0","1920x1080","","2459.5","15.74","img/314/4/1/bw/001.png","","","appealing"
"","","","","","animation","170","145556351","0.0-170.0","1920x1080","","2522.600000023842","23.15","img/238/3.5/1.5/bw/001.png","","","appealing"
"","","","","","animation","171","145558935","0.0-171.0","1920x1080","","2583.300000011921","30.16","img/314/3.5/0.66667/bw/001.png","","","appealing"
"","","","","","animation","172","145561079","0.0-172.0","1920x1080","","2142","28.97","img/117/4/2/bw/001.png","","","appealing"
"","","","","","animation","173","145564762","0.0-173.0","1920x1080","","3681.699999988079","89.55","img/314/5.5/0.66667/bw/001.png","","","appealing"
"","","","","","animation","174","145569167","0.0-174.0","1920x1080","","4404.199999988079","91.27","img/314/5.5/1/bw/001.png","","","appealing"
"","","","","","animation","175","145571679","0.0-175.0","1920x1080","","2510.600000023842","26.06","img/117/3.5/0.66667/bw/001.png","","","appealing"
"","","","","","animation","176","145577495","0.0-176.0","1920x1080","","5815.300000011921","89","img/117/5.5/2/bw/001.png","","","appealing"
"","","","","","animation","177","145580335","0.0-177.0","1920x1080","","2838.399999976158","26.85","img/314/4/2/bw/001.png","","","appealing"
"","","","","","animation","178","145582695","0.0-178.0","1920x1080","","2358.5","87.04","img/117/5.5/0.66667/bw/001.png","","","appealing"
"","","","","","animation","179","145585447","0.0-179.0","1920x1080","","2750.900000035763","27.25","img/117/3.5/1/bw/001.png","","","appealing"
"","","","","","animation","180","145588487","0.0-180.0","1920x1080","","3039.2999999523163","28.31","img/314/3.5/1/bw/001.png","","","appealing"
"","","","","","animation","181","145590879","0.0-181.0","1920x1080","","2390.600000023842","89.95","img/117/5.5/0.5/bw/001.png","","","appealing"
"","","","","","animation","182","145598128","0.0-182.0","1920x1080","","7248.200000047684","97","img/238/5.5/0.5/bw/001.png","","","appealing"
"","","","","","animation","183","145600995","0.0-183.0","1920x1080","","2865.600000023842","39.02","img/117/4/1/bw/001.png","","","appealing"
"","","","","","animation","184","145603845","0.0-184.0","1920x1080","","2848.300000011921","41.14","img/117/4.5/1/bw/001.png","","","appealing"
"","","","","","animation","185","145608471","0.0-185.0","1920x1080","","4625.199999988079","75.93","img/117/5.5/1/bw/001.png","","","appealing"
"","","","","","animation","186","145611011","0.0-186.0","1920x1080","","2539","38.49","img/238/4.5/1.5/bw/001.png","","","appealing"
"","","","","","animation","187","145613687","0.0-187.0","1920x1080","","2674.699999988079","47.62","img/117/4.5/1.5/bw/001.png","","","appealing"
"","","","","","animation","188","145617811","0.0-188.0","1920x1080","","4123.5","41.80","img/238/4.5/2/bw/001.png","","","appealing"
"","","","","","animation","189","145621545","0.0-189.0","1920x1080","","3732.100000023842","36.24","img/117/4/1.5/bw/001.png","","","appealing"
"","","","","","animation","190","145623862","0.0-190.0","1920x1080","","2316.899999976158","33.47","img/117/4/0.5/bw/001.png","","","appealing"
"","","","","","animation","191","145629528","0.0-191.0","1920x1080","","5664.699999988079","10.32","img/117/2.5/0.66667/bw/001.png","","","appealing"
"","","","","","animation","192","145631767","0.0-192.0","1920x1080","","2237.600000023842","44.44","img/117/4.5/2/bw/001.png","","","appealing"
"","","","","","animation","193","145634028","0.0-193.0","1920x1080","","2259.899999976158","8.33","img/238/2.5/1.5/bw/001.png","","","appealing"
"","","","","","animation","194","145636887","0.0-194.0","1920x1080","","2857.5","42.20","img/238/4.5/0.66667/bw/001.png","","","appealing"
"","","","","","animation","195","145639128","0.0-195.0","1920x1080","","2239.2999999523163","16.01","img/117/2.5/2/bw/001.png","","","appealing"
"","","","","","animation","196","145641671","0.0-196.0","1920x1080","","2542.100000023842","48","img/314/4.5/0.5/bw/001.png","","","appealing"
"","","","","","animation","197","145644271","0.0-197.0","1920x1080","","2599","39.42","img/238/3.5/0.5/bw/001.png","","","appealing"
"","","","","","animation","198","145646311","0.0-198.0","1920x1080","","2039.1000000238419","36","img/117/3.5/2/bw/001.png","","","appealing"
"","","","","","animation","199","145648887","0.0-199.0","1920x1080","","2574.699999988079","12.04","img/238/2.5/2/bw/001.png","","","appealing"
"","","","","","animation","200","145651214","0.0-200.0","1920x1080","","2326.400000035763","9","img/117/2.5/0.5/bw/001.png","","","appealing"
"","","","","","animation","201","145653183","0.0-201.0","1920x1080","","1967.0999999642372","24.60","img/117/3.5/0.5/bw/001.png","","","appealing"
"","","","","","animation","202","145655367","0.0-202.0","1920x1080","","2183.100000023842","21.69","img/314/2.5/1/bw/001.png","","","appealing"
"","","","","","animation","203","145658245","0.0-203.0","1920x1080","","2876.5","88.76","img/117/5.5/1.5/bw/001.png","","","appealing"
"","","","","","animation","204","145661162","0.0-204.0","1920x1080","","2915.800000011921","13.89","img/117/2.5/1/bw/001.png","","","appealing"
"","","","","","animation","205","145663783","0.0-205.0","1920x1080","","2620.100000023842","20","img/238/4/0.5/bw/001.png","","","appealing"
"","","","","","animation","206","145665978","0.0-206.0","1920x1080","","2194.5","25","img/238/4/1.5/bw/001.png","","","appealing"
"","","","","","animation","207","145668319","0.0-207.0","1920x1080","","2339.399999976158","15.61","img/117/2.5/1.5/bw/001.png","","","appealing"
"","","","","","animation","208","145671015","0.0-208.0","1920x1080","","2694.599999964237","21.43","img/314/3.5/0.5/bw/001.png","","","appealing"
"","","","","","animation","209","145676246","0.0-209.0","1920x1080","","5230.900000035763","34.79","img/314/4/0.66667/bw/001.png","","","appealing"
"","","","","","animation","210","145678782","0.0-210.0","1920x1080","","2534.800000011921","33.73","img/314/4.5/1.5/bw/001.png","","","appealing"
"","","","","","animation","211","145680846","0.0-211.0","1920x1080","","2062.400000035763","27","img/238/3.5/0.66667/bw/001.png","","","appealing"
"","","","","","animation","212","145684999","0.0-212.0","1920x1080","","4150.899999976158","32.01","img/314/3.5/1.5/bw/001.png","","","appealing"
"","","","","","animation","213","145691278","0.0-213.0","1920x1080","","6278.699999988079","49","img/238/4/1/bw/001.png","","","appealing"
"","","","","","animation","214","145694545","0.0-214.0","1920x1080","","3265.600000023842","82.28","img/314/5.5/2/bw/001.png","","","appealing"
"","","","","","animation","215","145697078","0.0-215.0","1920x1080","","2532","63.76","img/238/4.5/1/bw/001.png","","","appealing"
"","","","","","animation","216","145699967","0.0-216.0","1920x1080","","2887.099999964237","17","img/314/2.5/1.5/bw/001.png","","","appealing"
"","","","","","animation","217","145702287","0.0-217.0","1920x1080","","2318.800000011921","22.35","img/238/2.5/1/bw/001.png","","","appealing"
"","","","","","animation","218","145707845","0.0-218.0","1920x1080","","5557.199999988079","89","img/238/5.5/0.66667/bw/001.png","","","appealing"
"","","","","","animation","219","145710095","0.0-219.0","1920x1080","","2248.699999988079","38.89","img/238/4.5/0.5/bw/001.png","","","appealing"
"","","","","","animation","220","145712919","0.0-220.0","1920x1080","","2822.099999964237","50.93","img/238/3.5/2/bw/001.png","","","appealing"
"","","","","","animation","221","145715503","0.0-221.0","1920x1080","","2582.899999976158","94","img/314/5.5/0.5/bw/001.png","","","appealing"
"","","","","","animation","222","145718415","0.0-222.0","1920x1080","","2910.300000011921","13.89","img/314/2.5/0.66667/bw/001.png","","","appealing"
"","","","","","animation","223","145721047","0.0-223.0","1920x1080","","2630.300000011921","21.16","img/314/2.5/2/bw/001.png","","","appealing"
"","","","","","animation","224","145723087","0.0-224.0","1920x1080","","2039.5","30.42","img/117/3.5/1.5/bw/001.png","","","appealing"
"","","","","","animation","225","145725047","0.0-225.0","1920x1080","","1958.300000011921","35.32","img/238/4/0.66667/bw/001.png","","","appealing"
"","","","","","animation","226","145727829","0.0-226.0","1920x1080","","2781.2999999523163","16.27","img/238/2.5/0.5/bw/001.png","","","appealing"
"","","","","","animation","227","145729945","0.0-227.0","1920x1080","","2114.900000035763","60.19","img/117/4.5/0.66667/bw/001.png","","","appealing"
"","","","","","animation","228","145732535","0.0-228.0","1920x1080","","2588.599999964237","86.51","img/238/5.5/1.5/bw/001.png","","","appealing"
"","","","","","animation","229","145734529","0.0-229.0","1920x1080","","1992.800000011921","89.42","img/238/5.5/1/bw/001.png","","","appealing"
"","","","","","animation","230","145736351","0.0-230.0","1920x1080","","1821.300000011921","87.70","img/314/5.5/1.5/bw/001.png","","","appealing"
"","","","","","animation","231","145739079","0.0-231.0","1920x1080","","2726.900000035763","30.42","img/117/4/0.66667/bw/001.png","","","appealing"
"","","","","","animation","232","145742967","0.0-232.0","1920x1080","","3886.699999988079","44","img/314/4/0.5/bw/001.png","","","appealing"
"","","","","","animation","233","145745119","0.0-233.0","1920x1080","","2149.300000011921","32.41","img/314/3.5/2/bw/001.png","","","appealing"
"","","","","","animation","234","145747078","0.0-234.0","1920x1080","","1958.1000000238419","44.97","img/314/4.5/1/bw/001.png","","","appealing"
"","","","","","animation","235","145748967","0.0-235.0","1920x1080","","1887.3999999761581","42.20","img/238/3.5/1/bw/001.png","","","appealing"
"","","","","","html-button-response","236","145772767","0.0-236.0","1920x1080","","23798.599999964237","","<div class=""intro"">You are about to view a new series of animations.<br><br></div><div class=""intro"">You will evaluate them based on a different descriptor.<br><br></div><div class=""intro"">Move the slider to indicate how <strong style=""text-transform:capitalize"">NATURAL</strong> you find each animation.<br><br></div><div class=""intro"">0 = Least Natural<br></div><div class=""intro"">1 = Most Natural<br><br></div><div class=""intro"">Remember to use the <strong><em>entire range</em></strong> of the slider to make your ratings.<br></div><div class=""intro"">Please <strong><em>take your time</em></strong> and carefully consider each rating you make.<br><br></div>","0","",""
"","","","","","call-function","237","145772770","0.0-237.0","1920x1080","","","","","","",""
"","","","","","animation","238","145778295","0.0-238.0","1920x1080","","5524.5","12","img/117/3.5/0.66667/bw/001.png","","","natural"
"","","","","","animation","239","145780762","0.0-239.0","1920x1080","","2465.600000023842","25","img/117/4/0.5/bw/001.png","","","natural"
"","","","","","animation","240","145783378","0.0-240.0","1920x1080","","2615.300000011921","20","img/238/4/1.5/bw/001.png","","","natural"
"","","","","","animation","241","145785545","0.0-241.0","1920x1080","","2165.800000011921","10.45","img/117/3.5/2/bw/001.png","","","natural"
"","","","","","animation","242","145787462","0.0-242.0","1920x1080","","1915.4000000357628","9.92","img/238/3.5/2/bw/001.png","","","natural"
"","","","","","animation","243","145789582","0.0-243.0","1920x1080","","2119.199999988079","8.07","img/238/2.5/1.5/bw/001.png","","","natural"
"","","","","","animation","244","145792550","0.0-244.0","1920x1080","","2966.900000035763","56.35","img/117/5.5/0.5/bw/001.png","","","natural"
"","","","","","animation","245","145795812","0.0-245.0","1920x1080","","3259.600000023842","24.60","img/117/3.5/0.5/bw/001.png","","","natural"
"","","","","","animation","246","145800045","0.0-246.0","1920x1080","","4232.799999952316","33.73","img/117/4.5/1/bw/001.png","","","natural"
"","","","","","animation","247","145805662","0.0-247.0","1920x1080","","5615.399999976158","3","img/117/2.5/0.66667/bw/001.png","","","natural"
"","","","","","animation","248","145808848","0.0-248.0","1920x1080","","3184","5.95","img/238/4/1/bw/001.png","","","natural"
"","","","","","animation","249","145811645","0.0-249.0","1920x1080","","2796.100000023842","14","img/314/4.5/0.5/bw/001.png","","","natural"
"","","","","","animation","250","145814229","0.0-250.0","1920x1080","","2582.300000011921","0","img/238/2.5/0.66667/bw/001.png","","","natural"
"","","","","","animation","251","145818062","0.0-251.0","1920x1080","","3832","65.61","img/238/5.5/1.5/bw/001.png","","","natural"
"","","","","","animation","252","145821030","0.0-252.0","1920x1080","","2967.2000000476837","42.59","img/238/4.5/1.5/bw/001.png","","","natural"
"","","","","","animation","253","145823662","0.0-253.0","1920x1080","","2630.600000023842","69.71","img/117/5.5/2/bw/001.png","","","natural"
"","","","","","animation","254","145828462","0.0-254.0","1920x1080","","4799.199999988079","2","img/117/2.5/0.5/bw/001.png","","","natural"
"","","","","","animation","255","145830414","0.0-255.0","1920x1080","","1948.9000000357628","59.13","img/314/5.5/1/bw/001.png","","","natural"
"","","","","","animation","256","145833296","0.0-256.0","1920x1080","","2879.899999976158","25.13","img/314/4.5/0.66667/bw/001.png","","","natural"
"","","","","","animation","257","145835763","0.0-257.0","1920x1080","","2465","21.83","img/117/4.5/0.66667/bw/001.png","","","natural"
"","","","","","animation","258","145837735","0.0-258.0","1920x1080","","1971.1000000238419","9.39","img/314/4/2/bw/001.png","","","natural"
"","","","","","animation","259","145841565","0.0-259.0","1920x1080","","3829","16.01","img/238/4/0.5/bw/001.png","","","natural"
"","","","","","animation","260","145845087","0.0-260.0","1920x1080","","3518.800000011921","77.51","img/117/5.5/1/bw/001.png","","","natural"
"","","","","","animation","261","145847763","0.0-261.0","1920x1080","","2674.599999964237","17","img/314/4/1.5/bw/001.png","","","natural"
"","","","","","animation","262","145850462","0.0-262.0","1920x1080","","2698.5","23","img/314/3.5/2/bw/001.png","","","natural"
"","","","","","animation","263","145855196","0.0-263.0","1920x1080","","4732.299999952316","80","img/314/5.5/2/bw/001.png","","","natural"
"","","","","","animation","264","145857719","0.0-264.0","1920x1080","","2521.699999988079","19","img/314/3.5/1.5/bw/001.png","","","natural"
"","","","","","animation","265","145861196","0.0-265.0","1920x1080","","3475.699999988079","22","img/117/4/2/bw/001.png","","","natural"
"","","","","","animation","266","145867103","0.0-266.0","1920x1080","","5905.5","34","img/314/4.5/1/bw/001.png","","","natural"
"","","","","","animation","267","145870063","0.0-267.0","1920x1080","","2958.100000023842","25.53","img/117/3.5/1.5/bw/001.png","","","natural"
"","","","","","animation","268","145872796","0.0-268.0","1920x1080","","2731.400000035763","26.72","img/238/4.5/1/bw/001.png","","","natural"
"","","","","","animation","269","145877346","0.0-269.0","1920x1080","","4548.900000035763","50","img/238/5.5/0.5/bw/001.png","","","natural"
"","","","","","animation","270","145881151","0.0-270.0","1920x1080","","3803.800000011921","6","img/238/2.5/0.5/bw/001.png","","","natural"
"","","","","","animation","271","145885229","0.0-271.0","1920x1080","","4076.600000023842","28.97","img/117/4.5/2/bw/001.png","","","natural"
"","","","","","animation","272","145887319","0.0-272.0","1920x1080","","2088.199999988079","28.31","img/238/3.5/1/bw/001.png","","","natural"
"","","","","","animation","273","145889197","0.0-273.0","1920x1080","","1876.1000000238419","29.76","img/314/4.5/2/bw/001.png","","","natural"
"","","","","","animation","274","145891383","0.0-274.0","1920x1080","","2185.2000000476837","22","img/314/4/0.5/bw/001.png","","","natural"
"","","","","","animation","275","145893551","0.0-275.0","1920x1080","","2167.099999964237","5.69","img/314/2.5/0.66667/bw/001.png","","","natural"
"","","","","","animation","276","145896630","0.0-276.0","1920x1080","","3077.5","21.03","img/117/4/1/bw/001.png","","","natural"
"","","","","","animation","277","145898463","0.0-277.0","1920x1080","","1830.8999999761581","26","img/238/3.5/0.5/bw/001.png","","","natural"
"","","","","","animation","278","145901047","0.0-278.0","1920x1080","","2582.600000023842","7","img/117/2.5/2/bw/001.png","","","natural"
"","","","","","animation","279","145904663","0.0-279.0","1920x1080","","3615.100000023842","66","img/117/5.5/1.5/bw/001.png","","","natural"
"","","","","","animation","280","145908831","0.0-280.0","1920x1080","","4166.400000035763","34","img/117/4.5/1.5/bw/001.png","","","natural"
"","","","","","animation","281","145911215","0.0-281.0","1920x1080","","2382.5","49.07","img/238/4.5/2/bw/001.png","","","natural"
"","","","","","animation","282","145913263","0.0-282.0","1920x1080","","2047.2999999523163","53","img/238/4.5/0.66667/bw/001.png","","","natural"
"","","","","","animation","283","145916030","0.0-283.0","1920x1080","","2765.199999988079","58","img/314/4/1/bw/001.png","","","natural"
"","","","","","animation","284","145918422","0.0-284.0","1920x1080","","2390.2999999523163","30.56","img/238/3.5/1.5/bw/001.png","","","natural"
"","","","","","animation","285","145920799","0.0-285.0","1920x1080","","2375.5","6.35","img/117/2.5/1.5/bw/001.png","","","natural"
"","","","","","animation","286","145923456","0.0-286.0","1920x1080","","2656.199999988079","8.73","img/314/2.5/1/bw/001.png","","","natural"
"","","","","","animation","287","145926497","0.0-287.0","1920x1080","","3038.899999976158","9","img/238/3.5/0.66667/bw/001.png","","","natural"
"","","","","","animation","288","145929801","0.0-288.0","1920x1080","","3300.800000011921","82","img/314/5.5/1.5/bw/001.png","","","natural"
"","","","","","animation","289","145932287","0.0-289.0","1920x1080","","2484.699999988079","18.25","img/238/4/2/bw/001.png","","","natural"
"","","","","","animation","290","145936430","0.0-290.0","1920x1080","","4140.800000011921","32.54","img/238/4/0.66667/bw/001.png","","","natural"
"","","","","","animation","291","145938824","0.0-291.0","1920x1080","","2391.399999976158","74","img/238/5.5/1/bw/001.png","","","natural"
"","","","","","animation","292","145941259","0.0-292.0","1920x1080","","2433.100000023842","32","img/314/4/0.66667/bw/001.png","","","natural"
"","","","","","animation","293","145943930","0.0-293.0","1920x1080","","2669.600000023842","33.33","img/117/3.5/1/bw/001.png","","","natural"
"","","","","","animation","294","145946920","0.0-294.0","1920x1080","","2988.199999988079","8.20","img/314/2.5/1.5/bw/001.png","","","natural"
"","","","","","animation","295","145950147","0.0-295.0","1920x1080","","3225","9.39","img/238/2.5/2/bw/001.png","","","natural"
"","","","","","animation","296","145954602","0.0-296.0","1920x1080","","4454.099999964237","11.51","img/314/3.5/1/bw/001.png","","","natural"
"","","","","","animation","297","145956864","0.0-297.0","1920x1080","","2259.5","62","img/117/5.5/0.66667/bw/001.png","","","natural"
"","","","","","animation","298","145959191","0.0-298.0","1920x1080","","2323.7999999523163","16.67","img/117/4/1.5/bw/001.png","","","natural"
"","","","","","animation","299","145961430","0.0-299.0","1920x1080","","2237.2999999523163","14.29","img/314/4.5/1.5/bw/001.png","","","natural"
"","","","","","animation","300","145963780","0.0-300.0","1920x1080","","2348.399999976158","4.76","img/314/2.5/0.5/bw/001.png","","","natural"
"","","","","","animation","301","145967817","0.0-301.0","1920x1080","","4035.899999976158","88.76","img/238/5.5/2/bw/001.png","","","natural"
"","","","","","animation","302","145970503","0.0-302.0","1920x1080","","2682.800000011921","4.37","img/314/2.5/2/bw/001.png","","","natural"
"","","","","","animation","303","145972504","0.0-303.0","1920x1080","","1999.7999999523163","22","img/314/3.5/0.5/bw/001.png","","","natural"
"","","","","","animation","304","145975767","0.0-304.0","1920x1080","","3261.300000011921","28.04","img/117/4/0.66667/bw/001.png","","","natural"
"","","","","","animation","305","145977965","0.0-305.0","1920x1080","","2196.699999988079","3","img/117/2.5/1/bw/001.png","","","natural"
"","","","","","animation","306","145980686","0.0-306.0","1920x1080","","2719.800000011921","4.50","img/238/2.5/1/bw/001.png","","","natural"
"","","","","","animation","307","145983769","0.0-307.0","1920x1080","","3081.599999964237","43","img/238/4.5/0.5/bw/001.png","","","natural"
"","","","","","animation","308","145987641","0.0-308.0","1920x1080","","3871.5","92.86","img/314/5.5/0.66667/bw/001.png","","","natural"
"","","","","","animation","309","145990656","0.0-309.0","1920x1080","","3011.699999988079","98","img/238/5.5/0.66667/bw/001.png","","","natural"
"","","","","","animation","310","145993072","0.0-310.0","1920x1080","","2414.5","83.86","img/314/5.5/0.5/bw/001.png","","","natural"
"","","","","","animation","311","145997564","0.0-311.0","1920x1080","","4490.299999952316","35.45","img/314/3.5/0.66667/bw/001.png","","","natural"
"","","","","","animation","312","146002332","0.0-312.0","1920x1080","","4766.800000011921","37.57","img/117/4.5/0.5/bw/001.png","","","natural"
"","","","","","html-button-response","313","146021519","0.0-313.0","1920x1080","","19185.5","","<div class=""intro"">You are about to view a new series of animations.<br><br></div><div class=""intro"">You will evaluate them based on a different descriptor.<br><br></div><div class=""intro"">Move the slider to indicate how <strong style=""text-transform:capitalize"">RELAXING</strong> you find each animation.<br><br></div><div class=""intro"">0 = Least Relaxing<br></div><div class=""intro"">1 = Most Relaxing<br><br></div><div class=""intro"">Remember to use the <strong><em>entire range</em></strong> of the slider to make your ratings.<br></div><div class=""intro"">Please <strong><em>take your time</em></strong> and carefully consider each rating you make.<br><br></div>","0","",""
"","","","","","call-function","314","146021520","0.0-314.0","1920x1080","","","","","","",""
"","","","","","animation","315","146027130","0.0-315.0","1920x1080","","5609.599999964237","91","img/117/5.5/1.5/bw/001.png","","","relaxing"
"","","","","","animation","316","146034785","0.0-316.0","1920x1080","","7652.899999976158","46.69","img/314/4/0.5/bw/001.png","","","relaxing"
"","","","","","animation","317","146037367","0.0-317.0","1920x1080","","2570.099999964237","84.92","img/314/5.5/0.5/bw/001.png","","","relaxing"
"","","","","","animation","318","146039304","0.0-318.0","1920x1080","","1935.800000011921","26.98","img/117/3.5/2/bw/001.png","","","relaxing"
"","","","","","animation","319","146041504","0.0-319.0","1920x1080","","2199.100000023842","31.08","img/238/4/1.5/bw/001.png","","","relaxing"
"","","","","","animation","320","146045624","0.0-320.0","1920x1080","","4118.900000035763","82.54","img/117/5.5/0.5/bw/001.png","","","relaxing"
"","","","","","animation","321","146048771","0.0-321.0","1920x1080","","3144.899999976158","38","img/238/4.5/1.5/bw/001.png","","","relaxing"
"","","","","","animation","322","146050753","0.0-322.0","1920x1080","","1980.5","29","img/314/4/2/bw/001.png","","","relaxing"
"","","","","","animation","323","146052866","0.0-323.0","1920x1080","","2111.699999988079","27","img/117/4.5/0.5/bw/001.png","","","relaxing"
"","","","","","animation","324","146056088","0.0-324.0","1920x1080","","3220.400000035763","27","img/238/4.5/1/bw/001.png","","","relaxing"
"","","","","","animation","325","146061113","0.0-325.0","1920x1080","","5022.699999988079","92","img/238/5.5/0.66667/bw/001.png","","","relaxing"
"","","","","","animation","326","146065371","0.0-326.0","1920x1080","","4256.800000011921","29.10","img/314/4.5/0.66667/bw/001.png","","","relaxing"
"","","","","","animation","327","146067432","0.0-327.0","1920x1080","","2060","15.21","img/117/2.5/0.5/bw/001.png","","","relaxing"
"","","","","","animation","328","146069447","0.0-328.0","1920x1080","","2013.5","12","img/314/3.5/1.5/bw/001.png","","","relaxing"
"","","","","","animation","329","146072589","0.0-329.0","1920x1080","","3141.300000011921","11.77","img/238/3.5/0.5/bw/001.png","","","relaxing"
"","","","","","animation","330","146075918","0.0-330.0","1920x1080","","3325.600000023842","15.87","img/117/4.5/1/bw/001.png","","","relaxing"
"","","","","","animation","331","146078058","0.0-331.0","1920x1080","","2138","17.20","img/117/3.5/0.5/bw/001.png","","","relaxing"
"","","","","","animation","332","146079724","0.0-332.0","1920x1080","","1664.699999988079","19.58","img/117/4/2/bw/001.png","","","relaxing"
"","","","","","animation","333","146081963","0.0-333.0","1920x1080","","2237.2000000476837","13.76","img/314/2.5/0.5/bw/001.png","","","relaxing"
"","","","","","animation","334","146086356","0.0-334.0","1920x1080","","4391.699999988079","40.08","img/314/4.5/0.5/bw/001.png","","","relaxing"
"","","","","","animation","335","146088582","0.0-335.0","1920x1080","","2224.300000011921","30.69","img/314/4/0.66667/bw/001.png","","","relaxing"
"","","","","","animation","336","146091038","0.0-336.0","1920x1080","","2454.099999964237","15.34","img/238/2.5/1.5/bw/001.png","","","relaxing"
"","","","","","animation","337","146098280","0.0-337.0","1920x1080","","7239.899999976158","67","img/117/5.5/0.66667/bw/001.png","","","relaxing"
"","","","","","animation","338","146105313","0.0-338.0","1920x1080","","7031.599999964237","34","img/238/4.5/0.5/bw/001.png","","","relaxing"
"","","","","","animation","339","146108787","0.0-339.0","1920x1080","","3472.699999988079","35.05","img/117/4.5/0.66667/bw/001.png","","","relaxing"
"","","","","","animation","340","146117614","0.0-340.0","1920x1080","","8825.599999964237","34.52","img/314/3.5/2/bw/001.png","","","relaxing"
"","","","","","animation","341","146120130","0.0-341.0","1920x1080","","2503.099999964237","35","img/238/3.5/2/bw/001.png","","","relaxing"
"","","","","","animation","342","146125305","0.0-342.0","1920x1080","","5173.400000035763","81","img/314/5.5/1.5/bw/001.png","","","relaxing"
"","","","","","animation","343","146127386","0.0-343.0","1920x1080","","2079.600000023842","51.32","img/117/4.5/1.5/bw/001.png","","","relaxing"
"","","","","","animation","344","146129785","0.0-344.0","1920x1080","","2398.699999988079","80.82","img/314/5.5/0.66667/bw/001.png","","","relaxing"
"","","","","","animation","345","146131662","0.0-345.0","1920x1080","","1875.3999999761581","29","img/314/4/1.5/bw/001.png","","","relaxing"
"","","","","","animation","346","146133617","0.0-346.0","1920x1080","","1953.800000011921","33.20","img/117/4/1.5/bw/001.png","","","relaxing"
"","","","","","animation","347","146135547","0.0-347.0","1920x1080","","1927.9000000357628","36.38","img/238/4/0.5/bw/001.png","","","relaxing"
"","","","","","animation","348","146137882","0.0-348.0","1920x1080","","2332.5","44.18","img/314/4.5/2/bw/001.png","","","relaxing"
"","","","","","animation","349","146140373","0.0-349.0","1920x1080","","2490.199999988079","8.99","img/238/2.5/2/bw/001.png","","","relaxing"
"","","","","","animation","350","146142123","0.0-350.0","1920x1080","","1747.8999999761581","26.85","img/117/4/1/bw/001.png","","","relaxing"
"","","","","","animation","351","146143880","0.0-351.0","1920x1080","","1755.199999988079","27.51","img/117/3.5/0.66667/bw/001.png","","","relaxing"
"","","","","","animation","352","146146524","0.0-352.0","1920x1080","","2642.800000011921","9.52","img/117/2.5/1/bw/001.png","","","relaxing"
"","","","","","animation","353","146148296","0.0-353.0","1920x1080","","1771","13.76","img/238/3.5/1/bw/001.png","","","relaxing"
"","","","","","animation","354","146150313","0.0-354.0","1920x1080","","2015.4000000357628","13.49","img/314/2.5/1/bw/001.png","","","relaxing"
"","","","","","animation","355","146152814","0.0-355.0","1920x1080","","2499.099999964237","29.50","img/314/4.5/1/bw/001.png","","","relaxing"
"","","","","","animation","356","146154846","0.0-356.0","1920x1080","","2029","10.71","img/238/2.5/0.5/bw/001.png","","","relaxing"
"","","","","","animation","357","146157746","0.0-357.0","1920x1080","","2899","15.74","img/314/3.5/1/bw/001.png","","","relaxing"
"","","","","","animation","358","146160272","0.0-358.0","1920x1080","","2523.7999999523163","48.54","img/314/4.5/1.5/bw/001.png","","","relaxing"
"","","","","","animation","359","146162814","0.0-359.0","1920x1080","","2540.300000011921","85.71","img/117/5.5/2/bw/001.png","","","relaxing"
"","","","","","animation","360","146164758","0.0-360.0","1920x1080","","1943.300000011921","13.23","img/238/2.5/0.66667/bw/001.png","","","relaxing"
"","","","","","animation","361","146166368","0.0-361.0","1920x1080","","1608.4000000357628","29","img/117/4/0.5/bw/001.png","","","relaxing"
"","","","","","animation","362","146168046","0.0-362.0","1920x1080","","1676.699999988079","20.37","img/117/2.5/1.5/bw/001.png","","","relaxing"
"","","","","","animation","363","146170807","0.0-363.0","1920x1080","","2759.5","82.28","img/314/5.5/1/bw/001.png","","","relaxing"
"","","","","","animation","364","146172814","0.0-364.0","1920x1080","","2004.800000011921","10.19","img/314/2.5/2/bw/001.png","","","relaxing"
"","","","","","animation","365","146174801","0.0-365.0","1920x1080","","1985.5","89.68","img/238/5.5/1/bw/001.png","","","relaxing"
"","","","","","animation","366","146176639","0.0-366.0","1920x1080","","1837","22","img/117/4/0.66667/bw/001.png","","","relaxing"
"","","","","","animation","367","146178301","0.0-367.0","1920x1080","","1660.699999988079","27.25","img/238/3.5/1.5/bw/001.png","","","relaxing"
"","","","","","animation","368","146180296","0.0-368.0","1920x1080","","1993.3999999761581","26.06","img/238/4.5/0.66667/bw/001.png","","","relaxing"
"","","","","","animation","369","146182996","0.0-369.0","1920x1080","","2698.899999976158","65.87","img/117/4.5/2/bw/001.png","","","relaxing"
"","","","","","animation","370","146185056","0.0-370.0","1920x1080","","2058.199999988079","29.23","img/238/4/0.66667/bw/001.png","","","relaxing"
"","","","","","animation","371","146187781","0.0-371.0","1920x1080","","2724.399999976158","3.31","img/314/2.5/0.66667/bw/001.png","","","relaxing"
"","","","","","animation","372","146189596","0.0-372.0","1920x1080","","1814.1000000238419","40.08","img/238/4.5/2/bw/001.png","","","relaxing"
"","","","","","animation","373","146192012","0.0-373.0","1920x1080","","2414.199999988079","3","img/117/2.5/2/bw/001.png","","","relaxing"
"","","","","","animation","374","146193985","0.0-374.0","1920x1080","","1971.3999999761581","5.56","img/117/2.5/0.66667/bw/001.png","","","relaxing"
"","","","","","animation","375","146196722","0.0-375.0","1920x1080","","2736","3.84","img/314/2.5/1.5/bw/001.png","","","relaxing"
"","","","","","animation","376","146198522","0.0-376.0","1920x1080","","1798.5999999642372","14.81","img/117/3.5/1/bw/001.png","","","relaxing"
"","","","","","animation","377","146200707","0.0-377.0","1920x1080","","2184","2.78","img/238/2.5/1/bw/001.png","","","relaxing"
"","","","","","animation","378","146203148","0.0-378.0","1920x1080","","2439.5","16.67","img/238/3.5/0.66667/bw/001.png","","","relaxing"
"","","","","","animation","379","146207663","0.0-379.0","1920x1080","","4513.100000023842","97","img/238/5.5/0.5/bw/001.png","","","relaxing"
"","","","","","animation","380","146210013","0.0-380.0","1920x1080","","2348.199999988079","93.39","img/238/5.5/2/bw/001.png","","","relaxing"
"","","","","","animation","381","146213262","0.0-381.0","1920x1080","","3247.400000035763","22","img/314/3.5/0.5/bw/001.png","","","relaxing"
"","","","","","animation","382","146215655","0.0-382.0","1920x1080","","2391.800000011921","50.93","img/238/4/2/bw/001.png","","","relaxing"
"","","","","","animation","383","146221329","0.0-383.0","1920x1080","","5672.200000047684","98","img/238/5.5/1.5/bw/001.png","","","relaxing"
"","","","","","animation","384","146224412","0.0-384.0","1920x1080","","3080.800000011921","95","img/314/5.5/2/bw/001.png","","","relaxing"
"","","","","","animation","385","146226813","0.0-385.0","1920x1080","","2398.5","44.97","img/238/4/1/bw/001.png","","","relaxing"
"","","","","","animation","386","146231062","0.0-386.0","1920x1080","","4248.300000011921","35","img/314/4/1/bw/001.png","","","relaxing"
"","","","","","animation","387","146233095","0.0-387.0","1920x1080","","2032.0999999642372","29.89","img/117/3.5/1.5/bw/001.png","","","relaxing"
"","","","","","animation","388","146235613","0.0-388.0","1920x1080","","2515.899999976158","94","img/117/5.5/1/bw/001.png","","","relaxing"
"","","","","","animation","389","146237583","0.0-389.0","1920x1080","","1968.699999988079","24.47","img/314/3.5/0.66667/bw/001.png","","","relaxing"
"","","","","","html-button-response","390","146308597","0.0-390.0","1920x1080","","71013.80000001192","","<strong>Study Debriefing</strong><br><p class=""debrief""><strong>Background:</strong> The patterns you rated are called <em>fractals</em>. The term fractal describes a class of irregular curves or shapes for which any suitably chosen part is similar in shape to a given larger or smaller part when magnified or reduced to the same size. Fractal properties are found throughout the natural and manmade world. The series of animations you saw today displayed animated fractal patterns of a varying complexity.</p><p class=""debrief""><strong>Purpose of this study:</strong> We hope to better understand how the perception of static fractals differs from the perception of animated fractals, and how the speed of the animated patterns influences people&apos;s perception of them. Fractals allow us to study the perception of aesthetic properties (e.g. the perceived level of beauty in an image) without using recognizable content, which makes them an excellent tool for studying abstract aesthetic judgement.</p><p class=""debrief""><strong>Your part:</strong> Your participation has helped us to further understand how humans perceive these patterns across different levels of speed and complexity. This research with allow us to better understand how the visual system and brain process our ever-changing visual environments.<p class=""debrief""><strong>Feedback and Further information:</strong> If you have additional questions about this study, please feel free to ask the researcher, Nathan Gonzales-Hess at nhess @ uoregon.edu. If you have any questions concerning your rights as a research participant, please contact Research Compliance Services, 5237 University of Oregon, Eugene, OR 97403, 541-346-2510, or email researchCompliance @ uoregon.edu. You can also email the Human Subjects Coordinator for psychology and linguistics research at hscoord @ uoregon.edu. ","0","",""
"","","","","","html-button-response","391","146312309","0.0-391.0","1920x1080","","3702.199999988079","","Thank you for participating in this study. <br>Please click below to finish the experiment and submit your responses.<br><br>","0","",""
"true","","","","","fullscreen","392","146313313","0.0-392.0","1920x1080","11:9 20/5/2022","","","","","",""
