"success","timeout","failed_images","failed_audio","failed_video","trial_type","trial_index","time_elapsed","internal_node_id","resolution","timeStamp","rt","response","stimulus","button_pressed","value","descriptor"
"true","false","[]","[]","[]","preload","0","19707","0.0-0.0","1920x1080","","","","","","",""
"true","false","[]","[]","[]","preload","1","38984","0.0-1.0","1920x1080","","","","","","",""
"true","false","[]","[]","[]","preload","2","58615","0.0-2.0","1920x1080","","","","","","",""
"true","","","","","fullscreen","3","170048","0.0-3.0","1920x1080","12:59 12/10/2022","","","","","",""
"","","","","","survey-html-form","4","180598","0.0-4.0","1920x1080","","10547","{""age"":""33"",""gender"":""female""}","","","",""
"","","","","","html-button-response","5","249990","0.0-5.0","1920x1080","","69390.89999997616","","<div class=""complex"">You are going to see a series of animations.<br><br></div><div class=""complex"">Move the slider to indicate how <strong style=""text-transform:capitalize"">COMPLEX</strong> you find each animation.<br><br></div><div class=""complex"">0 = Least Complex<br></div><div class=""complex"">1 = Most Complex<br><br></div><div class=""complex"">Remember to use the <strong><em>entire range</em></strong> of the slider to make your ratings.<br></div><div class=""complex"">Please <strong><em>take your time</em></strong> and carefully consider each rating you make.<br><br></div><div class=""complex"">The study has five sections and will take about 45 minutes to complete.<br><br></div>","0","",""
"","","","","","call-function","6","249990","0.0-6.0","1920x1080","","","","","","",""
"","","","","","animation","7","264854","0.0-7.0","1920x1080","","14860.899999976158","15","img/238/5.5/0.66667/bw/001.png","","","complex"
"","","","","","animation","8","272997","0.0-8.0","1920x1080","","8142.300000071526","94","img/314/2.5/0.66667/bw/001.png","","","complex"
"","","","","","animation","9","284894","0.0-9.0","1920x1080","","11895.200000047684","50","img/314/4.5/1.5/bw/001.png","","","complex"
"","","","","","animation","10","304630","0.0-10.0","1920x1080","","19735.199999928474","75.13","img/238/3.5/0.66667/bw/001.png","","","complex"
"","","","","","animation","11","310581","0.0-11.0","1920x1080","","5950.599999904633","64.55","img/238/3.5/1.5/bw/001.png","","","complex"
"","","","","","animation","12","314942","0.0-12.0","1920x1080","","4359.300000071526","75.00","img/238/3.5/2/bw/001.png","","","complex"
"","","","","","animation","13","323494","0.0-13.0","1920x1080","","8551","10","img/238/5.5/2/bw/001.png","","","complex"
"","","","","","animation","14","371164","0.0-14.0","1920x1080","","47670.699999928474","50.26","img/238/4.5/1.5/bw/001.png","","","complex"
"","","","","","animation","15","378300","0.0-15.0","1920x1080","","7135.199999928474","80","img/314/4.5/0.5/bw/001.png","","","complex"
"","","","","","animation","16","390029","0.0-16.0","1920x1080","","11727.699999928474","40.48","img/117/4.5/2/bw/001.png","","","complex"
"","","","","","animation","17","397589","0.0-17.0","1920x1080","","7558.899999976158","65.34","img/238/4.5/0.66667/bw/001.png","","","complex"
"","","","","","animation","18","400973","0.0-18.0","1920x1080","","3383.100000023842","89.02","img/314/4/0.5/bw/001.png","","","complex"
"","","","","","animation","19","407509","0.0-19.0","1920x1080","","6535.200000047684","87.83","img/314/4/2/bw/001.png","","","complex"
"","","","","","animation","20","412725","0.0-20.0","1920x1080","","5215.100000023842","95","img/117/3.5/0.66667/bw/001.png","","","complex"
"","","","","","animation","21","419221","0.0-21.0","1920x1080","","6495.100000023842","100","img/117/2.5/1/bw/001.png","","","complex"
"","","","","","animation","22","424861","0.0-22.0","1920x1080","","5640.100000023842","60.19","img/117/4/0.66667/bw/001.png","","","complex"
"","","","","","animation","23","433408","0.0-23.0","1920x1080","","8550.299999952316","96","img/238/2.5/0.5/bw/001.png","","","complex"
"","","","","","animation","24","438344","0.0-24.0","1920x1080","","4934.899999976158","73.28","img/314/3.5/1/bw/001.png","","","complex"
"","","","","","animation","25","443864","0.0-25.0","1920x1080","","5519.5","28.84","img/238/5.5/1/bw/001.png","","","complex"
"","","","","","animation","26","451584","0.0-26.0","1920x1080","","7716.800000071526","75.00","img/238/3.5/0.5/bw/001.png","","","complex"
"","","","","","animation","27","458728","0.0-27.0","1920x1080","","7142.600000023842","86.64","img/238/2.5/2/bw/001.png","","","complex"
"","","","","","animation","28","470808","0.0-28.0","1920x1080","","12079","70.24","img/117/3.5/2/bw/001.png","","","complex"
"","","","","","animation","29","494669","0.0-29.0","1920x1080","","23855.599999904633","70.37","img/314/3.5/0.66667/bw/001.png","","","complex"
"","","","","","animation","30","502293","0.0-30.0","1920x1080","","7623.300000071526","45.50","img/238/4.5/2/bw/001.png","","","complex"
"","","","","","animation","31","504797","0.0-31.0","1920x1080","","2503.100000023842","75.00","img/117/2.5/1.5/bw/001.png","","","complex"
"","","","","","animation","32","508701","0.0-32.0","1920x1080","","3903.2000000476837","83.99","img/117/4.5/0.5/bw/001.png","","","complex"
"","","","","","animation","33","511933","0.0-33.0","1920x1080","","3231.100000023842","95","img/314/2.5/1.5/bw/001.png","","","complex"
"","","","","","animation","34","515246","0.0-34.0","1920x1080","","3312.2000000476837","25.79","img/238/4/0.66667/bw/001.png","","","complex"
"","","","","","animation","35","519469","0.0-35.0","1920x1080","","4221.600000023842","90.21","img/117/2.5/0.5/bw/001.png","","","complex"
"","","","","","animation","36","524821","0.0-36.0","1920x1080","","5351.099999904633","90.21","img/117/2.5/2/bw/001.png","","","complex"
"","","","","","animation","37","527557","0.0-37.0","1920x1080","","2735.399999976158","26.32","img/117/4.5/0.66667/bw/001.png","","","complex"
"","","","","","animation","38","536189","0.0-38.0","1920x1080","","8631.5","25","img/117/5.5/1.5/bw/001.png","","","complex"
"","","","","","animation","39","542879","0.0-39.0","1920x1080","","6688.299999952316","86","img/314/2.5/0.5/bw/001.png","","","complex"
"","","","","","animation","40","545501","0.0-40.0","1920x1080","","2621.899999976158","11.11","img/117/5.5/1/bw/001.png","","","complex"
"","","","","","animation","41","552948","0.0-41.0","1920x1080","","7447","10.85","img/314/5.5/2/bw/001.png","","","complex"
"","","","","","animation","42","556004","0.0-42.0","1920x1080","","3055.3000000715256","85.58","img/314/3.5/2/bw/001.png","","","complex"
"","","","","","animation","43","564278","0.0-43.0","1920x1080","","8273.300000071526","84.92","img/314/5.5/0.66667/bw/001.png","","","complex"
"","","","","","animation","44","568132","0.0-44.0","1920x1080","","3852.7999999523163","90.34","img/314/4/0.66667/bw/001.png","","","complex"
"","","","","","animation","45","571004","0.0-45.0","1920x1080","","2871.600000023842","16.53","img/238/5.5/0.5/bw/001.png","","","complex"
"","","","","","animation","46","575132","0.0-46.0","1920x1080","","4126.799999952316","35.98","img/314/5.5/1.5/bw/001.png","","","complex"
"","","","","","animation","47","583268","0.0-47.0","1920x1080","","8135.199999928474","80.29","img/117/4/1/bw/001.png","","","complex"
"","","","","","animation","48","591900","0.0-48.0","1920x1080","","8630.5","80.16","img/117/3.5/0.5/bw/001.png","","","complex"
"","","","","","animation","49","601094","0.0-49.0","1920x1080","","9193.699999928474","19.84","img/117/5.5/0.66667/bw/001.png","","","complex"
"","","","","","animation","50","603932","0.0-50.0","1920x1080","","2836.5","88.89","img/238/2.5/1.5/bw/001.png","","","complex"
"","","","","","animation","51","607945","0.0-51.0","1920x1080","","4015.2000000476837","84.79","img/314/4.5/1/bw/001.png","","","complex"
"","","","","","animation","52","612705","0.0-52.0","1920x1080","","4759.200000047684","70.11","img/117/4.5/1.5/bw/001.png","","","complex"
"","","","","","animation","53","617513","0.0-53.0","1920x1080","","4806.400000095367","74.74","img/314/4.5/0.66667/bw/001.png","","","complex"
"","","","","","animation","54","623376","0.0-54.0","1920x1080","","5862.800000071526","75.00","img/314/4/1/bw/001.png","","","complex"
"","","","","","animation","55","628552","0.0-55.0","1920x1080","","5175","95","img/238/2.5/0.66667/bw/001.png","","","complex"
"","","","","","animation","56","632842","0.0-56.0","1920x1080","","4288.899999976158","79.63","img/314/4/1.5/bw/001.png","","","complex"
"","","","","","animation","57","638977","0.0-57.0","1920x1080","","6134","74.60","img/314/2.5/2/bw/001.png","","","complex"
"","","","","","animation","58","642737","0.0-58.0","1920x1080","","3758.9000000953674","53.70","img/314/3.5/0.5/bw/001.png","","","complex"
"","","","","","animation","59","645760","0.0-59.0","1920x1080","","3021.8000000715256","66.27","img/117/3.5/1.5/bw/001.png","","","complex"
"","","","","","animation","60","648793","0.0-60.0","1920x1080","","3032.100000023842","66.01","img/238/4/0.5/bw/001.png","","","complex"
"","","","","","animation","61","652913","0.0-61.0","1920x1080","","4118.100000023842","73.81","img/314/3.5/1.5/bw/001.png","","","complex"
"","","","","","animation","62","662475","0.0-62.0","1920x1080","","9561.600000023842","72","img/238/4/1/bw/001.png","","","complex"
"","","","","","animation","63","666292","0.0-63.0","1920x1080","","3814.399999976158","83.47","img/117/3.5/1/bw/001.png","","","complex"
"","","","","","animation","64","670169","0.0-64.0","1920x1080","","3876.2999999523163","27.25","img/117/5.5/2/bw/001.png","","","complex"
"","","","","","animation","65","674570","0.0-65.0","1920x1080","","4399.5","64","img/238/4.5/0.5/bw/001.png","","","complex"
"","","","","","animation","66","677129","0.0-66.0","1920x1080","","2558.6999999284744","85.71","img/117/4.5/1/bw/001.png","","","complex"
"","","","","","animation","67","747269","0.0-67.0","1920x1080","","70135.39999997616","58.60","img/314/5.5/1/bw/001.png","","","complex"
"","","","","","animation","68","749389","0.0-68.0","1920x1080","","2119.100000023842","72.35","img/238/2.5/1/bw/001.png","","","complex"
"","","","","","animation","69","752533","0.0-69.0","1920x1080","","3142.899999976158","79.50","img/238/3.5/1/bw/001.png","","","complex"
"","","","","","animation","70","756701","0.0-70.0","1920x1080","","4167.200000047684","43.78","img/314/4.5/2/bw/001.png","","","complex"
"","","","","","animation","71","759069","0.0-71.0","1920x1080","","2367.3000000715256","73","img/117/4/1.5/bw/001.png","","","complex"
"","","","","","animation","72","762317","0.0-72.0","1920x1080","","3246.7999999523163","73.68","img/238/4/2/bw/001.png","","","complex"
"","","","","","animation","73","769349","0.0-73.0","1920x1080","","7030.899999976158","89.81","img/314/2.5/1/bw/001.png","","","complex"
"","","","","","animation","74","777629","0.0-74.0","1920x1080","","8279.400000095367","25.26","img/238/5.5/1.5/bw/001.png","","","complex"
"","","","","","animation","75","784341","0.0-75.0","1920x1080","","6711.100000023842","59.66","img/314/5.5/0.5/bw/001.png","","","complex"
"","","","","","animation","76","789548","0.0-76.0","1920x1080","","5206.300000071526","69.58","img/117/4/2/bw/001.png","","","complex"
"","","","","","animation","77","796189","0.0-77.0","1920x1080","","6639.200000047684","79.76","img/117/4/0.5/bw/001.png","","","complex"
"","","","","","animation","78","801380","0.0-78.0","1920x1080","","5191.099999904633","80.42","img/238/4.5/1/bw/001.png","","","complex"
"","","","","","animation","79","804679","0.0-79.0","1920x1080","","3297.3000000715256","36.11","img/117/5.5/0.5/bw/001.png","","","complex"
"","","","","","animation","80","808573","0.0-80.0","1920x1080","","3892.899999976158","59.66","img/238/4/1.5/bw/001.png","","","complex"
"","","","","","animation","81","813996","0.0-81.0","1920x1080","","5422.899999976158","95","img/117/2.5/0.66667/bw/001.png","","","complex"
"","","","","","html-button-response","82","832598","0.0-82.0","1920x1080","","18599.5","","<div class=""intro"">You are about to view a new series of animations.<br><br></div><div class=""intro"">You will evaluate them based on a different descriptor.<br><br></div><div class=""intro"">Move the slider to indicate how <strong style=""text-transform:capitalize"">NATURAL</strong> you find each animation.<br><br></div><div class=""intro"">0 = Least Natural<br></div><div class=""intro"">1 = Most Natural<br><br></div><div class=""intro"">Remember to use the <strong><em>entire range</em></strong> of the slider to make your ratings.<br></div><div class=""intro"">Please <strong><em>take your time</em></strong> and carefully consider each rating you make.<br><br></div>","0","",""
"","","","","","call-function","83","832598","0.0-83.0","1920x1080","","","","","","",""
"","","","","","animation","84","841500","0.0-84.0","1920x1080","","8901.899999976158","21.16","img/314/4/0.5/bw/001.png","","","natural"
"","","","","","animation","85","845948","0.0-85.0","1920x1080","","4446.599999904633","100","img/314/4.5/2/bw/001.png","","","natural"
"","","","","","animation","86","852897","0.0-86.0","1920x1080","","6945.100000023842","95","img/117/4.5/2/bw/001.png","","","natural"
"","","","","","animation","87","858930","0.0-87.0","1920x1080","","6031.900000095367","75.00","img/238/4.5/2/bw/001.png","","","natural"
"","","","","","animation","88","867296","0.0-88.0","1920x1080","","8364.900000095367","10.05","img/314/2.5/1/bw/001.png","","","natural"
"","","","","","animation","89","874281","0.0-89.0","1920x1080","","6983.700000047684","49.87","img/238/3.5/0.66667/bw/001.png","","","natural"
"","","","","","animation","90","881697","0.0-90.0","1920x1080","","7415.100000023842","100","img/314/4.5/1.5/bw/001.png","","","natural"
"","","","","","animation","91","887297","0.0-91.0","1920x1080","","5598.799999952316","16.27","img/117/2.5/1.5/bw/001.png","","","natural"
"","","","","","animation","92","891703","0.0-92.0","1920x1080","","4404.5","23.28","img/238/2.5/2/bw/001.png","","","natural"
"","","","","","animation","93","900881","0.0-93.0","1920x1080","","9176.799999952316","95","img/117/5.5/1.5/bw/001.png","","","natural"
"","","","","","animation","94","909826","0.0-94.0","1920x1080","","8949.299999952316","11.77","img/314/2.5/0.5/bw/001.png","","","natural"
"","","","","","animation","95","912859","0.0-95.0","1920x1080","","3032.2999999523163","92.99","img/238/4/2/bw/001.png","","","natural"
"","","","","","animation","96","915842","0.0-96.0","1920x1080","","2981.399999976158","100","img/117/5.5/2/bw/001.png","","","natural"
"","","","","","animation","97","918546","0.0-97.0","1920x1080","","2702.3000000715256","87.30","img/314/4/1/bw/001.png","","","natural"
"","","","","","animation","98","923142","0.0-98.0","1920x1080","","4594.899999976158","84.66","img/238/4/0.66667/bw/001.png","","","natural"
"","","","","","animation","99","927466","0.0-99.0","1920x1080","","4323.200000047684","20.24","img/238/2.5/0.5/bw/001.png","","","natural"
"","","","","","animation","100","931050","0.0-100.0","1920x1080","","3583.2000000476837","100","img/117/5.5/1/bw/001.png","","","natural"
"","","","","","animation","101","933586","0.0-101.0","1920x1080","","2534.7000000476837","100","img/314/5.5/1.5/bw/001.png","","","natural"
"","","","","","animation","102","936724","0.0-102.0","1920x1080","","3137.5","100","img/314/5.5/1/bw/001.png","","","natural"
"","","","","","animation","103","951041","0.0-103.0","1920x1080","","14316.200000047684","49.74","img/314/4.5/0.66667/bw/001.png","","","natural"
"","","","","","animation","104","956082","0.0-104.0","1920x1080","","5039.300000071526","20.77","img/314/4/0.66667/bw/001.png","","","natural"
"","","","","","animation","105","994639","0.0-105.0","1920x1080","","38558.300000071526","18.78","img/314/2.5/0.66667/bw/001.png","","","natural"
"","","","","","animation","106","998323","0.0-106.0","1920x1080","","3683.0999999046326","99","img/238/5.5/2/bw/001.png","","","natural"
"","","","","","animation","107","1029131","0.0-107.0","1920x1080","","30802.899999976158","50.00","img/117/3.5/0.5/bw/001.png","","","natural"
"","","","","","animation","108","1035643","0.0-108.0","1920x1080","","6510.100000023842","25.26","img/314/2.5/1.5/bw/001.png","","","natural"
"","","","","","animation","109","1040035","0.0-109.0","1920x1080","","4391.100000023842","24.87","img/117/2.5/2/bw/001.png","","","natural"
"","","","","","animation","110","1043147","0.0-110.0","1920x1080","","3110.8000000715256","73.41","img/238/3.5/1.5/bw/001.png","","","natural"
"","","","","","animation","111","1050883","0.0-111.0","1920x1080","","7735.200000047684","86.11","img/117/4.5/0.66667/bw/001.png","","","natural"
"","","","","","animation","112","1053960","0.0-112.0","1920x1080","","3075.5","61.64","img/314/3.5/1.5/bw/001.png","","","natural"
"","","","","","animation","113","1058467","0.0-113.0","1920x1080","","4506.399999976158","29.50","img/117/3.5/0.66667/bw/001.png","","","natural"
"","","","","","animation","114","1064171","0.0-114.0","1920x1080","","5703.100000023842","20.24","img/314/2.5/2/bw/001.png","","","natural"
"","","","","","animation","115","1066995","0.0-115.0","1920x1080","","2822.5999999046326","90.08","img/238/5.5/1/bw/001.png","","","natural"
"","","","","","animation","116","1072587","0.0-116.0","1920x1080","","5591.400000095367","28.97","img/314/4.5/0.5/bw/001.png","","","natural"
"","","","","","animation","117","1076459","0.0-117.0","1920x1080","","3870.100000023842","41.27","img/117/5.5/0.5/bw/001.png","","","natural"
"","","","","","animation","118","1081835","0.0-118.0","1920x1080","","5375.299999952316","67","img/238/3.5/2/bw/001.png","","","natural"
"","","","","","animation","119","1085125","0.0-119.0","1920x1080","","3289.2999999523163","66.67","img/117/3.5/1.5/bw/001.png","","","natural"
"","","","","","animation","120","1088924","0.0-120.0","1920x1080","","3799.4000000953674","100","img/238/4.5/1.5/bw/001.png","","","natural"
"","","","","","animation","121","1095793","0.0-121.0","1920x1080","","6868.100000023842","20.11","img/238/4.5/0.66667/bw/001.png","","","natural"
"","","","","","animation","122","1099649","0.0-122.0","1920x1080","","3854.7000000476837","60.05","img/238/4/1.5/bw/001.png","","","natural"
"","","","","","animation","123","1107173","0.0-123.0","1920x1080","","7522.199999928474","89.55","img/238/5.5/0.66667/bw/001.png","","","natural"
"","","","","","animation","124","1112890","0.0-124.0","1920x1080","","5716.599999904633","100","img/238/5.5/1.5/bw/001.png","","","natural"
"","","","","","animation","125","1116425","0.0-125.0","1920x1080","","3533.899999976158","44.31","img/238/4.5/1/bw/001.png","","","natural"
"","","","","","animation","126","1119658","0.0-126.0","1920x1080","","3231.5999999046326","27.25","img/117/3.5/2/bw/001.png","","","natural"
"","","","","","animation","127","1125345","0.0-127.0","1920x1080","","5686.100000023842","2.65","img/117/4/0.5/bw/001.png","","","natural"
"","","","","","animation","128","1129009","0.0-128.0","1920x1080","","3662.399999976158","53.70","img/117/4.5/1/bw/001.png","","","natural"
"","","","","","animation","129","1132633","0.0-129.0","1920x1080","","3623.5","33.20","img/117/4.5/0.5/bw/001.png","","","natural"
"","","","","","animation","130","1140690","0.0-130.0","1920x1080","","8055.899999976158","86.64","img/314/4/1.5/bw/001.png","","","natural"
"","","","","","animation","131","1144028","0.0-131.0","1920x1080","","3337.2000000476837","5.29","img/314/3.5/0.66667/bw/001.png","","","natural"
"","","","","","animation","132","1149029","0.0-132.0","1920x1080","","4995.5","79.37","img/117/4/1/bw/001.png","","","natural"
"","","","","","animation","133","1155878","0.0-133.0","1920x1080","","6848.100000023842","26.06","img/238/4.5/0.5/bw/001.png","","","natural"
"","","","","","animation","134","1159437","0.0-134.0","1920x1080","","3558.2000000476837","0","img/117/2.5/0.66667/bw/001.png","","","natural"
"","","","","","animation","135","1164045","0.0-135.0","1920x1080","","4606.700000047684","0.00","img/117/2.5/0.5/bw/001.png","","","natural"
"","","","","","animation","136","1167377","0.0-136.0","1920x1080","","3331.2000000476837","58.86","img/238/5.5/0.5/bw/001.png","","","natural"
"","","","","","animation","137","1170733","0.0-137.0","1920x1080","","3354.899999976158","15.21","img/238/2.5/1/bw/001.png","","","natural"
"","","","","","animation","138","1173821","0.0-138.0","1920x1080","","3086.9000000953674","92.46","img/117/4.5/1.5/bw/001.png","","","natural"
"","","","","","animation","139","1177165","0.0-139.0","1920x1080","","3342.8000000715256","19.31","img/238/3.5/0.5/bw/001.png","","","natural"
"","","","","","animation","140","1180949","0.0-140.0","1920x1080","","3783.2000000476837","91.40","img/314/5.5/0.5/bw/001.png","","","natural"
"","","","","","animation","141","1185301","0.0-141.0","1920x1080","","4351","9.66","img/314/3.5/0.5/bw/001.png","","","natural"
"","","","","","animation","142","1189685","0.0-142.0","1920x1080","","4382.899999976158","0","img/238/2.5/0.66667/bw/001.png","","","natural"
"","","","","","animation","143","1195045","0.0-143.0","1920x1080","","5359.100000023842","85","img/314/5.5/0.66667/bw/001.png","","","natural"
"","","","","","animation","144","1199485","0.0-144.0","1920x1080","","4438.899999976158","24.21","img/117/2.5/1/bw/001.png","","","natural"
"","","","","","animation","145","1203512","0.0-145.0","1920x1080","","4025.7999999523163","88.62","img/117/4/1.5/bw/001.png","","","natural"
"","","","","","animation","146","1210476","0.0-146.0","1920x1080","","6964.600000023842","79.63","img/314/4/2/bw/001.png","","","natural"
"","","","","","animation","147","1213531","0.0-147.0","1920x1080","","3053.899999976158","21.96","img/238/4/1/bw/001.png","","","natural"
"","","","","","animation","148","1222692","0.0-148.0","1920x1080","","9160.099999904633","64.81","img/238/3.5/1/bw/001.png","","","natural"
"","","","","","animation","149","1225559","0.0-149.0","1920x1080","","2865.7000000476837","76.98","img/314/4.5/1/bw/001.png","","","natural"
"","","","","","animation","150","1232892","0.0-150.0","1920x1080","","7332","50.53","img/117/4/2/bw/001.png","","","natural"
"","","","","","animation","151","1237843","0.0-151.0","1920x1080","","4949.200000047684","59","img/314/3.5/2/bw/001.png","","","natural"
"","","","","","animation","152","1240803","0.0-152.0","1920x1080","","2959.600000023842","74.21","img/117/5.5/0.66667/bw/001.png","","","natural"
"","","","","","animation","153","1243591","0.0-153.0","1920x1080","","2786.7999999523163","30.82","img/238/4/0.5/bw/001.png","","","natural"
"","","","","","animation","154","1247835","0.0-154.0","1920x1080","","4242.899999976158","30.82","img/314/3.5/1/bw/001.png","","","natural"
"","","","","","animation","155","1253411","0.0-155.0","1920x1080","","5572.899999976158","38.62","img/117/3.5/1/bw/001.png","","","natural"
"","","","","","animation","156","1259243","0.0-156.0","1920x1080","","5830.899999976158","28","img/238/2.5/1.5/bw/001.png","","","natural"
"","","","","","animation","157","1262915","0.0-157.0","1920x1080","","3671.3000000715256","37.43","img/117/4/0.66667/bw/001.png","","","natural"
"","","","","","animation","158","1266427","0.0-158.0","1920x1080","","3510.5999999046326","89.29","img/314/5.5/2/bw/001.png","","","natural"
"","","","","","html-button-response","159","1285048","0.0-159.0","1920x1080","","18615.100000023842","","<div class=""intro"">You are about to view a new series of animations.<br><br></div><div class=""intro"">You will evaluate them based on a different descriptor.<br><br></div><div class=""intro"">Move the slider to indicate how <strong style=""text-transform:capitalize"">RELAXING</strong> you find each animation.<br><br></div><div class=""intro"">0 = Least Relaxing<br></div><div class=""intro"">1 = Most Relaxing<br><br></div><div class=""intro"">Remember to use the <strong><em>entire range</em></strong> of the slider to make your ratings.<br></div><div class=""intro"">Please <strong><em>take your time</em></strong> and carefully consider each rating you make.<br><br></div>","0","",""
"","","","","","call-function","160","1285048","0.0-160.0","1920x1080","","","","","","",""
"","","","","","animation","161","1289962","0.0-161.0","1920x1080","","4913.5","100","img/238/4.5/2/bw/001.png","","","relaxing"
"","","","","","animation","162","1294863","0.0-162.0","1920x1080","","4899.700000047684","10.85","img/314/2.5/1.5/bw/001.png","","","relaxing"
"","","","","","animation","163","1298183","0.0-163.0","1920x1080","","3318.899999976158","2.38","img/314/4/0.5/bw/001.png","","","relaxing"
"","","","","","animation","164","1302980","0.0-164.0","1920x1080","","4795.399999976158","100","img/314/5.5/1/bw/001.png","","","relaxing"
"","","","","","animation","165","1308224","0.0-165.0","1920x1080","","5241.899999976158","17.59","img/238/4.5/0.66667/bw/001.png","","","relaxing"
"","","","","","animation","166","1320456","0.0-166.0","1920x1080","","12230.199999928474","12.17","img/314/3.5/2/bw/001.png","","","relaxing"
"","","","","","animation","167","1323768","0.0-167.0","1920x1080","","3310.2000000476837","100","img/238/5.5/1/bw/001.png","","","relaxing"
"","","","","","animation","168","1328739","0.0-168.0","1920x1080","","4978.300000071526","49.60","img/314/4/1/bw/001.png","","","relaxing"
"","","","","","animation","169","1332112","0.0-169.0","1920x1080","","3371.5","0.53","img/238/2.5/0.5/bw/001.png","","","relaxing"
"","","","","","animation","170","1337024","0.0-170.0","1920x1080","","4910.100000023842","50.00","img/314/4.5/1/bw/001.png","","","relaxing"
"","","","","","animation","171","1340371","0.0-171.0","1920x1080","","3346.5","0.53","img/238/3.5/0.66667/bw/001.png","","","relaxing"
"","","","","","animation","172","1346538","0.0-172.0","1920x1080","","6165.799999952316","49.21","img/314/4.5/0.66667/bw/001.png","","","relaxing"
"","","","","","animation","173","1377696","0.0-173.0","1920x1080","","31156.799999952316","49.47","img/238/3.5/2/bw/001.png","","","relaxing"
"","","","","","animation","174","1384139","0.0-174.0","1920x1080","","6441.5","89.95","img/117/4.5/1.5/bw/001.png","","","relaxing"
"","","","","","animation","175","1393925","0.0-175.0","1920x1080","","9781.299999952316","25.00","img/117/3.5/2/bw/001.png","","","relaxing"
"","","","","","animation","176","1401667","0.0-176.0","1920x1080","","7740.399999976158","100","img/117/5.5/1/bw/001.png","","","relaxing"
"","","","","","animation","177","1404467","0.0-177.0","1920x1080","","2798.6999999284744","6.48","img/314/3.5/0.66667/bw/001.png","","","relaxing"
"","","","","","animation","178","1407510","0.0-178.0","1920x1080","","3041","20.50","img/117/5.5/0.5/bw/001.png","","","relaxing"
"","","","","","animation","179","1410758","0.0-179.0","1920x1080","","3247.399999976158","30.69","img/238/5.5/0.66667/bw/001.png","","","relaxing"
"","","","","","animation","180","1425163","0.0-180.0","1920x1080","","14404.400000095367","69.58","img/117/4/1.5/bw/001.png","","","relaxing"
"","","","","","animation","181","1428515","0.0-181.0","1920x1080","","3350.9000000953674","0","img/314/2.5/0.66667/bw/001.png","","","relaxing"
"","","","","","animation","182","1431331","0.0-182.0","1920x1080","","2814.8000000715256","9.66","img/238/4/0.5/bw/001.png","","","relaxing"
"","","","","","animation","183","1433792","0.0-183.0","1920x1080","","2459","7.14","img/117/4/0.5/bw/001.png","","","relaxing"
"","","","","","animation","184","1436867","0.0-184.0","1920x1080","","3074.899999976158","1.98","img/314/3.5/0.5/bw/001.png","","","relaxing"
"","","","","","animation","185","1440958","0.0-185.0","1920x1080","","4089.2000000476837","0.53","img/117/2.5/0.5/bw/001.png","","","relaxing"
"","","","","","animation","186","1446499","0.0-186.0","1920x1080","","5540.100000023842","100","img/117/5.5/2/bw/001.png","","","relaxing"
"","","","","","animation","187","1449841","0.0-187.0","1920x1080","","3340.2000000476837","31.48","img/117/2.5/1/bw/001.png","","","relaxing"
"","","","","","animation","188","1452851","0.0-188.0","1920x1080","","3009.6999999284744","52.38","img/238/2.5/2/bw/001.png","","","relaxing"
"","","","","","animation","189","1456099","0.0-189.0","1920x1080","","3246.8000000715256","45.63","img/117/4.5/0.5/bw/001.png","","","relaxing"
"","","","","","animation","190","1464651","0.0-190.0","1920x1080","","8551","27.38","img/314/3.5/1/bw/001.png","","","relaxing"
"","","","","","animation","191","1470227","0.0-191.0","1920x1080","","5572.600000023842","24.87","img/117/3.5/1.5/bw/001.png","","","relaxing"
"","","","","","animation","192","1475708","0.0-192.0","1920x1080","","5479.399999976158","15.87","img/238/3.5/1.5/bw/001.png","","","relaxing"
"","","","","","animation","193","1479043","0.0-193.0","1920x1080","","3333.6999999284744","100","img/314/5.5/0.66667/bw/001.png","","","relaxing"
"","","","","","animation","194","1481779","0.0-194.0","1920x1080","","2735","22.49","img/314/2.5/0.5/bw/001.png","","","relaxing"
"","","","","","animation","195","1485931","0.0-195.0","1920x1080","","4151.100000023842","56","img/117/4.5/0.66667/bw/001.png","","","relaxing"
"","","","","","animation","196","1489265","0.0-196.0","1920x1080","","3332.1999999284744","49.60","img/238/4.5/0.5/bw/001.png","","","relaxing"
"","","","","","animation","197","1508075","0.0-197.0","1920x1080","","18809.899999976158","80.95","img/314/4.5/2/bw/001.png","","","relaxing"
"","","","","","animation","198","1513426","0.0-198.0","1920x1080","","5349.5","21","img/314/4/0.66667/bw/001.png","","","relaxing"
"","","","","","animation","199","1515482","0.0-199.0","1920x1080","","2054.7999999523163","82.14","img/117/4.5/2/bw/001.png","","","relaxing"
"","","","","","animation","200","1518507","0.0-200.0","1920x1080","","3023.3000000715256","2.38","img/238/2.5/1/bw/001.png","","","relaxing"
"","","","","","animation","201","1521283","0.0-201.0","1920x1080","","2774.5","73.15","img/314/5.5/0.5/bw/001.png","","","relaxing"
"","","","","","animation","202","1527842","0.0-202.0","1920x1080","","6558.399999976158","36.38","img/117/3.5/1/bw/001.png","","","relaxing"
"","","","","","animation","203","1534275","0.0-203.0","1920x1080","","6431.799999952316","85","img/117/5.5/0.66667/bw/001.png","","","relaxing"
"","","","","","animation","204","1538390","0.0-204.0","1920x1080","","4114","24.74","img/117/3.5/0.5/bw/001.png","","","relaxing"
"","","","","","animation","205","1544210","0.0-205.0","1920x1080","","5818.600000023842","24.60","img/117/4.5/1/bw/001.png","","","relaxing"
"","","","","","animation","206","1547724","0.0-206.0","1920x1080","","3512.2999999523163","1.32","img/117/2.5/0.66667/bw/001.png","","","relaxing"
"","","","","","animation","207","1551974","0.0-207.0","1920x1080","","4249.099999904633","5.42","img/238/3.5/1/bw/001.png","","","relaxing"
"","","","","","animation","208","1556810","0.0-208.0","1920x1080","","4834.799999952316","54.10","img/117/4/2/bw/001.png","","","relaxing"
"","","","","","animation","209","1559363","0.0-209.0","1920x1080","","2551.399999976158","57.54","img/238/4/2/bw/001.png","","","relaxing"
"","","","","","animation","210","1563274","0.0-210.0","1920x1080","","3909.600000023842","56.48","img/238/4/1/bw/001.png","","","relaxing"
"","","","","","animation","211","1567357","0.0-211.0","1920x1080","","4081.2999999523163","100","img/238/5.5/2/bw/001.png","","","relaxing"
"","","","","","animation","212","1574289","0.0-212.0","1920x1080","","6932.599999904633","84.52","img/314/5.5/2/bw/001.png","","","relaxing"
"","","","","","animation","213","1579265","0.0-213.0","1920x1080","","4974.799999952316","8.99","img/238/4/0.66667/bw/001.png","","","relaxing"
"","","","","","animation","214","1582890","0.0-214.0","1920x1080","","3622.7000000476837","0.53","img/117/2.5/1.5/bw/001.png","","","relaxing"
"","","","","","animation","215","1586145","0.0-215.0","1920x1080","","3254.4000000953674","100","img/238/5.5/1.5/bw/001.png","","","relaxing"
"","","","","","animation","216","1588577","0.0-216.0","1920x1080","","2430.600000023842","74.60","img/314/4.5/1.5/bw/001.png","","","relaxing"
"","","","","","animation","217","1600065","0.0-217.0","1920x1080","","11486.799999952316","9.92","img/314/2.5/1/bw/001.png","","","relaxing"
"","","","","","animation","218","1604172","0.0-218.0","1920x1080","","4105.099999904633","0","img/238/2.5/0.66667/bw/001.png","","","relaxing"
"","","","","","animation","219","1609673","0.0-219.0","1920x1080","","5499.199999928474","33.99","img/314/3.5/1.5/bw/001.png","","","relaxing"
"","","","","","animation","220","1614206","0.0-220.0","1920x1080","","4531.600000023842","80.16","img/238/4.5/1.5/bw/001.png","","","relaxing"
"","","","","","animation","221","1618156","0.0-221.0","1920x1080","","3948.899999976158","48.02","img/238/5.5/0.5/bw/001.png","","","relaxing"
"","","","","","animation","222","1627812","0.0-222.0","1920x1080","","9648.700000047684","35.19","img/314/4/1.5/bw/001.png","","","relaxing"
"","","","","","animation","223","1643688","0.0-223.0","1920x1080","","15874.300000071526","75.79","img/117/5.5/1.5/bw/001.png","","","relaxing"
"","","","","","animation","224","1649996","0.0-224.0","1920x1080","","6306.799999952316","0.40","img/238/3.5/0.5/bw/001.png","","","relaxing"
"","","","","","animation","225","1653729","0.0-225.0","1920x1080","","3731.7999999523163","0.53","img/117/4/0.66667/bw/001.png","","","relaxing"
"","","","","","animation","226","1656968","0.0-226.0","1920x1080","","3237","79.89","img/238/4/1.5/bw/001.png","","","relaxing"
"","","","","","animation","227","1661979","0.0-227.0","1920x1080","","5009.5","84.92","img/314/5.5/1.5/bw/001.png","","","relaxing"
"","","","","","animation","228","1665780","0.0-228.0","1920x1080","","3800.600000023842","0.53","img/238/2.5/1.5/bw/001.png","","","relaxing"
"","","","","","animation","229","1671462","0.0-229.0","1920x1080","","5680.100000023842","20.11","img/314/2.5/2/bw/001.png","","","relaxing"
"","","","","","animation","230","1674984","0.0-230.0","1920x1080","","3520.399999976158","66.40","img/314/4/2/bw/001.png","","","relaxing"
"","","","","","animation","231","1677816","0.0-231.0","1920x1080","","2830.5","73.94","img/238/4.5/1/bw/001.png","","","relaxing"
"","","","","","animation","232","1681195","0.0-232.0","1920x1080","","3378.600000023842","20.63","img/117/2.5/2/bw/001.png","","","relaxing"
"","","","","","animation","233","1685329","0.0-233.0","1920x1080","","4132.199999928474","55.82","img/117/4/1/bw/001.png","","","relaxing"
"","","","","","animation","234","1688626","0.0-234.0","1920x1080","","3301.600000023842","22.22","img/117/3.5/0.66667/bw/001.png","","","relaxing"
"","","","","","animation","235","1691440","0.0-235.0","1920x1080","","2812.600000023842","77.38","img/314/4.5/0.5/bw/001.png","","","relaxing"
"","","","","","html-button-response","236","1712067","0.0-236.0","1920x1080","","20625.400000095367","","<div class=""intro"">You are about to view a new series of animations.<br><br></div><div class=""intro"">You will evaluate them based on a different descriptor.<br><br></div><div class=""intro"">Move the slider to indicate how <strong style=""text-transform:capitalize"">APPEALING</strong> you find each animation.<br><br></div><div class=""intro"">0 = Least Appealing<br></div><div class=""intro"">1 = Most Appealing<br><br></div><div class=""intro"">Remember to use the <strong><em>entire range</em></strong> of the slider to make your ratings.<br></div><div class=""intro"">Please <strong><em>take your time</em></strong> and carefully consider each rating you make.<br><br></div>","0","",""
"","","","","","call-function","237","1712069","0.0-237.0","1920x1080","","","","","","",""
"","","","","","animation","238","1717157","0.0-238.0","1920x1080","","5087.799999952316","21.69","img/314/4.5/0.66667/bw/001.png","","","appealing"
"","","","","","animation","239","1719658","0.0-239.0","1920x1080","","2499.7999999523163","25.79","img/117/4/1/bw/001.png","","","appealing"
"","","","","","animation","240","1723442","0.0-240.0","1920x1080","","3782.7999999523163","9.92","img/238/4/0.5/bw/001.png","","","appealing"
"","","","","","animation","241","1727099","0.0-241.0","1920x1080","","3655.1999999284744","9.13","img/117/4.5/0.66667/bw/001.png","","","appealing"
"","","","","","animation","242","1730747","0.0-242.0","1920x1080","","3646.5999999046326","0.40","img/117/2.5/0.5/bw/001.png","","","appealing"
"","","","","","animation","243","1734026","0.0-243.0","1920x1080","","3278.399999976158","0","img/314/2.5/1/bw/001.png","","","appealing"
"","","","","","animation","244","1737579","0.0-244.0","1920x1080","","3550.5","75.66","img/117/4.5/2/bw/001.png","","","appealing"
"","","","","","animation","245","1742193","0.0-245.0","1920x1080","","4612.600000023842","90.08","img/238/4.5/1.5/bw/001.png","","","appealing"
"","","","","","animation","246","1748371","0.0-246.0","1920x1080","","6179","0.00","img/314/3.5/0.66667/bw/001.png","","","appealing"
"","","","","","animation","247","1751112","0.0-247.0","1920x1080","","2737.100000023842","3.57","img/238/4/0.66667/bw/001.png","","","appealing"
"","","","","","animation","248","1754126","0.0-248.0","1920x1080","","3012.5","0","img/314/2.5/1.5/bw/001.png","","","appealing"
"","","","","","animation","249","1761071","0.0-249.0","1920x1080","","6939.700000047684","76","img/117/5.5/0.5/bw/001.png","","","appealing"
"","","","","","animation","250","1765488","0.0-250.0","1920x1080","","4413.100000023842","81.61","img/117/4.5/0.5/bw/001.png","","","appealing"
"","","","","","animation","251","1772756","0.0-251.0","1920x1080","","7266.600000023842","85.32","img/238/4.5/1/bw/001.png","","","appealing"
"","","","","","animation","252","1777338","0.0-252.0","1920x1080","","4581","0.79","img/238/3.5/1/bw/001.png","","","appealing"
"","","","","","animation","253","1780754","0.0-253.0","1920x1080","","3414.600000023842","77.78","img/314/4.5/1.5/bw/001.png","","","appealing"
"","","","","","animation","254","1785488","0.0-254.0","1920x1080","","4732.299999952316","0","img/238/3.5/1.5/bw/001.png","","","appealing"
"","","","","","animation","255","1788338","0.0-255.0","1920x1080","","2848.0999999046326","82.41","img/314/5.5/1.5/bw/001.png","","","appealing"
"","","","","","animation","256","1795638","0.0-256.0","1920x1080","","7299.199999928474","69.05","img/314/4.5/0.5/bw/001.png","","","appealing"
"","","","","","animation","257","1799138","0.0-257.0","1920x1080","","3497.899999976158","0.40","img/117/2.5/0.66667/bw/001.png","","","appealing"
"","","","","","animation","258","1802388","0.0-258.0","1920x1080","","3248.8000000715256","79.50","img/314/4.5/2/bw/001.png","","","appealing"
"","","","","","animation","259","1805288","0.0-259.0","1920x1080","","2898.7999999523163","0.53","img/238/3.5/0.66667/bw/001.png","","","appealing"
"","","","","","animation","260","1808620","0.0-260.0","1920x1080","","3332.3000000715256","31.75","img/314/3.5/1.5/bw/001.png","","","appealing"
"","","","","","animation","261","1811303","0.0-261.0","1920x1080","","2682.100000023842","27.25","img/314/3.5/0.5/bw/001.png","","","appealing"
"","","","","","animation","262","1867239","0.0-262.0","1920x1080","","55934.39999997616","39.42","img/238/2.5/0.5/bw/001.png","","","appealing"
"","","","","","animation","263","1869778","0.0-263.0","1920x1080","","2535.100000023842","79.50","img/238/4.5/2/bw/001.png","","","appealing"
"","","","","","animation","264","1872810","0.0-264.0","1920x1080","","3030.5999999046326","61.90","img/314/4.5/1/bw/001.png","","","appealing"
"","","","","","animation","265","1875724","0.0-265.0","1920x1080","","2912.600000023842","6.75","img/314/2.5/0.66667/bw/001.png","","","appealing"
"","","","","","animation","266","1880773","0.0-266.0","1920x1080","","5047.100000023842","100","img/238/5.5/1.5/bw/001.png","","","appealing"
"","","","","","animation","267","1883573","0.0-267.0","1920x1080","","2797.8000000715256","40.21","img/238/4.5/0.66667/bw/001.png","","","appealing"
"","","","","","animation","268","1886556","0.0-268.0","1920x1080","","2982","53.04","img/117/4.5/1/bw/001.png","","","appealing"
"","","","","","animation","269","1889994","0.0-269.0","1920x1080","","3437.100000023842","100","img/238/5.5/1/bw/001.png","","","appealing"
"","","","","","animation","270","1892689","0.0-270.0","1920x1080","","2693.6999999284744","31.61","img/117/3.5/0.66667/bw/001.png","","","appealing"
"","","","","","animation","271","1897656","0.0-271.0","1920x1080","","4965.399999976158","100","img/117/5.5/1/bw/001.png","","","appealing"
"","","","","","animation","272","1899940","0.0-272.0","1920x1080","","2282.3000000715256","29.76","img/314/3.5/2/bw/001.png","","","appealing"
"","","","","","animation","273","1904026","0.0-273.0","1920x1080","","4085.2000000476837","75.13","img/314/5.5/2/bw/001.png","","","appealing"
"","","","","","animation","274","1908159","0.0-274.0","1920x1080","","4131.399999976158","20.37","img/117/3.5/1.5/bw/001.png","","","appealing"
"","","","","","animation","275","1913706","0.0-275.0","1920x1080","","5546.100000023842","19.71","img/314/4/0.5/bw/001.png","","","appealing"
"","","","","","animation","276","1916130","0.0-276.0","1920x1080","","2423","79.50","img/314/5.5/1/bw/001.png","","","appealing"
"","","","","","animation","277","1921290","0.0-277.0","1920x1080","","5157.700000047684","10.58","img/117/3.5/1/bw/001.png","","","appealing"
"","","","","","animation","278","1925330","0.0-278.0","1920x1080","","4039.5","0.93","img/238/3.5/0.5/bw/001.png","","","appealing"
"","","","","","animation","279","1928655","0.0-279.0","1920x1080","","3322.5","0.93","img/117/2.5/1.5/bw/001.png","","","appealing"
"","","","","","animation","280","1932128","0.0-280.0","1920x1080","","3471.3000000715256","0.13","img/238/2.5/0.66667/bw/001.png","","","appealing"
"","","","","","animation","281","1935120","0.0-281.0","1920x1080","","2990.0999999046326","85.58","img/314/4/1.5/bw/001.png","","","appealing"
"","","","","","animation","282","1938887","0.0-282.0","1920x1080","","3765.6999999284744","9.66","img/314/3.5/1/bw/001.png","","","appealing"
"","","","","","animation","283","1942176","0.0-283.0","1920x1080","","3287.7999999523163","82.28","img/238/4.5/0.5/bw/001.png","","","appealing"
"","","","","","animation","284","1948544","0.0-284.0","1920x1080","","6366.799999952316","94.58","img/238/5.5/0.5/bw/001.png","","","appealing"
"","","","","","animation","285","1952055","0.0-285.0","1920x1080","","3509.6999999284744","14.68","img/117/4/0.66667/bw/001.png","","","appealing"
"","","","","","animation","286","1956487","0.0-286.0","1920x1080","","4430.100000023842","79.63","img/117/4/1.5/bw/001.png","","","appealing"
"","","","","","animation","287","1960087","0.0-287.0","1920x1080","","3598.8000000715256","23.68","img/314/4/1/bw/001.png","","","appealing"
"","","","","","animation","288","1962791","0.0-288.0","1920x1080","","2703.2000000476837","21.30","img/117/3.5/0.5/bw/001.png","","","appealing"
"","","","","","animation","289","1965592","0.0-289.0","1920x1080","","2799","15.74","img/314/4/0.66667/bw/001.png","","","appealing"
"","","","","","animation","290","1969944","0.0-290.0","1920x1080","","4350.699999928474","49.60","img/238/4/2/bw/001.png","","","appealing"
"","","","","","animation","291","1973487","0.0-291.0","1920x1080","","3542","92.33","img/238/5.5/0.66667/bw/001.png","","","appealing"
"","","","","","animation","292","1979037","0.0-292.0","1920x1080","","5548.700000047684","96","img/238/5.5/2/bw/001.png","","","appealing"
"","","","","","animation","293","1983976","0.0-293.0","1920x1080","","4936.899999976158","86.38","img/314/5.5/0.5/bw/001.png","","","appealing"
"","","","","","animation","294","1987545","0.0-294.0","1920x1080","","3567.899999976158","1.19","img/314/4/2/bw/001.png","","","appealing"
"","","","","","animation","295","1991938","0.0-295.0","1920x1080","","4387","100","img/117/5.5/1.5/bw/001.png","","","appealing"
"","","","","","animation","296","1995789","0.0-296.0","1920x1080","","3849.100000023842","12.57","img/117/3.5/2/bw/001.png","","","appealing"
"","","","","","animation","297","1999378","0.0-297.0","1920x1080","","3586.6999999284744","3.17","img/238/2.5/2/bw/001.png","","","appealing"
"","","","","","animation","298","2003073","0.0-298.0","1920x1080","","3694.2999999523163","26.32","img/238/4/1/bw/001.png","","","appealing"
"","","","","","animation","299","2005989","0.0-299.0","1920x1080","","2914.3000000715256","89.55","img/314/5.5/0.66667/bw/001.png","","","appealing"
"","","","","","animation","300","2009177","0.0-300.0","1920x1080","","3187.3000000715256","92.33","img/117/4.5/1.5/bw/001.png","","","appealing"
"","","","","","animation","301","2011405","0.0-301.0","1920x1080","","2225.899999976158","20.50","img/238/2.5/1/bw/001.png","","","appealing"
"","","","","","animation","302","2013558","0.0-302.0","1920x1080","","2152","14.68","img/238/3.5/2/bw/001.png","","","appealing"
"","","","","","animation","303","2016522","0.0-303.0","1920x1080","","2962.399999976158","10.32","img/314/2.5/2/bw/001.png","","","appealing"
"","","","","","animation","304","2020322","0.0-304.0","1920x1080","","3798.7999999523163","9.66","img/117/2.5/2/bw/001.png","","","appealing"
"","","","","","animation","305","2025089","0.0-305.0","1920x1080","","4765.799999952316","100","img/117/5.5/2/bw/001.png","","","appealing"
"","","","","","animation","306","2028522","0.0-306.0","1920x1080","","3431.100000023842","100","img/117/5.5/0.66667/bw/001.png","","","appealing"
"","","","","","animation","307","2031161","0.0-307.0","1920x1080","","2638.1999999284744","4.23","img/117/2.5/1/bw/001.png","","","appealing"
"","","","","","animation","308","2033689","0.0-308.0","1920x1080","","2526.2000000476837","12.70","img/238/4/1.5/bw/001.png","","","appealing"
"","","","","","animation","309","2038457","0.0-309.0","1920x1080","","4767.200000047684","15.08","img/117/4/0.5/bw/001.png","","","appealing"
"","","","","","animation","310","2042405","0.0-310.0","1920x1080","","3946.8000000715256","0.40","img/238/2.5/1.5/bw/001.png","","","appealing"
"","","","","","animation","311","2058696","0.0-311.0","1920x1080","","16291.100000023842","53","img/117/4/2/bw/001.png","","","appealing"
"","","","","","animation","312","2061455","0.0-312.0","1920x1080","","2756.7999999523163","3.17","img/314/2.5/0.5/bw/001.png","","","appealing"
"","","","","","html-button-response","313","2079976","0.0-313.0","1920x1080","","18519.099999904633","","<div class=""intro"">You are about to view a new series of animations.<br><br></div><div class=""intro"">You will evaluate them based on a different descriptor.<br><br></div><div class=""intro"">Move the slider to indicate how <strong style=""text-transform:capitalize"">INTERESTING</strong> you find each animation.<br><br></div><div class=""intro"">0 = Least Interesting<br></div><div class=""intro"">1 = Most Interesting<br><br></div><div class=""intro"">Remember to use the <strong><em>entire range</em></strong> of the slider to make your ratings.<br></div><div class=""intro"">Please <strong><em>take your time</em></strong> and carefully consider each rating you make.<br><br></div>","0","",""
"","","","","","call-function","314","2079976","0.0-314.0","1920x1080","","","","","","",""
"","","","","","animation","315","2087603","0.0-315.0","1920x1080","","7626.5","18.39","img/117/2.5/2/bw/001.png","","","interesting"
"","","","","","animation","316","2092028","0.0-316.0","1920x1080","","4422.399999976158","78.70","img/117/4/2/bw/001.png","","","interesting"
"","","","","","animation","317","2094671","0.0-317.0","1920x1080","","2641","81.22","img/117/5.5/0.66667/bw/001.png","","","interesting"
"","","","","","animation","318","2098877","0.0-318.0","1920x1080","","4204.5","25.00","img/117/3.5/1/bw/001.png","","","interesting"
"","","","","","animation","319","2102253","0.0-319.0","1920x1080","","3374.600000023842","83.47","img/314/4/1.5/bw/001.png","","","interesting"
"","","","","","animation","320","2105208","0.0-320.0","1920x1080","","2952.5","85.71","img/314/4/0.66667/bw/001.png","","","interesting"
"","","","","","animation","321","2113007","0.0-321.0","1920x1080","","7798.600000023842","43.78","img/314/5.5/2/bw/001.png","","","interesting"
"","","","","","animation","322","2116191","0.0-322.0","1920x1080","","3182.100000023842","4.76","img/238/2.5/2/bw/001.png","","","interesting"
"","","","","","animation","323","2127990","0.0-323.0","1920x1080","","11798.200000047684","77.78","img/238/3.5/0.66667/bw/001.png","","","interesting"
"","","","","","animation","324","2154006","0.0-324.0","1920x1080","","26011.600000023842","96","img/238/4/2/bw/001.png","","","interesting"
"","","","","","animation","325","2158201","0.0-325.0","1920x1080","","4192.199999928474","89.68","img/117/4.5/1.5/bw/001.png","","","interesting"
"","","","","","animation","326","2161991","0.0-326.0","1920x1080","","3788.399999976158","26.98","img/238/5.5/2/bw/001.png","","","interesting"
"","","","","","animation","327","2164066","0.0-327.0","1920x1080","","2073.600000023842","72.75","img/238/4/0.5/bw/001.png","","","interesting"
"","","","","","animation","328","2167335","0.0-328.0","1920x1080","","3268.2000000476837","51","img/314/2.5/1.5/bw/001.png","","","interesting"
"","","","","","animation","329","2169789","0.0-329.0","1920x1080","","2450","50.00","img/238/2.5/1/bw/001.png","","","interesting"
"","","","","","animation","330","2175488","0.0-330.0","1920x1080","","5697.600000023842","83","img/238/4.5/0.66667/bw/001.png","","","interesting"
"","","","","","animation","331","2179890","0.0-331.0","1920x1080","","4400.5","37.96","img/117/4/1/bw/001.png","","","interesting"
"","","","","","animation","332","2182841","0.0-332.0","1920x1080","","2949.899999976158","89.55","img/238/5.5/1.5/bw/001.png","","","interesting"
"","","","","","animation","333","2187238","0.0-333.0","1920x1080","","4396","64.02","img/238/3.5/1.5/bw/001.png","","","interesting"
"","","","","","animation","334","2191555","0.0-334.0","1920x1080","","4315.399999976158","52.91","img/238/3.5/2/bw/001.png","","","interesting"
"","","","","","animation","335","2197414","0.0-335.0","1920x1080","","5857.900000095367","80.69","img/238/3.5/1/bw/001.png","","","interesting"
"","","","","","animation","336","2200771","0.0-336.0","1920x1080","","3355.3000000715256","15.34","img/117/2.5/1.5/bw/001.png","","","interesting"
"","","","","","animation","337","2343565","0.0-337.0","1920x1080","","142783.29999995232","87.57","img/117/5.5/2/bw/001.png","","","interesting"
"","","","","","animation","338","2345301","0.0-338.0","1920x1080","","1734.8000000715256","62.30","img/314/4/1/bw/001.png","","","interesting"
"","","","","","animation","339","2347013","0.0-339.0","1920x1080","","1709.7999999523163","73.41","img/238/4.5/2/bw/001.png","","","interesting"
"","","","","","animation","340","2350155","0.0-340.0","1920x1080","","3149.0999999046326","0","img/238/2.5/0.5/bw/001.png","","","interesting"
"","","","","","animation","341","2352705","0.0-341.0","1920x1080","","2548.6999999284744","64.95","img/314/4/0.5/bw/001.png","","","interesting"
"","","","","","animation","342","2355222","0.0-342.0","1920x1080","","2515.7000000476837","52.12","img/238/2.5/1.5/bw/001.png","","","interesting"
"","","","","","animation","343","2357290","0.0-343.0","1920x1080","","2066.899999976158","75.53","img/117/4.5/0.5/bw/001.png","","","interesting"
"","","","","","animation","344","2360172","0.0-344.0","1920x1080","","2880.100000023842","76.59","img/314/2.5/0.66667/bw/001.png","","","interesting"
"","","","","","animation","345","2364773","0.0-345.0","1920x1080","","4600","35.05","img/314/3.5/1/bw/001.png","","","interesting"
"","","","","","animation","346","2370826","0.0-346.0","1920x1080","","6051.899999976158","70.77","img/117/4.5/2/bw/001.png","","","interesting"
"","","","","","animation","347","2374746","0.0-347.0","1920x1080","","3918.100000023842","76.06","img/117/4/0.66667/bw/001.png","","","interesting"
"","","","","","animation","348","2377888","0.0-348.0","1920x1080","","3140.2999999523163","24.87","img/314/4/2/bw/001.png","","","interesting"
"","","","","","animation","349","2380338","0.0-349.0","1920x1080","","2447.7999999523163","50.79","img/314/5.5/1.5/bw/001.png","","","interesting"
"","","","","","animation","350","2383171","0.0-350.0","1920x1080","","2832.4000000953674","38.76","img/314/3.5/0.66667/bw/001.png","","","interesting"
"","","","","","animation","351","2386842","0.0-351.0","1920x1080","","3669.899999976158","67.06","img/314/4.5/0.5/bw/001.png","","","interesting"
"","","","","","animation","352","2389464","0.0-352.0","1920x1080","","2619.8000000715256","19.97","img/314/3.5/1.5/bw/001.png","","","interesting"
"","","","","","animation","353","2391555","0.0-353.0","1920x1080","","2089.600000023842","52.12","img/117/4.5/0.66667/bw/001.png","","","interesting"
"","","","","","animation","354","2394306","0.0-354.0","1920x1080","","2750.4000000953674","27.25","img/238/4.5/1.5/bw/001.png","","","interesting"
"","","","","","animation","355","2398842","0.0-355.0","1920x1080","","4535","73","img/314/5.5/1/bw/001.png","","","interesting"
"","","","","","animation","356","2402274","0.0-356.0","1920x1080","","3429","85.85","img/117/3.5/1.5/bw/001.png","","","interesting"
"","","","","","animation","357","2406004","0.0-357.0","1920x1080","","3728.899999976158","87.57","img/314/3.5/0.5/bw/001.png","","","interesting"
"","","","","","animation","358","2409707","0.0-358.0","1920x1080","","3702.5999999046326","4.76","img/238/2.5/0.66667/bw/001.png","","","interesting"
"","","","","","animation","359","2412266","0.0-359.0","1920x1080","","2557.7999999523163","76.19","img/314/4.5/1/bw/001.png","","","interesting"
"","","","","","animation","360","2414736","0.0-360.0","1920x1080","","2468.899999976158","82.01","img/238/5.5/1/bw/001.png","","","interesting"
"","","","","","animation","361","2417826","0.0-361.0","1920x1080","","3087.5","83.99","img/314/4.5/0.66667/bw/001.png","","","interesting"
"","","","","","animation","362","2420370","0.0-362.0","1920x1080","","2542.399999976158","73.41","img/117/5.5/1.5/bw/001.png","","","interesting"
"","","","","","animation","363","2423110","0.0-363.0","1920x1080","","2739.600000023842","13.89","img/238/4/1/bw/001.png","","","interesting"
"","","","","","animation","364","2426009","0.0-364.0","1920x1080","","2897.1999999284744","83.86","img/117/2.5/0.5/bw/001.png","","","interesting"
"","","","","","animation","365","2429721","0.0-365.0","1920x1080","","3710.5999999046326","90.48","img/238/4/1.5/bw/001.png","","","interesting"
"","","","","","animation","366","2431603","0.0-366.0","1920x1080","","1880.3999999761581","56.61","img/238/5.5/0.66667/bw/001.png","","","interesting"
"","","","","","animation","367","2434604","0.0-367.0","1920x1080","","2999.5","15.34","img/238/4/0.66667/bw/001.png","","","interesting"
"","","","","","animation","368","2436603","0.0-368.0","1920x1080","","1997.7000000476837","81.75","img/314/5.5/0.66667/bw/001.png","","","interesting"
"","","","","","animation","369","2441770","0.0-369.0","1920x1080","","5165.700000047684","51.06","img/117/5.5/0.5/bw/001.png","","","interesting"
"","","","","","animation","370","2447456","0.0-370.0","1920x1080","","5684.399999976158","14.81","img/238/4.5/0.5/bw/001.png","","","interesting"
"","","","","","animation","371","2451270","0.0-371.0","1920x1080","","3812.399999976158","0.00","img/117/2.5/1/bw/001.png","","","interesting"
"","","","","","animation","372","2462419","0.0-372.0","1920x1080","","11147.200000047684","25.00","img/238/3.5/0.5/bw/001.png","","","interesting"
"","","","","","animation","373","2464203","0.0-373.0","1920x1080","","1783","53.70","img/314/3.5/2/bw/001.png","","","interesting"
"","","","","","animation","374","2470011","0.0-374.0","1920x1080","","5804.099999904633","0","img/314/2.5/0.5/bw/001.png","","","interesting"
"","","","","","animation","375","2474696","0.0-375.0","1920x1080","","4683.300000071526","53.57","img/117/4.5/1/bw/001.png","","","interesting"
"","","","","","animation","376","2502272","0.0-376.0","1920x1080","","27542.799999952316","55.69","img/117/3.5/0.5/bw/001.png","","","interesting"
"","","","","","animation","377","2509907","0.0-377.0","1920x1080","","7633.5","52.91","img/117/4/0.5/bw/001.png","","","interesting"
"","","","","","animation","378","2511747","0.0-378.0","1920x1080","","1838.8000000715256","34.79","img/117/3.5/2/bw/001.png","","","interesting"
"","","","","","animation","379","2513971","0.0-379.0","1920x1080","","2222.5","68.65","img/238/5.5/0.5/bw/001.png","","","interesting"
"","","","","","animation","380","2538160","0.0-380.0","1920x1080","","24179.200000047684","52.91","img/117/4/1.5/bw/001.png","","","interesting"
"","","","","","animation","381","2540829","0.0-381.0","1920x1080","","2663.8000000715256","14.95","img/314/2.5/1/bw/001.png","","","interesting"
"","","","","","animation","382","2543286","0.0-382.0","1920x1080","","2455.5999999046326","33.33","img/238/4.5/1/bw/001.png","","","interesting"
"","","","","","animation","383","2547282","0.0-383.0","1920x1080","","3994.899999976158","50.00","img/117/5.5/1/bw/001.png","","","interesting"
"","","","","","animation","384","2549883","0.0-384.0","1920x1080","","2599.2999999523163","78.70","img/314/5.5/0.5/bw/001.png","","","interesting"
"","","","","","animation","385","2552672","0.0-385.0","1920x1080","","2788.2999999523163","23.81","img/314/4.5/1.5/bw/001.png","","","interesting"
"","","","","","animation","386","2555096","0.0-386.0","1920x1080","","2422","8.60","img/314/4.5/2/bw/001.png","","","interesting"
"","","","","","animation","387","2588053","0.0-387.0","1920x1080","","32965.60000002384","27.91","img/314/2.5/2/bw/001.png","","","interesting"
"","","","","","animation","388","2590003","0.0-388.0","1920x1080","","1948.3999999761581","71.83","img/117/3.5/0.66667/bw/001.png","","","interesting"
"","","","","","animation","389","2593652","0.0-389.0","1920x1080","","3648.7000000476837","87.70","img/117/2.5/0.66667/bw/001.png","","","interesting"
"","","","","","html-button-response","390","2607206","0.0-390.0","1920x1080","","13551.700000047684","","<strong>Study Debriefing</strong><br><p class=""debrief""><strong>Background:</strong> The patterns you rated are called <em>fractals</em>. The term fractal describes a class of irregular curves or shapes for which any suitably chosen part is similar in shape to a given larger or smaller part when magnified or reduced to the same size. Fractal properties are found throughout the natural and manmade world. The series of animations you saw today displayed animated fractal patterns of a varying complexity.</p><p class=""debrief""><strong>Purpose of this study:</strong> We hope to better understand how the perception of static fractals differs from the perception of animated fractals, and how the speed of the animated patterns influences people&apos;s perception of them. Fractals allow us to study the perception of aesthetic properties (e.g. the perceived level of beauty in an image) without using recognizable content, which makes them an excellent tool for studying abstract aesthetic judgement.</p><p class=""debrief""><strong>Your part:</strong> Your participation has helped us to further understand how humans perceive these patterns across different levels of speed and complexity. This research with allow us to better understand how the visual system and brain process our ever-changing visual environments.<p class=""debrief""><strong>Feedback and Further information:</strong> If you have additional questions about this study, please feel free to ask the researcher, Nathan Gonzales-Hess at nhess @ uoregon.edu. If you have any questions concerning your rights as a research participant, please contact Research Compliance Services, 5237 University of Oregon, Eugene, OR 97403, 541-346-2510, or email researchCompliance @ uoregon.edu. You can also email the Human Subjects Coordinator for psychology and linguistics research at hscoord @ uoregon.edu. ","0","",""
"","","","","","html-button-response","391","2609224","0.0-391.0","1920x1080","","2013.8999999761581","","Thank you for participating in this study. <br>Please click below to finish the experiment and submit your responses.<br><br>","0","",""
"true","","","","","fullscreen","392","2610245","0.0-392.0","1920x1080","13:42 12/10/2022","","","","","",""
