"success","timeout","failed_images","failed_audio","failed_video","trial_type","trial_index","time_elapsed","internal_node_id","resolution","timeStamp","rt","response","stimulus","button_pressed","value","descriptor"
"true","false","[]","[]","[]","preload","0","37337","0.0-0.0","1920x1080","","","","","","",""
"true","false","[]","[]","[]","preload","1","85905","0.0-1.0","1920x1080","","","","","","",""
"true","false","[]","[]","[]","preload","2","111320","0.0-2.0","1920x1080","","","","","","",""
"true","","","","","fullscreen","3","143214","0.0-3.0","1920x1080","11:53 18/10/2022","","","","","",""
"","","","","","survey-html-form","4","154514","0.0-4.0","1920x1080","","11298.5","{""age"":""19"",""gender"":""male""}","","","",""
"","","","","","html-button-response","5","216428","0.0-5.0","1920x1080","","61967.600000000035","","<div class=""complex"">You are going to see a series of animations.<br><br></div><div class=""complex"">Move the slider to indicate how <strong style=""text-transform:capitalize"">COMPLEX</strong> you find each animation.<br><br></div><div class=""complex"">0 = Least Complex<br></div><div class=""complex"">1 = Most Complex<br><br></div><div class=""complex"">Remember to use the <strong><em>entire range</em></strong> of the slider to make your ratings.<br></div><div class=""complex"">Please <strong><em>take your time</em></strong> and carefully consider each rating you make.<br><br></div><div class=""complex"">The study has five sections and will take about 45 minutes to complete.<br><br></div>","0","",""
"","","","","","call-function","6","216429","0.0-6.0","1920x1080","","","","","","",""
"","","","","","animation","7","239540","0.0-7.0","1920x1080","","23108.099999999977","30.16","img/314/5.5/1.5/bw/001.png","","","complex"
"","","","","","animation","8","256548","0.0-8.0","1920x1080","","17007.800000000047","30.16","img/238/4/0.5/bw/001.png","","","complex"
"","","","","","animation","9","275887","0.0-9.0","1920x1080","","19382.199999999953","40.08","img/314/4/1.5/bw/001.png","","","complex"
"","","","","","animation","10","298712","0.0-10.0","1920x1080","","22823.5","24.07","img/314/4.5/0.66667/bw/001.png","","","complex"
"","","","","","animation","11","309071","0.0-11.0","1920x1080","","10358.900000000023","44.97","img/314/2.5/0.66667/bw/001.png","","","complex"
"","","","","","animation","12","323752","0.0-12.0","1920x1080","","14679.300000000047","49.47","img/238/3.5/1.5/bw/001.png","","","complex"
"","","","","","animation","13","339193","0.0-13.0","1920x1080","","15486.599999999977","65.87","img/238/2.5/0.5/bw/001.png","","","complex"
"","","","","","animation","14","352074","0.0-14.0","1920x1080","","12880.400000000023","37.17","img/238/4/1/bw/001.png","","","complex"
"","","","","","animation","15","361393","0.0-15.0","1920x1080","","9317.699999999953","24.87","img/117/4.5/2/bw/001.png","","","complex"
"","","","","","animation","16","373674","0.0-16.0","1920x1080","","12280","70.11","img/117/2.5/0.5/bw/001.png","","","complex"
"","","","","","animation","17","387969","0.0-17.0","1920x1080","","14294.800000000047","20.37","img/117/5.5/0.66667/bw/001.png","","","complex"
"","","","","","animation","18","402445","0.0-18.0","1920x1080","","14495","16.80","img/314/5.5/2/bw/001.png","","","complex"
"","","","","","animation","19","412877","0.0-19.0","1920x1080","","10431","25.66","img/238/4.5/0.66667/bw/001.png","","","complex"
"","","","","","animation","20","438997","0.0-20.0","1920x1080","","26119.599999999977","31.75","img/238/4.5/1/bw/001.png","","","complex"
"","","","","","animation","21","446445","0.0-21.0","1920x1080","","7446.5","43.39","img/314/4/2/bw/001.png","","","complex"
"","","","","","animation","22","453989","0.0-22.0","1920x1080","","7543.599999999977","55.29","img/238/3.5/0.66667/bw/001.png","","","complex"
"","","","","","animation","23","467083","0.0-23.0","1920x1080","","13087.300000000047","58.60","img/314/3.5/1.5/bw/001.png","","","complex"
"","","","","","animation","24","481451","0.0-24.0","1920x1080","","14366.900000000023","59.13","img/117/3.5/1.5/bw/001.png","","","complex"
"","","","","","animation","25","498827","0.0-25.0","1920x1080","","17374.400000000023","19.97","img/238/4.5/2/bw/001.png","","","complex"
"","","","","","animation","26","512147","0.0-26.0","1920x1080","","13319.399999999907","56.75","img/238/3.5/1/bw/001.png","","","complex"
"","","","","","animation","27","519890","0.0-27.0","1920x1080","","7742.900000000023","30.42","img/314/5.5/0.66667/bw/001.png","","","complex"
"","","","","","animation","28","528738","0.0-28.0","1920x1080","","8847.5","33.73","img/117/5.5/0.5/bw/001.png","","","complex"
"","","","","","animation","29","538402","0.0-29.0","1920x1080","","9663","43.25","img/238/4/1.5/bw/001.png","","","complex"
"","","","","","animation","30","550843","0.0-30.0","1920x1080","","12439.699999999953","61","img/117/3.5/0.5/bw/001.png","","","complex"
"","","","","","animation","31","563722","0.0-31.0","1920x1080","","12878.599999999977","36.77","img/314/4.5/1.5/bw/001.png","","","complex"
"","","","","","animation","32","571642","0.0-32.0","1920x1080","","7918.599999999977","19.97","img/238/5.5/0.66667/bw/001.png","","","complex"
"","","","","","animation","33","582773","0.0-33.0","1920x1080","","11133.099999999977","61.24","img/314/3.5/2/bw/001.png","","","complex"
"","","","","","animation","34","597909","0.0-34.0","1920x1080","","15135.300000000047","82","img/314/2.5/0.5/bw/001.png","","","complex"
"","","","","","animation","35","605925","0.0-35.0","1920x1080","","8015.20000000007","52.91","img/238/4.5/0.5/bw/001.png","","","complex"
"","","","","","animation","36","618893","0.0-36.0","1920x1080","","12967.199999999953","72.35","img/117/2.5/0.66667/bw/001.png","","","complex"
"","","","","","animation","37","630309","0.0-37.0","1920x1080","","11414.599999999977","20.50","img/314/5.5/1/bw/001.png","","","complex"
"","","","","","animation","38","639811","0.0-38.0","1920x1080","","9495.29999999993","42.20","img/117/4/1/bw/001.png","","","complex"
"","","","","","animation","39","661315","0.0-39.0","1920x1080","","21503.199999999953","25.13","img/117/5.5/1/bw/001.png","","","complex"
"","","","","","animation","40","668371","0.0-40.0","1920x1080","","7055.199999999953","46.30","img/117/3.5/2/bw/001.png","","","complex"
"","","","","","animation","41","684547","0.0-41.0","1920x1080","","16175.29999999993","21.30","img/117/5.5/1.5/bw/001.png","","","complex"
"","","","","","animation","42","695770","0.0-42.0","1920x1080","","11223.099999999977","60.32","img/117/2.5/2/bw/001.png","","","complex"
"","","","","","animation","43","706617","0.0-43.0","1920x1080","","10846.599999999977","70.24","img/238/2.5/1/bw/001.png","","","complex"
"","","","","","animation","44","719107","0.0-44.0","1920x1080","","12488.800000000047","19.58","img/238/5.5/2/bw/001.png","","","complex"
"","","","","","animation","45","737418","0.0-45.0","1920x1080","","18309.800000000047","36.90","img/314/4.5/0.5/bw/001.png","","","complex"
"","","","","","animation","46","746618","0.0-46.0","1920x1080","","9199.099999999977","45.77","img/238/4/2/bw/001.png","","","complex"
"","","","","","animation","47","755636","0.0-47.0","1920x1080","","9015.199999999953","56.35","img/314/3.5/1/bw/001.png","","","complex"
"","","","","","animation","48","770493","0.0-48.0","1920x1080","","14855.20000000007","42.72","img/314/4/0.66667/bw/001.png","","","complex"
"","","","","","animation","49","781093","0.0-49.0","1920x1080","","10599.199999999953","46.30","img/117/4/0.5/bw/001.png","","","complex"
"","","","","","animation","50","790724","0.0-50.0","1920x1080","","9630.399999999907","45.11","img/238/4/0.66667/bw/001.png","","","complex"
"","","","","","animation","51","801188","0.0-51.0","1920x1080","","10462.800000000047","65.21","img/314/3.5/0.66667/bw/001.png","","","complex"
"","","","","","animation","52","816170","0.0-52.0","1920x1080","","14983.199999999953","65.21","img/238/2.5/2/bw/001.png","","","complex"
"","","","","","animation","53","830929","0.0-53.0","1920x1080","","14758.600000000093","72.22","img/238/2.5/0.66667/bw/001.png","","","complex"
"","","","","","animation","54","839458","0.0-54.0","1920x1080","","8528.199999999953","45.11","img/117/4/0.66667/bw/001.png","","","complex"
"","","","","","animation","55","849602","0.0-55.0","1920x1080","","10142.300000000047","25.13","img/238/5.5/0.5/bw/001.png","","","complex"
"","","","","","animation","56","860475","0.0-56.0","1920x1080","","10871.899999999907","70.37","img/117/2.5/1/bw/001.png","","","complex"
"","","","","","animation","57","868881","0.0-57.0","1920x1080","","8405","69.84","img/314/2.5/2/bw/001.png","","","complex"
"","","","","","animation","58","872675","0.0-58.0","1920x1080","","3792.3000000000466","54.10","img/314/3.5/0.5/bw/001.png","","","complex"
"","","","","","animation","59","879687","0.0-59.0","1920x1080","","7014.90000000014","51","img/314/4/0.5/bw/001.png","","","complex"
"","","","","","animation","60","890662","0.0-60.0","1920x1080","","10973.5","36.38","img/117/4.5/0.66667/bw/001.png","","","complex"
"","","","","","animation","61","911046","0.0-61.0","1920x1080","","20382.800000000047","52.51","img/238/3.5/2/bw/001.png","","","complex"
"","","","","","animation","62","917246","0.0-62.0","1920x1080","","6199","62.57","img/314/2.5/1.5/bw/001.png","","","complex"
"","","","","","animation","63","921654","0.0-63.0","1920x1080","","4406.799999999814","33.47","img/314/5.5/0.5/bw/001.png","","","complex"
"","","","","","animation","64","926222","0.0-64.0","1920x1080","","4567.5","51.98","img/238/3.5/0.5/bw/001.png","","","complex"
"","","","","","animation","65","940172","0.0-65.0","1920x1080","","13950.600000000093","61.64","img/117/2.5/1.5/bw/001.png","","","complex"
"","","","","","animation","66","947044","0.0-66.0","1920x1080","","6871.200000000186","26.19","img/117/4.5/1.5/bw/001.png","","","complex"
"","","","","","animation","67","953919","0.0-67.0","1920x1080","","6874.100000000093","68.39","img/314/2.5/1/bw/001.png","","","complex"
"","","","","","animation","68","962956","0.0-68.0","1920x1080","","9035.600000000093","52.78","img/117/3.5/1/bw/001.png","","","complex"
"","","","","","animation","69","975188","0.0-69.0","1920x1080","","12230.800000000047","46.43","img/117/4.5/1/bw/001.png","","","complex"
"","","","","","animation","70","983228","0.0-70.0","1920x1080","","8038.90000000014","44.31","img/117/4/1.5/bw/001.png","","","complex"
"","","","","","animation","71","992660","0.0-71.0","1920x1080","","9431","46.56","img/314/4/1/bw/001.png","","","complex"
"","","","","","animation","72","999046","0.0-72.0","1920x1080","","6390.600000000093","19.18","img/238/5.5/1.5/bw/001.png","","","complex"
"","","","","","animation","73","1012280","0.0-73.0","1920x1080","","13233.09999999986","31.75","img/314/4.5/1/bw/001.png","","","complex"
"","","","","","animation","74","1017270","0.0-74.0","1920x1080","","4989.199999999953","44.05","img/117/4/2/bw/001.png","","","complex"
"","","","","","animation","75","1020775","0.0-75.0","1920x1080","","3503.1999999999534","56.35","img/117/3.5/0.66667/bw/001.png","","","complex"
"","","","","","animation","76","1026255","0.0-76.0","1920x1080","","5478.90000000014","19.05","img/117/5.5/2/bw/001.png","","","complex"
"","","","","","animation","77","1038255","0.0-77.0","1920x1080","","11998.699999999953","37.43","img/314/4.5/2/bw/001.png","","","complex"
"","","","","","animation","78","1044198","0.0-78.0","1920x1080","","5942.699999999953","20.24","img/238/5.5/1/bw/001.png","","","complex"
"","","","","","animation","79","1054097","0.0-79.0","1920x1080","","9898.099999999744","61.64","img/238/2.5/1.5/bw/001.png","","","complex"
"","","","","","animation","80","1062277","0.0-80.0","1920x1080","","8181.100000000093","34.79","img/238/4.5/1.5/bw/001.png","","","complex"
"","","","","","animation","81","1066245","0.0-81.0","1920x1080","","3967.1999999997206","50.53","img/117/4.5/0.5/bw/001.png","","","complex"
"","","","","","html-button-response","82","1087965","0.0-82.0","1920x1080","","21718.400000000373","","<div class=""intro"">You are about to view a new series of animations.<br><br></div><div class=""intro"">You will evaluate them based on a different descriptor.<br><br></div><div class=""intro"">Move the slider to indicate how <strong style=""text-transform:capitalize"">NATURAL</strong> you find each animation.<br><br></div><div class=""intro"">0 = Least Natural<br></div><div class=""intro"">1 = Most Natural<br><br></div><div class=""intro"">Remember to use the <strong><em>entire range</em></strong> of the slider to make your ratings.<br></div><div class=""intro"">Please <strong><em>take your time</em></strong> and carefully consider each rating you make.<br><br></div>","0","",""
"","","","","","call-function","83","1087966","0.0-83.0","1920x1080","","","","","","",""
"","","","","","animation","84","1102740","0.0-84.0","1920x1080","","14773.30000000028","5.03","img/117/2.5/2/bw/001.png","","","natural"
"","","","","","animation","85","1108196","0.0-85.0","1920x1080","","5454.699999999721","26.46","img/238/4.5/0.5/bw/001.png","","","natural"
"","","","","","animation","86","1112268","0.0-86.0","1920x1080","","4071","66.40","img/117/4.5/2/bw/001.png","","","natural"
"","","","","","animation","87","1120559","0.0-87.0","1920x1080","","8287.19999999972","89.81","img/314/5.5/2/bw/001.png","","","natural"
"","","","","","animation","88","1132902","0.0-88.0","1920x1080","","12342.399999999907","35","img/238/3.5/0.66667/bw/001.png","","","natural"
"","","","","","animation","89","1147943","0.0-89.0","1920x1080","","15038.899999999907","72.35","img/117/3.5/1.5/bw/001.png","","","natural"
"","","","","","animation","90","1156982","0.0-90.0","1920x1080","","9038.599999999627","71.83","img/314/5.5/1/bw/001.png","","","natural"
"","","","","","animation","91","1165551","0.0-91.0","1920x1080","","8567.100000000093","42.72","img/238/4/2/bw/001.png","","","natural"
"","","","","","animation","92","1176149","0.0-92.0","1920x1080","","10595.399999999907","73","img/314/4.5/1/bw/001.png","","","natural"
"","","","","","animation","93","1180561","0.0-93.0","1920x1080","","4410.799999999814","61.51","img/314/4/1/bw/001.png","","","natural"
"","","","","","animation","94","1185716","0.0-94.0","1920x1080","","5153.899999999907","33.73","img/314/3.5/0.66667/bw/001.png","","","natural"
"","","","","","animation","95","1196841","0.0-95.0","1920x1080","","11123.30000000028","2.91","img/238/2.5/1.5/bw/001.png","","","natural"
"","","","","","animation","96","1209753","0.0-96.0","1920x1080","","12910.299999999814","3.44","img/238/2.5/2/bw/001.png","","","natural"
"","","","","","animation","97","1222949","0.0-97.0","1920x1080","","13194.69999999972","14.42","img/238/2.5/0.5/bw/001.png","","","natural"
"","","","","","animation","98","1228320","0.0-98.0","1920x1080","","5370.800000000279","66.40","img/238/4.5/1.5/bw/001.png","","","natural"
"","","","","","animation","99","1243347","0.0-99.0","1920x1080","","15027","63.76","img/238/4.5/2/bw/001.png","","","natural"
"","","","","","animation","100","1246536","0.0-100.0","1920x1080","","3187.8000000002794","23.68","img/314/4/0.5/bw/001.png","","","natural"
"","","","","","animation","101","1253383","0.0-101.0","1920x1080","","6846.600000000093","21.30","img/117/4/0.66667/bw/001.png","","","natural"
"","","","","","animation","102","1257840","0.0-102.0","1920x1080","","4455.200000000186","29.37","img/117/4/1.5/bw/001.png","","","natural"
"","","","","","animation","103","1261183","0.0-103.0","1920x1080","","3342.899999999907","16.40","img/314/3.5/0.5/bw/001.png","","","natural"
"","","","","","animation","104","1264951","0.0-104.0","1920x1080","","3766.899999999907","7.28","img/238/2.5/1/bw/001.png","","","natural"
"","","","","","animation","105","1268392","0.0-105.0","1920x1080","","3439","36.77","img/117/4.5/0.5/bw/001.png","","","natural"
"","","","","","animation","106","1278872","0.0-106.0","1920x1080","","10479.100000000093","93.39","img/314/5.5/1.5/bw/001.png","","","natural"
"","","","","","animation","107","1284720","0.0-107.0","1920x1080","","5846.899999999907","27.91","img/314/3.5/1/bw/001.png","","","natural"
"","","","","","animation","108","1290215","0.0-108.0","1920x1080","","5494.399999999907","77.51","img/238/5.5/0.5/bw/001.png","","","natural"
"","","","","","animation","109","1295302","0.0-109.0","1920x1080","","5087.299999999814","46.43","img/117/4.5/1/bw/001.png","","","natural"
"","","","","","animation","110","1300497","0.0-110.0","1920x1080","","5194.100000000093","34.92","img/238/4.5/0.66667/bw/001.png","","","natural"
"","","","","","animation","111","1306302","0.0-111.0","1920x1080","","5804.0999999996275","72.49","img/117/5.5/0.5/bw/001.png","","","natural"
"","","","","","animation","112","1313286","0.0-112.0","1920x1080","","6982.399999999907","28.84","img/238/3.5/2/bw/001.png","","","natural"
"","","","","","animation","113","1317774","0.0-113.0","1920x1080","","4486.199999999721","28.70","img/314/4/1.5/bw/001.png","","","natural"
"","","","","","animation","114","1325146","0.0-114.0","1920x1080","","7370.600000000093","1.19","img/117/2.5/0.66667/bw/001.png","","","natural"
"","","","","","animation","115","1329934","0.0-115.0","1920x1080","","4787.200000000186","68.52","img/117/4.5/1.5/bw/001.png","","","natural"
"","","","","","animation","116","1333966","0.0-116.0","1920x1080","","4030.9000000003725","3.17","img/314/2.5/1/bw/001.png","","","natural"
"","","","","","animation","117","1338182","0.0-117.0","1920x1080","","4214.600000000093","3.31","img/117/2.5/1.5/bw/001.png","","","natural"
"","","","","","animation","118","1346679","0.0-118.0","1920x1080","","8495.5","49.60","img/314/4/2/bw/001.png","","","natural"
"","","","","","animation","119","1353206","0.0-119.0","1920x1080","","6526.5999999996275","16.01","img/314/2.5/2/bw/001.png","","","natural"
"","","","","","animation","120","1358179","0.0-120.0","1920x1080","","4974.600000000093","20.77","img/238/4/0.5/bw/001.png","","","natural"
"","","","","","animation","121","1363676","0.0-121.0","1920x1080","","5496.200000000186","3.31","img/238/2.5/0.66667/bw/001.png","","","natural"
"","","","","","animation","122","1370560","0.0-122.0","1920x1080","","6883.199999999721","73.28","img/238/4.5/1/bw/001.png","","","natural"
"","","","","","animation","123","1375947","0.0-123.0","1920x1080","","5386","21.43","img/117/3.5/0.66667/bw/001.png","","","natural"
"","","","","","animation","124","1379747","0.0-124.0","1920x1080","","3798.600000000093","19.44","img/314/4/0.66667/bw/001.png","","","natural"
"","","","","","animation","125","1392259","0.0-125.0","1920x1080","","12510.600000000093","35","img/117/3.5/2/bw/001.png","","","natural"
"","","","","","animation","126","1404931","0.0-126.0","1920x1080","","12671.30000000028","23.54","img/117/3.5/1/bw/001.png","","","natural"
"","","","","","animation","127","1409131","0.0-127.0","1920x1080","","4198.899999999907","2.65","img/314/2.5/1.5/bw/001.png","","","natural"
"","","","","","animation","128","1413059","0.0-128.0","1920x1080","","3927.100000000093","19.05","img/117/4/0.5/bw/001.png","","","natural"
"","","","","","animation","129","1418071","0.0-129.0","1920x1080","","5007.299999999814","30","img/314/4.5/0.66667/bw/001.png","","","natural"
"","","","","","animation","130","1426175","0.0-130.0","1920x1080","","8103.199999999721","79.50","img/314/5.5/0.5/bw/001.png","","","natural"
"","","","","","animation","131","1432366","0.0-131.0","1920x1080","","6190.299999999814","7.14","img/117/3.5/0.5/bw/001.png","","","natural"
"","","","","","animation","132","1440919","0.0-132.0","1920x1080","","8550.5","65","img/238/4/1.5/bw/001.png","","","natural"
"","","","","","animation","133","1449351","0.0-133.0","1920x1080","","8431","27.25","img/117/4/2/bw/001.png","","","natural"
"","","","","","animation","134","1459296","0.0-134.0","1920x1080","","9944.30000000028","92.46","img/117/5.5/1/bw/001.png","","","natural"
"","","","","","animation","135","1476781","0.0-135.0","1920x1080","","17485.200000000186","98","img/238/5.5/1.5/bw/001.png","","","natural"
"","","","","","animation","136","1485165","0.0-136.0","1920x1080","","8382.5","32.54","img/314/4.5/0.5/bw/001.png","","","natural"
"","","","","","animation","137","1495869","0.0-137.0","1920x1080","","10703.19999999972","94.97","img/117/5.5/2/bw/001.png","","","natural"
"","","","","","animation","138","1499013","0.0-138.0","1920x1080","","3142.1999999997206","25.66","img/238/4/0.66667/bw/001.png","","","natural"
"","","","","","animation","139","1503917","0.0-139.0","1920x1080","","4903.399999999907","54.50","img/314/4.5/1.5/bw/001.png","","","natural"
"","","","","","animation","140","1507061","0.0-140.0","1920x1080","","3143.2000000001863","21.69","img/238/3.5/1.5/bw/001.png","","","natural"
"","","","","","animation","141","1515189","0.0-141.0","1920x1080","","8126.899999999907","90.87","img/314/4.5/2/bw/001.png","","","natural"
"","","","","","animation","142","1518685","0.0-142.0","1920x1080","","3494.399999999907","0","img/314/2.5/0.66667/bw/001.png","","","natural"
"","","","","","animation","143","1527765","0.0-143.0","1920x1080","","9078.899999999907","8.47","img/238/3.5/0.5/bw/001.png","","","natural"
"","","","","","animation","144","1538504","0.0-144.0","1920x1080","","10733.299999999814","41.40","img/117/4.5/0.66667/bw/001.png","","","natural"
"","","","","","animation","145","1540999","0.0-145.0","1920x1080","","2494.600000000093","3.97","img/314/2.5/0.5/bw/001.png","","","natural"
"","","","","","animation","146","1549752","0.0-146.0","1920x1080","","8751.19999999972","92","img/238/5.5/0.66667/bw/001.png","","","natural"
"","","","","","animation","147","1555680","0.0-147.0","1920x1080","","5927.399999999907","9.13","img/117/4/1/bw/001.png","","","natural"
"","","","","","animation","148","1568368","0.0-148.0","1920x1080","","12686.19999999972","15.08","img/238/3.5/1/bw/001.png","","","natural"
"","","","","","animation","149","1571168","0.0-149.0","1920x1080","","2799.0999999996275","3.57","img/117/2.5/1/bw/001.png","","","natural"
"","","","","","animation","150","1575147","0.0-150.0","1920x1080","","3977.7999999998137","24.07","img/314/3.5/2/bw/001.png","","","natural"
"","","","","","animation","151","1583640","0.0-151.0","1920x1080","","8491.599999999627","9.66","img/238/4/1/bw/001.png","","","natural"
"","","","","","animation","152","1592880","0.0-152.0","1920x1080","","9236.899999999907","98","img/314/5.5/0.66667/bw/001.png","","","natural"
"","","","","","animation","153","1597439","0.0-153.0","1920x1080","","4558.399999999907","16.93","img/314/3.5/1.5/bw/001.png","","","natural"
"","","","","","animation","154","1601119","0.0-154.0","1920x1080","","3679","100","img/238/5.5/1/bw/001.png","","","natural"
"","","","","","animation","155","1606951","0.0-155.0","1920x1080","","5830.5","2.38","img/117/2.5/0.5/bw/001.png","","","natural"
"","","","","","animation","156","1623799","0.0-156.0","1920x1080","","16846.600000000093","99","img/238/5.5/2/bw/001.png","","","natural"
"","","","","","animation","157","1628564","0.0-157.0","1920x1080","","4763.700000000186","48.81","img/117/5.5/0.66667/bw/001.png","","","natural"
"","","","","","animation","158","1632463","0.0-158.0","1920x1080","","3897.5999999996275","85.45","img/117/5.5/1.5/bw/001.png","","","natural"
"","","","","","html-button-response","159","1651463","0.0-159.0","1920x1080","","18998.69999999972","","<div class=""intro"">You are about to view a new series of animations.<br><br></div><div class=""intro"">You will evaluate them based on a different descriptor.<br><br></div><div class=""intro"">Move the slider to indicate how <strong style=""text-transform:capitalize"">APPEALING</strong> you find each animation.<br><br></div><div class=""intro"">0 = Least Appealing<br></div><div class=""intro"">1 = Most Appealing<br><br></div><div class=""intro"">Remember to use the <strong><em>entire range</em></strong> of the slider to make your ratings.<br></div><div class=""intro"">Please <strong><em>take your time</em></strong> and carefully consider each rating you make.<br><br></div>","0","",""
"","","","","","call-function","160","1651464","0.0-160.0","1920x1080","","","","","","",""
"","","","","","animation","161","1662117","0.0-161.0","1920x1080","","10648.80000000028","90.21","img/238/5.5/1.5/bw/001.png","","","appealing"
"","","","","","animation","162","1667267","0.0-162.0","1920x1080","","5149.200000000186","10.05","img/117/4.5/1/bw/001.png","","","appealing"
"","","","","","animation","163","1673523","0.0-163.0","1920x1080","","6255","20.24","img/238/4.5/1.5/bw/001.png","","","appealing"
"","","","","","animation","164","1681533","0.0-164.0","1920x1080","","8009.199999999721","29.76","img/314/4.5/2/bw/001.png","","","appealing"
"","","","","","animation","165","1685684","0.0-165.0","1920x1080","","4148.899999999907","0","img/314/2.5/1.5/bw/001.png","","","appealing"
"","","","","","animation","166","1690211","0.0-166.0","1920x1080","","4525.5","6.88","img/117/3.5/1/bw/001.png","","","appealing"
"","","","","","animation","167","1696184","0.0-167.0","1920x1080","","5971.799999999814","6.08","img/238/2.5/1/bw/001.png","","","appealing"
"","","","","","animation","168","1701843","0.0-168.0","1920x1080","","5657.100000000093","4.89","img/314/2.5/2/bw/001.png","","","appealing"
"","","","","","animation","169","1720669","0.0-169.0","1920x1080","","18829.899999999907","26","img/314/4/2/bw/001.png","","","appealing"
"","","","","","animation","170","1724653","0.0-170.0","1920x1080","","3982.7999999998137","16.93","img/238/4/0.5/bw/001.png","","","appealing"
"","","","","","animation","171","1733485","0.0-171.0","1920x1080","","8830.69999999972","35","img/117/4.5/2/bw/001.png","","","appealing"
"","","","","","animation","172","1739245","0.0-172.0","1920x1080","","5758.299999999814","90.08","img/238/5.5/0.66667/bw/001.png","","","appealing"
"","","","","","animation","173","1748621","0.0-173.0","1920x1080","","9375.399999999907","16.67","img/117/4/0.5/bw/001.png","","","appealing"
"","","","","","animation","174","1757261","0.0-174.0","1920x1080","","8638.5","0","img/314/2.5/0.66667/bw/001.png","","","appealing"
"","","","","","animation","175","1764549","0.0-175.0","1920x1080","","7284.4000000003725","62.96","img/238/4.5/1/bw/001.png","","","appealing"
"","","","","","animation","176","1790196","0.0-176.0","1920x1080","","25646.399999999907","90","img/314/5.5/1/bw/001.png","","","appealing"
"","","","","","animation","177","1797694","0.0-177.0","1920x1080","","7496","91.40","img/117/5.5/1.5/bw/001.png","","","appealing"
"","","","","","animation","178","1801204","0.0-178.0","1920x1080","","3508.7000000001863","8.47","img/238/3.5/1/bw/001.png","","","appealing"
"","","","","","animation","179","1810468","0.0-179.0","1920x1080","","9263.200000000186","17.99","img/314/4/1.5/bw/001.png","","","appealing"
"","","","","","animation","180","1822012","0.0-180.0","1920x1080","","11541.399999999907","31.22","img/117/4/1.5/bw/001.png","","","appealing"
"","","","","","animation","181","1826126","0.0-181.0","1920x1080","","4113.100000000093","94","img/314/5.5/2/bw/001.png","","","appealing"
"","","","","","animation","182","1831992","0.0-182.0","1920x1080","","5865.399999999907","1.72","img/238/2.5/2/bw/001.png","","","appealing"
"","","","","","animation","183","1838184","0.0-183.0","1920x1080","","6185.700000000186","0.13","img/314/2.5/0.5/bw/001.png","","","appealing"
"","","","","","animation","184","1843056","0.0-184.0","1920x1080","","4870.600000000093","25.13","img/238/4.5/0.66667/bw/001.png","","","appealing"
"","","","","","animation","185","1852330","0.0-185.0","1920x1080","","9272.299999999814","9.39","img/117/3.5/0.66667/bw/001.png","","","appealing"
"","","","","","animation","186","1855935","0.0-186.0","1920x1080","","3602.100000000093","12.83","img/314/4/1/bw/001.png","","","appealing"
"","","","","","animation","187","1860313","0.0-187.0","1920x1080","","4376.100000000093","48.15","img/238/4.5/2/bw/001.png","","","appealing"
"","","","","","animation","188","1864824","0.0-188.0","1920x1080","","4509.399999999907","87.96","img/238/5.5/2/bw/001.png","","","appealing"
"","","","","","animation","189","1870696","0.0-189.0","1920x1080","","5870.699999999721","43.25","img/117/4/2/bw/001.png","","","appealing"
"","","","","","animation","190","1877313","0.0-190.0","1920x1080","","6614.600000000093","48.68","img/117/4.5/1.5/bw/001.png","","","appealing"
"","","","","","animation","191","1893872","0.0-191.0","1920x1080","","16557","61","img/314/5.5/0.66667/bw/001.png","","","appealing"
"","","","","","animation","192","1898018","0.0-192.0","1920x1080","","4142.800000000279","-2.25","img/314/2.5/1/bw/001.png","","","appealing"
"","","","","","animation","193","1907786","0.0-193.0","1920x1080","","9767.299999999814","15","img/238/4/1/bw/001.png","","","appealing"
"","","","","","animation","194","1912116","0.0-194.0","1920x1080","","4325.899999999907","16.27","img/117/4/1/bw/001.png","","","appealing"
"","","","","","animation","195","1915738","0.0-195.0","1920x1080","","3621.399999999907","10.58","img/314/4/0.66667/bw/001.png","","","appealing"
"","","","","","animation","196","1919802","0.0-196.0","1920x1080","","4062.3000000002794","97","img/117/5.5/2/bw/001.png","","","appealing"
"","","","","","animation","197","1930290","0.0-197.0","1920x1080","","10486.400000000373","34.52","img/238/4/2/bw/001.png","","","appealing"
"","","","","","animation","198","1935099","0.0-198.0","1920x1080","","4807.399999999907","14.81","img/314/3.5/2/bw/001.png","","","appealing"
"","","","","","animation","199","1942932","0.0-199.0","1920x1080","","7831.600000000093","0.40","img/117/3.5/0.5/bw/001.png","","","appealing"
"","","","","","animation","200","1958891","0.0-200.0","1920x1080","","15956.100000000093","86","img/314/5.5/1.5/bw/001.png","","","appealing"
"","","","","","animation","201","1969019","0.0-201.0","1920x1080","","10126.19999999972","10.58","img/117/2.5/0.5/bw/001.png","","","appealing"
"","","","","","animation","202","1972491","0.0-202.0","1920x1080","","3470.7999999998137","26.06","img/314/4.5/0.66667/bw/001.png","","","appealing"
"","","","","","animation","203","1978243","0.0-203.0","1920x1080","","5751.299999999814","24.07","img/117/4/0.66667/bw/001.png","","","appealing"
"","","","","","animation","204","1986483","0.0-204.0","1920x1080","","8238.299999999814","70.77","img/117/5.5/0.5/bw/001.png","","","appealing"
"","","","","","animation","205","1993251","0.0-205.0","1920x1080","","6766","26.46","img/314/4.5/1/bw/001.png","","","appealing"
"","","","","","animation","206","1997019","0.0-206.0","1920x1080","","3766.6999999997206","81.88","img/238/5.5/0.5/bw/001.png","","","appealing"
"","","","","","animation","207","2004123","0.0-207.0","1920x1080","","7103.200000000186","14.42","img/117/3.5/1.5/bw/001.png","","","appealing"
"","","","","","animation","208","2017287","0.0-208.0","1920x1080","","13157.19999999972","17","img/314/4/0.5/bw/001.png","","","appealing"
"","","","","","animation","209","2020463","0.0-209.0","1920x1080","","3174.399999999907","4.37","img/238/3.5/0.5/bw/001.png","","","appealing"
"","","","","","animation","210","2023437","0.0-210.0","1920x1080","","2972.7000000001863","89.02","img/238/5.5/1/bw/001.png","","","appealing"
"","","","","","animation","211","2027007","0.0-211.0","1920x1080","","3568.5","42.20","img/238/4.5/0.5/bw/001.png","","","appealing"
"","","","","","animation","212","2030975","0.0-212.0","1920x1080","","3967.2000000001863","0","img/238/3.5/0.66667/bw/001.png","","","appealing"
"","","","","","animation","213","2036788","0.0-213.0","1920x1080","","5811.5","16.67","img/238/4/0.66667/bw/001.png","","","appealing"
"","","","","","animation","214","2045439","0.0-214.0","1920x1080","","8648.599999999627","77.65","img/117/5.5/1/bw/001.png","","","appealing"
"","","","","","animation","215","2052538","0.0-215.0","1920x1080","","7097.5","47.09","img/117/4.5/0.66667/bw/001.png","","","appealing"
"","","","","","animation","216","2055937","0.0-216.0","1920x1080","","3398.5","10.45","img/314/3.5/1/bw/001.png","","","appealing"
"","","","","","animation","217","2065039","0.0-217.0","1920x1080","","9100.599999999627","10.58","img/314/3.5/0.5/bw/001.png","","","appealing"
"","","","","","animation","218","2069175","0.0-218.0","1920x1080","","4134.700000000186","-2.65","img/117/2.5/1/bw/001.png","","","appealing"
"","","","","","animation","219","2076598","0.0-219.0","1920x1080","","7413.799999999814","0","img/238/2.5/0.66667/bw/001.png","","","appealing"
"","","","","","animation","220","2079995","0.0-220.0","1920x1080","","3395.100000000093","0.00","img/238/2.5/1.5/bw/001.png","","","appealing"
"","","","","","animation","221","2083871","0.0-221.0","1920x1080","","3874.4000000003725","17","img/117/4.5/0.5/bw/001.png","","","appealing"
"","","","","","animation","222","2090444","0.0-222.0","1920x1080","","6572.199999999721","-0.66","img/117/2.5/0.66667/bw/001.png","","","appealing"
"","","","","","animation","223","2098382","0.0-223.0","1920x1080","","7935.100000000093","37.04","img/238/4/1.5/bw/001.png","","","appealing"
"","","","","","animation","224","2101951","0.0-224.0","1920x1080","","3566.7000000001863","24.74","img/314/4.5/0.5/bw/001.png","","","appealing"
"","","","","","animation","225","2106344","0.0-225.0","1920x1080","","4392.300000000279","10.19","img/238/3.5/1.5/bw/001.png","","","appealing"
"","","","","","animation","226","2111551","0.0-226.0","1920x1080","","5204.799999999814","-6.08","img/117/2.5/1.5/bw/001.png","","","appealing"
"","","","","","animation","227","2118302","0.0-227.0","1920x1080","","6750","0","img/238/2.5/0.5/bw/001.png","","","appealing"
"","","","","","animation","228","2129078","0.0-228.0","1920x1080","","10773.700000000186","4.89","img/314/3.5/0.66667/bw/001.png","","","appealing"
"","","","","","animation","229","2132645","0.0-229.0","1920x1080","","3563.7000000001863","12.83","img/314/3.5/1.5/bw/001.png","","","appealing"
"","","","","","animation","230","2137274","0.0-230.0","1920x1080","","4631.800000000279","14.68","img/117/3.5/2/bw/001.png","","","appealing"
"","","","","","animation","231","2140140","0.0-231.0","1920x1080","","2865.5","83.33","img/314/5.5/0.5/bw/001.png","","","appealing"
"","","","","","animation","232","2143010","0.0-232.0","1920x1080","","2868.0999999996275","86.64","img/117/5.5/0.66667/bw/001.png","","","appealing"
"","","","","","animation","233","2149762","0.0-233.0","1920x1080","","6751.299999999814","51.06","img/314/4.5/1.5/bw/001.png","","","appealing"
"","","","","","animation","234","2154059","0.0-234.0","1920x1080","","4295.299999999814","3.17","img/117/2.5/2/bw/001.png","","","appealing"
"","","","","","animation","235","2159178","0.0-235.0","1920x1080","","5116.4000000003725","17.59","img/238/3.5/2/bw/001.png","","","appealing"
"","","","","","html-button-response","236","2184174","0.0-236.0","1920x1080","","24994.5","","<div class=""intro"">You are about to view a new series of animations.<br><br></div><div class=""intro"">You will evaluate them based on a different descriptor.<br><br></div><div class=""intro"">Move the slider to indicate how <strong style=""text-transform:capitalize"">INTERESTING</strong> you find each animation.<br><br></div><div class=""intro"">0 = Least Interesting<br></div><div class=""intro"">1 = Most Interesting<br><br></div><div class=""intro"">Remember to use the <strong><em>entire range</em></strong> of the slider to make your ratings.<br></div><div class=""intro"">Please <strong><em>take your time</em></strong> and carefully consider each rating you make.<br><br></div>","0","",""
"","","","","","call-function","237","2184178","0.0-237.0","1920x1080","","","","","","",""
"","","","","","animation","238","2189994","0.0-238.0","1920x1080","","5815.600000000093","52.38","img/117/4/1/bw/001.png","","","interesting"
"","","","","","animation","239","2194978","0.0-239.0","1920x1080","","4982.899999999907","69.31","img/238/5.5/1/bw/001.png","","","interesting"
"","","","","","animation","240","2201120","0.0-240.0","1920x1080","","6133.899999999907","25.66","img/238/2.5/0.66667/bw/001.png","","","interesting"
"","","","","","animation","241","2213720","0.0-241.0","1920x1080","","12598.69999999972","26.19","img/314/2.5/0.5/bw/001.png","","","interesting"
"","","","","","animation","242","2218663","0.0-242.0","1920x1080","","4942.299999999814","58.47","img/117/4.5/0.5/bw/001.png","","","interesting"
"","","","","","animation","243","2224535","0.0-243.0","1920x1080","","5870.799999999814","66.14","img/238/5.5/0.66667/bw/001.png","","","interesting"
"","","","","","animation","244","2233136","0.0-244.0","1920x1080","","8599","15.74","img/117/3.5/1/bw/001.png","","","interesting"
"","","","","","animation","245","2241087","0.0-245.0","1920x1080","","7950.5","35.98","img/238/4.5/0.5/bw/001.png","","","interesting"
"","","","","","animation","246","2247647","0.0-246.0","1920x1080","","6557.899999999907","19.71","img/314/2.5/2/bw/001.png","","","interesting"
"","","","","","animation","247","2257857","0.0-247.0","1920x1080","","10214.799999999814","90","img/314/5.5/0.66667/bw/001.png","","","interesting"
"","","","","","animation","248","2265906","0.0-248.0","1920x1080","","8047.200000000186","49.34","img/314/3.5/1.5/bw/001.png","","","interesting"
"","","","","","animation","249","2272690","0.0-249.0","1920x1080","","6782.299999999814","45.90","img/238/3.5/0.5/bw/001.png","","","interesting"
"","","","","","animation","250","2277897","0.0-250.0","1920x1080","","5206.299999999814","71.56","img/238/4.5/1.5/bw/001.png","","","interesting"
"","","","","","animation","251","2316666","0.0-251.0","1920x1080","","38766.10000000009","62.43","img/238/3.5/0.66667/bw/001.png","","","interesting"
"","","","","","animation","252","2323925","0.0-252.0","1920x1080","","7258.199999999721","79.23","img/117/3.5/2/bw/001.png","","","interesting"
"","","","","","animation","253","2327273","0.0-253.0","1920x1080","","3346.899999999907","23.28","img/314/3.5/0.5/bw/001.png","","","interesting"
"","","","","","animation","254","2333957","0.0-254.0","1920x1080","","6682.100000000093","82.80","img/314/5.5/0.5/bw/001.png","","","interesting"
"","","","","","animation","255","2339562","0.0-255.0","1920x1080","","5604.299999999814","84.52","img/117/5.5/0.66667/bw/001.png","","","interesting"
"","","","","","animation","256","2342594","0.0-256.0","1920x1080","","3030.1999999997206","33.47","img/238/4/1.5/bw/001.png","","","interesting"
"","","","","","animation","257","2347298","0.0-257.0","1920x1080","","4702.899999999907","16.80","img/314/4/0.5/bw/001.png","","","interesting"
"","","","","","animation","258","2360973","0.0-258.0","1920x1080","","13673.5","74.60","img/117/5.5/1/bw/001.png","","","interesting"
"","","","","","animation","259","2376139","0.0-259.0","1920x1080","","15164.200000000186","89.15","img/238/4.5/2/bw/001.png","","","interesting"
"","","","","","animation","260","2382740","0.0-260.0","1920x1080","","6598.800000000279","45","img/117/4/0.5/bw/001.png","","","interesting"
"","","","","","animation","261","2385906","0.0-261.0","1920x1080","","3164.899999999907","9.26","img/238/2.5/2/bw/001.png","","","interesting"
"","","","","","animation","262","2392089","0.0-262.0","1920x1080","","6182.100000000093","26.59","img/314/4/1/bw/001.png","","","interesting"
"","","","","","animation","263","2400356","0.0-263.0","1920x1080","","8265.5","52","img/238/4/0.5/bw/001.png","","","interesting"
"","","","","","animation","264","2404825","0.0-264.0","1920x1080","","4467.200000000186","44.71","img/314/3.5/0.66667/bw/001.png","","","interesting"
"","","","","","animation","265","2414423","0.0-265.0","1920x1080","","9595.899999999907","61.51","img/314/4.5/0.5/bw/001.png","","","interesting"
"","","","","","animation","266","2422404","0.0-266.0","1920x1080","","7980.199999999721","88.89","img/238/5.5/0.5/bw/001.png","","","interesting"
"","","","","","animation","267","2427740","0.0-267.0","1920x1080","","5333.299999999814","18.65","img/238/3.5/1/bw/001.png","","","interesting"
"","","","","","animation","268","2451562","0.0-268.0","1920x1080","","23814.5","95","img/238/5.5/2/bw/001.png","","","interesting"
"","","","","","animation","269","2469304","0.0-269.0","1920x1080","","17737.700000000186","96","img/314/5.5/1/bw/001.png","","","interesting"
"","","","","","animation","270","2473696","0.0-270.0","1920x1080","","4390","21.69","img/238/4/0.66667/bw/001.png","","","interesting"
"","","","","","animation","271","2476987","0.0-271.0","1920x1080","","3289.8000000002794","4.37","img/238/2.5/1.5/bw/001.png","","","interesting"
"","","","","","animation","272","2490779","0.0-272.0","1920x1080","","13790.30000000028","80.82","img/117/5.5/2/bw/001.png","","","interesting"
"","","","","","animation","273","2494680","0.0-273.0","1920x1080","","3900.2000000001863","4.23","img/117/2.5/2/bw/001.png","","","interesting"
"","","","","","animation","274","2498757","0.0-274.0","1920x1080","","4084.2000000001863","2.12","img/314/2.5/1/bw/001.png","","","interesting"
"","","","","","animation","275","2502559","0.0-275.0","1920x1080","","3800.600000000093","22.49","img/238/4/1/bw/001.png","","","interesting"
"","","","","","animation","276","2510440","0.0-276.0","1920x1080","","7879.600000000093","37.70","img/238/4.5/0.66667/bw/001.png","","","interesting"
"","","","","","animation","277","2513295","0.0-277.0","1920x1080","","2852.5","43.92","img/314/3.5/2/bw/001.png","","","interesting"
"","","","","","animation","278","2516870","0.0-278.0","1920x1080","","3574.100000000093","45.24","img/238/3.5/2/bw/001.png","","","interesting"
"","","","","","animation","279","2520290","0.0-279.0","1920x1080","","3418.2000000001863","2.91","img/117/2.5/1.5/bw/001.png","","","interesting"
"","","","","","animation","280","2529737","0.0-280.0","1920x1080","","9445.299999999814","34","img/117/4/2/bw/001.png","","","interesting"
"","","","","","animation","281","2533471","0.0-281.0","1920x1080","","3733.100000000093","49.87","img/314/4.5/1/bw/001.png","","","interesting"
"","","","","","animation","282","2539703","0.0-282.0","1920x1080","","6231","50.26","img/117/4.5/0.66667/bw/001.png","","","interesting"
"","","","","","animation","283","2544655","0.0-283.0","1920x1080","","4950.200000000186","52.51","img/314/4/2/bw/001.png","","","interesting"
"","","","","","animation","284","2549887","0.0-284.0","1920x1080","","5230.5","63.76","img/314/4.5/2/bw/001.png","","","interesting"
"","","","","","animation","285","2554503","0.0-285.0","1920x1080","","4615.100000000093","59.92","img/238/4.5/1/bw/001.png","","","interesting"
"","","","","","animation","286","2558805","0.0-286.0","1920x1080","","4298.799999999814","-4.50","img/314/2.5/0.66667/bw/001.png","","","interesting"
"","","","","","animation","287","2562057","0.0-287.0","1920x1080","","3249.399999999907","9.66","img/238/3.5/1.5/bw/001.png","","","interesting"
"","","","","","animation","288","2565889","0.0-288.0","1920x1080","","3830.5","-3.84","img/117/2.5/0.5/bw/001.png","","","interesting"
"","","","","","animation","289","2570545","0.0-289.0","1920x1080","","4654.399999999907","82.28","img/117/5.5/0.5/bw/001.png","","","interesting"
"","","","","","animation","290","2575410","0.0-290.0","1920x1080","","4862.700000000186","24.34","img/314/4/0.66667/bw/001.png","","","interesting"
"","","","","","animation","291","2579961","0.0-291.0","1920x1080","","4549.299999999814","-1.72","img/117/2.5/1/bw/001.png","","","interesting"
"","","","","","animation","292","2585256","0.0-292.0","1920x1080","","5292.600000000093","31.35","img/117/3.5/1.5/bw/001.png","","","interesting"
"","","","","","animation","293","2590655","0.0-293.0","1920x1080","","5398.100000000093","1.72","img/314/2.5/1.5/bw/001.png","","","interesting"
"","","","","","animation","294","2608505","0.0-294.0","1920x1080","","17848","96","img/314/5.5/1.5/bw/001.png","","","interesting"
"","","","","","animation","295","2620263","0.0-295.0","1920x1080","","11756.100000000093","100.66","img/117/5.5/1.5/bw/001.png","","","interesting"
"","","","","","animation","296","2625759","0.0-296.0","1920x1080","","5492.800000000279","12","img/117/3.5/0.5/bw/001.png","","","interesting"
"","","","","","animation","297","2629903","0.0-297.0","1920x1080","","4142.399999999907","-8.47","img/117/2.5/0.66667/bw/001.png","","","interesting"
"","","","","","animation","298","2639607","0.0-298.0","1920x1080","","9701.69999999972","61","img/314/4.5/1.5/bw/001.png","","","interesting"
"","","","","","animation","299","2642639","0.0-299.0","1920x1080","","3030.399999999907","26.85","img/314/3.5/1/bw/001.png","","","interesting"
"","","","","","animation","300","2651575","0.0-300.0","1920x1080","","8935.200000000186","55.29","img/117/4.5/1/bw/001.png","","","interesting"
"","","","","","animation","301","2657120","0.0-301.0","1920x1080","","5543.300000000279","54.89","img/314/4/1.5/bw/001.png","","","interesting"
"","","","","","animation","302","2660304","0.0-302.0","1920x1080","","3182.7000000001863","-1.85","img/238/2.5/0.5/bw/001.png","","","interesting"
"","","","","","animation","303","2664543","0.0-303.0","1920x1080","","4237.799999999814","7.67","img/117/3.5/0.66667/bw/001.png","","","interesting"
"","","","","","animation","304","2667927","0.0-304.0","1920x1080","","3381.7000000001863","11.64","img/117/4/0.66667/bw/001.png","","","interesting"
"","","","","","animation","305","2704064","0.0-305.0","1920x1080","","36126.200000000186","93","img/238/5.5/1.5/bw/001.png","","","interesting"
"","","","","","animation","306","2710649","0.0-306.0","1920x1080","","6580.699999999721","62","img/117/4.5/2/bw/001.png","","","interesting"
"","","","","","animation","307","2714496","0.0-307.0","1920x1080","","3845","55.95","img/117/4.5/1.5/bw/001.png","","","interesting"
"","","","","","animation","308","2721369","0.0-308.0","1920x1080","","6871.200000000186","51.98","img/238/4/2/bw/001.png","","","interesting"
"","","","","","animation","309","2724584","0.0-309.0","1920x1080","","3214.100000000093","-8.20","img/238/2.5/1/bw/001.png","","","interesting"
"","","","","","animation","310","2744531","0.0-310.0","1920x1080","","19952.900000000373","97","img/314/5.5/2/bw/001.png","","","interesting"
"","","","","","animation","311","2752307","0.0-311.0","1920x1080","","7772.299999999814","48.94","img/314/4.5/0.66667/bw/001.png","","","interesting"
"","","","","","animation","312","2757721","0.0-312.0","1920x1080","","5411.600000000093","47.75","img/117/4/1.5/bw/001.png","","","interesting"
"","","","","","html-button-response","313","2776209","0.0-313.0","1920x1080","","18486.30000000028","","<div class=""intro"">You are about to view a new series of animations.<br><br></div><div class=""intro"">You will evaluate them based on a different descriptor.<br><br></div><div class=""intro"">Move the slider to indicate how <strong style=""text-transform:capitalize"">RELAXING</strong> you find each animation.<br><br></div><div class=""intro"">0 = Least Relaxing<br></div><div class=""intro"">1 = Most Relaxing<br><br></div><div class=""intro"">Remember to use the <strong><em>entire range</em></strong> of the slider to make your ratings.<br></div><div class=""intro"">Please <strong><em>take your time</em></strong> and carefully consider each rating you make.<br><br></div>","0","",""
"","","","","","call-function","314","2776211","0.0-314.0","1920x1080","","","","","","",""
"","","","","","animation","315","2785543","0.0-315.0","1920x1080","","9331.600000000093","71.83","img/314/5.5/1/bw/001.png","","","relaxing"
"","","","","","animation","316","2791328","0.0-316.0","1920x1080","","5782","16.67","img/117/3.5/2/bw/001.png","","","relaxing"
"","","","","","animation","317","2795071","0.0-317.0","1920x1080","","3741.2999999998137","8.86","img/314/4/1/bw/001.png","","","relaxing"
"","","","","","animation","318","2798321","0.0-318.0","1920x1080","","3247.7000000001863","9.13","img/238/4.5/0.5/bw/001.png","","","relaxing"
"","","","","","animation","319","2805010","0.0-319.0","1920x1080","","6687.300000000279","82.28","img/117/5.5/1.5/bw/001.png","","","relaxing"
"","","","","","animation","320","2809371","0.0-320.0","1920x1080","","4359.5","56.61","img/314/4.5/2/bw/001.png","","","relaxing"
"","","","","","animation","321","2812426","0.0-321.0","1920x1080","","3052.7000000001863","-1.19","img/117/2.5/0.66667/bw/001.png","","","relaxing"
"","","","","","animation","322","2815208","0.0-322.0","1920x1080","","2779.600000000093","-0.53","img/314/2.5/1.5/bw/001.png","","","relaxing"
"","","","","","animation","323","2818944","0.0-323.0","1920x1080","","3734.7000000001863","3.84","img/238/4/0.5/bw/001.png","","","relaxing"
"","","","","","animation","324","2825111","0.0-324.0","1920x1080","","6164.899999999907","6","img/117/3.5/0.66667/bw/001.png","","","relaxing"
"","","","","","animation","325","2838160","0.0-325.0","1920x1080","","13047.700000000186","98","img/238/5.5/2/bw/001.png","","","relaxing"
"","","","","","animation","326","2841597","0.0-326.0","1920x1080","","3434","45.77","img/238/4/2/bw/001.png","","","relaxing"
"","","","","","animation","327","2844178","0.0-327.0","1920x1080","","2578.9000000003725","-3.97","img/314/2.5/0.5/bw/001.png","","","relaxing"
"","","","","","animation","328","2848408","0.0-328.0","1920x1080","","4229","9.92","img/117/4/1.5/bw/001.png","","","relaxing"
"","","","","","animation","329","2857344","0.0-329.0","1920x1080","","8934.100000000093","8.47","img/117/3.5/0.5/bw/001.png","","","relaxing"
"","","","","","animation","330","2860124","0.0-330.0","1920x1080","","2777.7999999998137","8.60","img/238/3.5/0.66667/bw/001.png","","","relaxing"
"","","","","","animation","331","2865528","0.0-331.0","1920x1080","","5403.299999999814","76.85","img/238/5.5/0.66667/bw/001.png","","","relaxing"
"","","","","","animation","332","2867889","0.0-332.0","1920x1080","","2359","-2.38","img/238/2.5/0.5/bw/001.png","","","relaxing"
"","","","","","animation","333","2874888","0.0-333.0","1920x1080","","6995.800000000279","55","img/314/4.5/1.5/bw/001.png","","","relaxing"
"","","","","","animation","334","2877861","0.0-334.0","1920x1080","","2971.2999999998137","-2.91","img/117/2.5/1/bw/001.png","","","relaxing"
"","","","","","animation","335","2879854","0.0-335.0","1920x1080","","1992","4.50","img/117/4/0.5/bw/001.png","","","relaxing"
"","","","","","animation","336","2883472","0.0-336.0","1920x1080","","3616.600000000093","3.57","img/238/3.5/0.5/bw/001.png","","","relaxing"
"","","","","","animation","337","2885913","0.0-337.0","1920x1080","","2439.899999999907","-4.76","img/238/2.5/0.66667/bw/001.png","","","relaxing"
"","","","","","animation","338","2888826","0.0-338.0","1920x1080","","2911.899999999907","5.03","img/314/3.5/0.5/bw/001.png","","","relaxing"
"","","","","","animation","339","2900649","0.0-339.0","1920x1080","","11820.100000000093","48","img/117/3.5/1.5/bw/001.png","","","relaxing"
"","","","","","animation","340","2904645","0.0-340.0","1920x1080","","3993.899999999907","47.75","img/314/4.5/0.66667/bw/001.png","","","relaxing"
"","","","","","animation","341","2909105","0.0-341.0","1920x1080","","4458","75.00","img/314/5.5/0.66667/bw/001.png","","","relaxing"
"","","","","","animation","342","2912144","0.0-342.0","1920x1080","","3037.2999999998137","56.08","img/238/4.5/1.5/bw/001.png","","","relaxing"
"","","","","","animation","343","2930921","0.0-343.0","1920x1080","","18776","95","img/314/5.5/2/bw/001.png","","","relaxing"
"","","","","","animation","344","2937128","0.0-344.0","1920x1080","","6205.299999999814","14.95","img/314/3.5/1/bw/001.png","","","relaxing"
"","","","","","animation","345","2939204","0.0-345.0","1920x1080","","2074.6999999997206","18.52","img/117/4.5/0.66667/bw/001.png","","","relaxing"
"","","","","","animation","346","2947030","0.0-346.0","1920x1080","","7825","25.00","img/117/4.5/1/bw/001.png","","","relaxing"
"","","","","","animation","347","2952001","0.0-347.0","1920x1080","","4967","15","img/314/4/2/bw/001.png","","","relaxing"
"","","","","","animation","348","2958624","0.0-348.0","1920x1080","","6619.899999999907","63.23","img/117/5.5/2/bw/001.png","","","relaxing"
"","","","","","animation","349","2967213","0.0-349.0","1920x1080","","8585.69999999972","0","img/314/2.5/1/bw/001.png","","","relaxing"
"","","","","","animation","350","2969822","0.0-350.0","1920x1080","","2606.5","18.39","img/314/4/0.66667/bw/001.png","","","relaxing"
"","","","","","animation","351","2972925","0.0-351.0","1920x1080","","3101.100000000093","-4.37","img/117/2.5/1.5/bw/001.png","","","relaxing"
"","","","","","animation","352","2976632","0.0-352.0","1920x1080","","3698.2000000001863","67.59","img/117/4.5/1.5/bw/001.png","","","relaxing"
"","","","","","animation","353","2980618","0.0-353.0","1920x1080","","3984.7000000001863","26.59","img/117/4/1/bw/001.png","","","relaxing"
"","","","","","animation","354","2983445","0.0-354.0","1920x1080","","2825.4000000003725","6.22","img/314/3.5/0.66667/bw/001.png","","","relaxing"
"","","","","","animation","355","2986335","0.0-355.0","1920x1080","","2888.899999999907","7.28","img/238/4/0.66667/bw/001.png","","","relaxing"
"","","","","","animation","356","2989002","0.0-356.0","1920x1080","","2665.7999999998137","-17.46","img/314/2.5/0.66667/bw/001.png","","","relaxing"
"","","","","","animation","357","2994853","0.0-357.0","1920x1080","","5849.100000000093","70.90","img/238/4.5/2/bw/001.png","","","relaxing"
"","","","","","animation","358","2998112","0.0-358.0","1920x1080","","3255.3000000002794","45.37","img/314/4.5/1/bw/001.png","","","relaxing"
"","","","","","animation","359","3002151","0.0-359.0","1920x1080","","4038.5","22.49","img/238/3.5/1/bw/001.png","","","relaxing"
"","","","","","animation","360","3006767","0.0-360.0","1920x1080","","4614","25.53","img/238/4/1/bw/001.png","","","relaxing"
"","","","","","animation","361","3010218","0.0-361.0","1920x1080","","3449.399999999907","-2.65","img/238/2.5/2/bw/001.png","","","relaxing"
"","","","","","animation","362","3015802","0.0-362.0","1920x1080","","5580.800000000279","-31.35","img/314/2.5/2/bw/001.png","","","relaxing"
"","","","","","animation","363","3022553","0.0-363.0","1920x1080","","6748.799999999814","-77.25","img/117/2.5/2/bw/001.png","","","relaxing"
"","","","","","animation","364","3031113","0.0-364.0","1920x1080","","8558.200000000186","11","img/314/4/0.5/bw/001.png","","","relaxing"
"","","","","","animation","365","3037839","0.0-365.0","1920x1080","","6734.300000000279","98","img/314/5.5/1.5/bw/001.png","","","relaxing"
"","","","","","animation","366","3045941","0.0-366.0","1920x1080","","8098.300000000279","89.29","img/238/5.5/1/bw/001.png","","","relaxing"
"","","","","","animation","367","3047804","0.0-367.0","1920x1080","","1861.2999999998137","59.26","img/238/4.5/1/bw/001.png","","","relaxing"
"","","","","","animation","368","3049840","0.0-368.0","1920x1080","","2034.1000000000931","13.62","img/314/3.5/1.5/bw/001.png","","","relaxing"
"","","","","","animation","369","3053727","0.0-369.0","1920x1080","","3885.399999999907","96","img/238/5.5/1.5/bw/001.png","","","relaxing"
"","","","","","animation","370","3056545","0.0-370.0","1920x1080","","2816","55.69","img/117/4.5/2/bw/001.png","","","relaxing"
"","","","","","animation","371","3060452","0.0-371.0","1920x1080","","3905.6999999997206","24.74","img/117/3.5/1/bw/001.png","","","relaxing"
"","","","","","animation","372","3063685","0.0-372.0","1920x1080","","3230.600000000093","16.80","img/117/4/2/bw/001.png","","","relaxing"
"","","","","","animation","373","3068303","0.0-373.0","1920x1080","","4617","60.45","img/117/5.5/0.5/bw/001.png","","","relaxing"
"","","","","","animation","374","3073669","0.0-374.0","1920x1080","","5364.5","60.05","img/314/5.5/0.5/bw/001.png","","","relaxing"
"","","","","","animation","375","3076020","0.0-375.0","1920x1080","","2349.7000000001863","31.35","img/117/4/0.66667/bw/001.png","","","relaxing"
"","","","","","animation","376","3082719","0.0-376.0","1920x1080","","6697.899999999907","78","img/117/5.5/0.66667/bw/001.png","","","relaxing"
"","","","","","animation","377","3086384","0.0-377.0","1920x1080","","3662.7999999998137","17.72","img/238/3.5/1.5/bw/001.png","","","relaxing"
"","","","","","animation","378","3088525","0.0-378.0","1920x1080","","2140.1999999997206","14.29","img/314/3.5/2/bw/001.png","","","relaxing"
"","","","","","animation","379","3091820","0.0-379.0","1920x1080","","3293.5","10.58","img/238/3.5/2/bw/001.png","","","relaxing"
"","","","","","animation","380","3097180","0.0-380.0","1920x1080","","5359.300000000279","36.24","img/238/4.5/0.66667/bw/001.png","","","relaxing"
"","","","","","animation","381","3100166","0.0-381.0","1920x1080","","2984.399999999907","-1.19","img/238/2.5/1.5/bw/001.png","","","relaxing"
"","","","","","animation","382","3103374","0.0-382.0","1920x1080","","3205.899999999907","-77.25","img/238/2.5/1/bw/001.png","","","relaxing"
"","","","","","animation","383","3110556","0.0-383.0","1920x1080","","7180.399999999907","79.37","img/238/5.5/0.5/bw/001.png","","","relaxing"
"","","","","","animation","384","3113508","0.0-384.0","1920x1080","","2949.9000000003725","40.48","img/314/4/1.5/bw/001.png","","","relaxing"
"","","","","","animation","385","3117603","0.0-385.0","1920x1080","","4094.100000000093","22.35","img/314/4.5/0.5/bw/001.png","","","relaxing"
"","","","","","animation","386","3126189","0.0-386.0","1920x1080","","8582.299999999814","88.10","img/117/5.5/1/bw/001.png","","","relaxing"
"","","","","","animation","387","3128943","0.0-387.0","1920x1080","","2751.2999999998137","43.65","img/238/4/1.5/bw/001.png","","","relaxing"
"","","","","","animation","388","3130899","0.0-388.0","1920x1080","","1955","38.62","img/117/4.5/0.5/bw/001.png","","","relaxing"
"","","","","","animation","389","3133803","0.0-389.0","1920x1080","","2902.7999999998137","-61.11","img/117/2.5/0.5/bw/001.png","","","relaxing"
"","","","","","html-button-response","390","3166350","0.0-390.0","1920x1080","","32534.799999999814","","<strong>Study Debriefing</strong><br><p class=""debrief""><strong>Background:</strong> The patterns you rated are called <em>fractals</em>. The term fractal describes a class of irregular curves or shapes for which any suitably chosen part is similar in shape to a given larger or smaller part when magnified or reduced to the same size. Fractal properties are found throughout the natural and manmade world. The series of animations you saw today displayed animated fractal patterns of a varying complexity.</p><p class=""debrief""><strong>Purpose of this study:</strong> We hope to better understand how the perception of static fractals differs from the perception of animated fractals, and how the speed of the animated patterns influences people&apos;s perception of them. Fractals allow us to study the perception of aesthetic properties (e.g. the perceived level of beauty in an image) without using recognizable content, which makes them an excellent tool for studying abstract aesthetic judgement.</p><p class=""debrief""><strong>Your part:</strong> Your participation has helped us to further understand how humans perceive these patterns across different levels of speed and complexity. This research with allow us to better understand how the visual system and brain process our ever-changing visual environments.<p class=""debrief""><strong>Feedback and Further information:</strong> If you have additional questions about this study, please feel free to ask the researcher, Nathan Gonzales-Hess at nhess @ uoregon.edu. If you have any questions concerning your rights as a research participant, please contact Research Compliance Services, 5237 University of Oregon, Eugene, OR 97403, 541-346-2510, or email researchCompliance @ uoregon.edu. You can also email the Human Subjects Coordinator for psychology and linguistics research at hscoord @ uoregon.edu. ","0","",""
"","","","","","html-button-response","391","3176245","0.0-391.0","1920x1080","","9890.399999999907","","Thank you for participating in this study. <br>Please click below to finish the experiment and submit your responses.<br><br>","0","",""
"true","","","","","fullscreen","392","3177253","0.0-392.0","1920x1080","12:44 18/10/2022","","","","","",""
