"success","timeout","failed_images","failed_audio","failed_video","trial_type","trial_index","time_elapsed","internal_node_id","resolution","timeStamp","rt","response","stimulus","button_pressed","value","descriptor"
"true","false","[]","[]","[]","preload","0","5919","0.0-0.0","1920x1080","","","","","","",""
"true","false","[]","[]","[]","preload","1","12045","0.0-1.0","1920x1080","","","","","","",""
"true","false","[]","[]","[]","preload","2","18036","0.0-2.0","1920x1080","","","","","","",""
"true","","","","","fullscreen","3","215435","0.0-3.0","1920x1080","11:26 4/11/2022","","","","","",""
"","","","","","survey-html-form","4","228770","0.0-4.0","1920x1080","","13331.799999999814","{""age"":""21"",""gender"":""Male""}","","","",""
"","","","","","html-button-response","5","295154","0.0-5.0","1920x1080","","66383.09999999963","","<div class=""complex"">You are going to see a series of animations.<br><br></div><div class=""complex"">Move the slider to indicate how <strong style=""text-transform:capitalize"">COMPLEX</strong> you find each animation.<br><br></div><div class=""complex"">0 = Least Complex<br></div><div class=""complex"">1 = Most Complex<br><br></div><div class=""complex"">Remember to use the <strong><em>entire range</em></strong> of the slider to make your ratings.<br></div><div class=""complex"">Please <strong><em>take your time</em></strong> and carefully consider each rating you make.<br><br></div><div class=""complex"">The study has five sections and will take about 45 minutes to complete.<br><br></div>","0","",""
"","","","","","call-function","6","295154","0.0-6.0","1920x1080","","","","","","",""
"","","","","","animation","7","315905","0.0-7.0","1920x1080","","20749.799999999814","50.26","img/314/3.5/1/bw/001.png","","","complex"
"","","","","","animation","8","326074","0.0-8.0","1920x1080","","10167.200000000186","25.13","img/238/5.5/2/bw/001.png","","","complex"
"","","","","","animation","9","339402","0.0-9.0","1920x1080","","13326.700000000186","30.42","img/314/5.5/1.5/bw/001.png","","","complex"
"","","","","","animation","10","347209","0.0-10.0","1920x1080","","7807.100000000093","54.89","img/238/4/0.5/bw/001.png","","","complex"
"","","","","","animation","11","366025","0.0-11.0","1920x1080","","18815.100000000093","65.34","img/117/2.5/1.5/bw/001.png","","","complex"
"","","","","","animation","12","371273","0.0-12.0","1920x1080","","5247.700000000186","68","img/238/2.5/1.5/bw/001.png","","","complex"
"","","","","","animation","13","378161","0.0-13.0","1920x1080","","6886.800000000279","70.24","img/117/2.5/1/bw/001.png","","","complex"
"","","","","","animation","14","386017","0.0-14.0","1920x1080","","7855.300000000279","75.00","img/238/2.5/2/bw/001.png","","","complex"
"","","","","","animation","15","396961","0.0-15.0","1920x1080","","10943.299999999814","22.35","img/117/5.5/0.66667/bw/001.png","","","complex"
"","","","","","animation","16","404033","0.0-16.0","1920x1080","","7071.300000000279","18.92","img/117/5.5/2/bw/001.png","","","complex"
"","","","","","animation","17","415426","0.0-17.0","1920x1080","","11391","44.05","img/238/3.5/1.5/bw/001.png","","","complex"
"","","","","","animation","18","419123","0.0-18.0","1920x1080","","3695.4000000003725","32.28","img/314/4.5/0.5/bw/001.png","","","complex"
"","","","","","animation","19","424922","0.0-19.0","1920x1080","","5799.100000000093","47.09","img/117/3.5/2/bw/001.png","","","complex"
"","","","","","animation","20","429147","0.0-20.0","1920x1080","","4223.300000000279","31.61","img/117/4.5/0.66667/bw/001.png","","","complex"
"","","","","","animation","21","434578","0.0-21.0","1920x1080","","5430.899999999907","41.67","img/117/3.5/0.5/bw/001.png","","","complex"
"","","","","","animation","22","443091","0.0-22.0","1920x1080","","8512.299999999814","80.82","img/117/2.5/0.5/bw/001.png","","","complex"
"","","","","","animation","23","454139","0.0-23.0","1920x1080","","11046.69999999972","35.58","img/117/4.5/1.5/bw/001.png","","","complex"
"","","","","","animation","24","459531","0.0-24.0","1920x1080","","5391","80.56","img/238/2.5/0.66667/bw/001.png","","","complex"
"","","","","","animation","25","475284","0.0-25.0","1920x1080","","15751.299999999814","30.29","img/238/4.5/1.5/bw/001.png","","","complex"
"","","","","","animation","26","479820","0.0-26.0","1920x1080","","4535.100000000093","46.03","img/117/4/0.5/bw/001.png","","","complex"
"","","","","","animation","27","490668","0.0-27.0","1920x1080","","10847.299999999814","17.06","img/238/5.5/1/bw/001.png","","","complex"
"","","","","","animation","28","503579","0.0-28.0","1920x1080","","12911","37.04","img/117/4.5/0.5/bw/001.png","","","complex"
"","","","","","animation","29","516388","0.0-29.0","1920x1080","","12807.600000000093","30.29","img/314/4/1/bw/001.png","","","complex"
"","","","","","animation","30","528027","0.0-30.0","1920x1080","","11638.599999999627","80","img/314/2.5/0.66667/bw/001.png","","","complex"
"","","","","","animation","31","534117","0.0-31.0","1920x1080","","6086.800000000279","85","img/314/2.5/1/bw/001.png","","","complex"
"","","","","","animation","32","546829","0.0-32.0","1920x1080","","12711","48.41","img/314/3.5/2/bw/001.png","","","complex"
"","","","","","animation","33","550669","0.0-33.0","1920x1080","","3839.2000000001863","50","img/314/3.5/1.5/bw/001.png","","","complex"
"","","","","","animation","34","558765","0.0-34.0","1920x1080","","8095.300000000279","34.79","img/117/4.5/2/bw/001.png","","","complex"
"","","","","","animation","35","568845","0.0-35.0","1920x1080","","10079.200000000186","33.20","img/238/4/1/bw/001.png","","","complex"
"","","","","","animation","36","579005","0.0-36.0","1920x1080","","10159","33","img/238/4.5/1/bw/001.png","","","complex"
"","","","","","animation","37","587989","0.0-37.0","1920x1080","","8983.399999999907","31","img/238/4.5/0.66667/bw/001.png","","","complex"
"","","","","","animation","38","592454","0.0-38.0","1920x1080","","4462.899999999907","61","img/117/3.5/0.66667/bw/001.png","","","complex"
"","","","","","animation","39","598502","0.0-39.0","1920x1080","","6047.700000000186","57.01","img/314/4/0.66667/bw/001.png","","","complex"
"","","","","","animation","40","607038","0.0-40.0","1920x1080","","8535.19999999972","70","img/314/3.5/0.5/bw/001.png","","","complex"
"","","","","","animation","41","614414","0.0-41.0","1920x1080","","7375","18.65","img/238/5.5/0.5/bw/001.png","","","complex"
"","","","","","animation","42","623382","0.0-42.0","1920x1080","","8967.19999999972","66.27","img/238/3.5/0.5/bw/001.png","","","complex"
"","","","","","animation","43","632229","0.0-43.0","1920x1080","","8846.399999999907","42","img/117/4.5/1/bw/001.png","","","complex"
"","","","","","animation","44","635822","0.0-44.0","1920x1080","","3590.600000000093","61.11","img/117/3.5/1/bw/001.png","","","complex"
"","","","","","animation","45","645430","0.0-45.0","1920x1080","","9606.600000000093","72.22","img/117/3.5/1.5/bw/001.png","","","complex"
"","","","","","animation","46","651568","0.0-46.0","1920x1080","","6135.199999999721","86","img/314/2.5/1.5/bw/001.png","","","complex"
"","","","","","animation","47","656472","0.0-47.0","1920x1080","","4903.199999999721","88.10","img/314/2.5/2/bw/001.png","","","complex"
"","","","","","animation","48","663296","0.0-48.0","1920x1080","","6822.600000000093","16.53","img/117/5.5/1/bw/001.png","","","complex"
"","","","","","animation","49","672529","0.0-49.0","1920x1080","","9232.299999999814","53.97","img/314/3.5/0.66667/bw/001.png","","","complex"
"","","","","","animation","50","678688","0.0-50.0","1920x1080","","6158.399999999907","76.72","img/238/2.5/1/bw/001.png","","","complex"
"","","","","","animation","51","685792","0.0-51.0","1920x1080","","7103.200000000186","16.67","img/117/5.5/0.5/bw/001.png","","","complex"
"","","","","","animation","52","697097","0.0-52.0","1920x1080","","11302.700000000186","15","img/238/5.5/0.66667/bw/001.png","","","complex"
"","","","","","animation","53","708736","0.0-53.0","1920x1080","","11638.599999999627","11.90","img/314/5.5/2/bw/001.png","","","complex"
"","","","","","animation","54","718384","0.0-54.0","1920x1080","","9647","34","img/238/4.5/2/bw/001.png","","","complex"
"","","","","","animation","55","722417","0.0-55.0","1920x1080","","4031","41.01","img/238/4/2/bw/001.png","","","complex"
"","","","","","animation","56","725505","0.0-56.0","1920x1080","","3087.1999999997206","44.84","img/314/4.5/1.5/bw/001.png","","","complex"
"","","","","","animation","57","731752","0.0-57.0","1920x1080","","6246.800000000279","78.44","img/117/2.5/2/bw/001.png","","","complex"
"","","","","","animation","58","749841","0.0-58.0","1920x1080","","18087.19999999972","21.69","img/117/5.5/1.5/bw/001.png","","","complex"
"","","","","","animation","59","765730","0.0-59.0","1920x1080","","15888.69999999972","76","img/238/2.5/0.5/bw/001.png","","","complex"
"","","","","","animation","60","774305","0.0-60.0","1920x1080","","8573.600000000093","62.17","img/117/4/1.5/bw/001.png","","","complex"
"","","","","","animation","61","789521","0.0-61.0","1920x1080","","15215","13","img/238/5.5/1.5/bw/001.png","","","complex"
"","","","","","animation","62","794563","0.0-62.0","1920x1080","","5041.399999999907","83.99","img/314/2.5/0.5/bw/001.png","","","complex"
"","","","","","animation","63","804364","0.0-63.0","1920x1080","","9799.30000000028","59.92","img/314/4/0.5/bw/001.png","","","complex"
"","","","","","animation","64","808873","0.0-64.0","1920x1080","","4506.399999999907","62.43","img/238/4/1.5/bw/001.png","","","complex"
"","","","","","animation","65","816705","0.0-65.0","1920x1080","","7831","52","img/314/4.5/0.66667/bw/001.png","","","complex"
"","","","","","animation","66","821857","0.0-66.0","1920x1080","","5151.299999999814","55.56","img/238/4/0.66667/bw/001.png","","","complex"
"","","","","","animation","67","831953","0.0-67.0","1920x1080","","10095","29.76","img/314/5.5/1/bw/001.png","","","complex"
"","","","","","animation","68","839209","0.0-68.0","1920x1080","","7254.899999999907","47.75","img/117/4/1/bw/001.png","","","complex"
"","","","","","animation","69","843337","0.0-69.0","1920x1080","","4127","74.47","img/117/2.5/0.66667/bw/001.png","","","complex"
"","","","","","animation","70","857964","0.0-70.0","1920x1080","","14625.599999999627","17","img/314/5.5/0.5/bw/001.png","","","complex"
"","","","","","animation","71","868849","0.0-71.0","1920x1080","","10883.80000000028","36.77","img/314/4/1.5/bw/001.png","","","complex"
"","","","","","animation","72","877969","0.0-72.0","1920x1080","","9118.799999999814","57","img/238/3.5/0.66667/bw/001.png","","","complex"
"","","","","","animation","73","881730","0.0-73.0","1920x1080","","3760.2000000001863","53.97","img/117/4/0.66667/bw/001.png","","","complex"
"","","","","","animation","74","885985","0.0-74.0","1920x1080","","4253.5","62.96","img/238/3.5/1/bw/001.png","","","complex"
"","","","","","animation","75","895985","0.0-75.0","1920x1080","","9999.399999999907","40.34","img/238/4.5/0.5/bw/001.png","","","complex"
"","","","","","animation","76","901785","0.0-76.0","1920x1080","","5798.600000000093","54.63","img/238/3.5/2/bw/001.png","","","complex"
"","","","","","animation","77","908073","0.0-77.0","1920x1080","","6287.399999999907","34.92","img/314/4.5/2/bw/001.png","","","complex"
"","","","","","animation","78","930283","0.0-78.0","1920x1080","","22207.700000000186","31.75","img/314/4.5/1/bw/001.png","","","complex"
"","","","","","animation","79","953345","0.0-79.0","1920x1080","","23061.100000000093","21","img/314/5.5/0.66667/bw/001.png","","","complex"
"","","","","","animation","80","977848","0.0-80.0","1920x1080","","24502","38.23","img/117/4/2/bw/001.png","","","complex"
"","","","","","animation","81","984305","0.0-81.0","1920x1080","","6454.399999999907","41","img/314/4/2/bw/001.png","","","complex"
"","","","","","html-button-response","82","1004297","0.0-82.0","1920x1080","","19990.900000000373","","<div class=""intro"">You are about to view a new series of animations.<br><br></div><div class=""intro"">You will evaluate them based on a different descriptor.<br><br></div><div class=""intro"">Move the slider to indicate how <strong style=""text-transform:capitalize"">INTERESTING</strong> you find each animation.<br><br></div><div class=""intro"">0 = Least Interesting<br></div><div class=""intro"">1 = Most Interesting<br><br></div><div class=""intro"">Remember to use the <strong><em>entire range</em></strong> of the slider to make your ratings.<br></div><div class=""intro"">Please <strong><em>take your time</em></strong> and carefully consider each rating you make.<br><br></div>","0","",""
"","","","","","call-function","83","1004298","0.0-83.0","1920x1080","","","","","","",""
"","","","","","animation","84","1032256","0.0-84.0","1920x1080","","27958.30000000028","53.97","img/117/4/1.5/bw/001.png","","","interesting"
"","","","","","animation","85","1049440","0.0-85.0","1920x1080","","17183.200000000186","79.89","img/314/2.5/1/bw/001.png","","","interesting"
"","","","","","animation","86","1061811","0.0-86.0","1920x1080","","12369.5","23.41","img/238/5.5/1/bw/001.png","","","interesting"
"","","","","","animation","87","1071008","0.0-87.0","1920x1080","","9198.5","81.88","img/117/2.5/0.5/bw/001.png","","","interesting"
"","","","","","animation","88","1083645","0.0-88.0","1920x1080","","12636.100000000093","25.66","img/117/5.5/0.66667/bw/001.png","","","interesting"
"","","","","","animation","89","1089925","0.0-89.0","1920x1080","","6279.799999999814","41","img/117/4.5/0.5/bw/001.png","","","interesting"
"","","","","","animation","90","1094924","0.0-90.0","1920x1080","","4997.700000000186","56.75","img/238/3.5/0.66667/bw/001.png","","","interesting"
"","","","","","animation","91","1099860","0.0-91.0","1920x1080","","4935.200000000186","74.60","img/238/2.5/1/bw/001.png","","","interesting"
"","","","","","animation","92","1103608","0.0-92.0","1920x1080","","3746.2000000001863","77.78","img/314/2.5/1.5/bw/001.png","","","interesting"
"","","","","","animation","93","1109511","0.0-93.0","1920x1080","","5902","47.62","img/314/4/1.5/bw/001.png","","","interesting"
"","","","","","animation","94","1116213","0.0-94.0","1920x1080","","6700.600000000093","50.40","img/314/4.5/1/bw/001.png","","","interesting"
"","","","","","animation","95","1125228","0.0-95.0","1920x1080","","9014.69999999972","27.38","img/117/5.5/0.5/bw/001.png","","","interesting"
"","","","","","animation","96","1133345","0.0-96.0","1920x1080","","8111.5","26.06","img/314/5.5/1/bw/001.png","","","interesting"
"","","","","","animation","97","1140864","0.0-97.0","1920x1080","","7518.100000000093","83.60","img/314/2.5/2/bw/001.png","","","interesting"
"","","","","","animation","98","1152185","0.0-98.0","1920x1080","","11319.399999999907","66","img/238/3.5/1.5/bw/001.png","","","interesting"
"","","","","","animation","99","1166537","0.0-99.0","1920x1080","","14350.600000000093","10.45","img/238/5.5/2/bw/001.png","","","interesting"
"","","","","","animation","100","1180633","0.0-100.0","1920x1080","","14093.600000000093","77.91","img/314/2.5/0.5/bw/001.png","","","interesting"
"","","","","","animation","101","1183444","0.0-101.0","1920x1080","","2810","78.17","img/238/2.5/0.5/bw/001.png","","","interesting"
"","","","","","animation","102","1197353","0.0-102.0","1920x1080","","13907.700000000186","28","img/314/4.5/0.5/bw/001.png","","","interesting"
"","","","","","animation","103","1203612","0.0-103.0","1920x1080","","6257.5","16.27","img/314/5.5/0.66667/bw/001.png","","","interesting"
"","","","","","animation","104","1213245","0.0-104.0","1920x1080","","9630.899999999907","22.88","img/238/4.5/2/bw/001.png","","","interesting"
"","","","","","animation","105","1222428","0.0-105.0","1920x1080","","9182.299999999814","33.86","img/117/4.5/2/bw/001.png","","","interesting"
"","","","","","animation","106","1233305","0.0-106.0","1920x1080","","10876.30000000028","12.96","img/314/5.5/1.5/bw/001.png","","","interesting"
"","","","","","animation","107","1242105","0.0-107.0","1920x1080","","8799","65.87","img/117/3.5/0.66667/bw/001.png","","","interesting"
"","","","","","animation","108","1250921","0.0-108.0","1920x1080","","8815.100000000093","58","img/238/4/0.5/bw/001.png","","","interesting"
"","","","","","animation","109","1267385","0.0-109.0","1920x1080","","16463.100000000093","42.33","img/238/4.5/1/bw/001.png","","","interesting"
"","","","","","animation","110","1284113","0.0-110.0","1920x1080","","16725.299999999814","73","img/314/3.5/1.5/bw/001.png","","","interesting"
"","","","","","animation","111","1290011","0.0-111.0","1920x1080","","5897.4000000003725","73.02","img/117/4/0.66667/bw/001.png","","","interesting"
"","","","","","animation","112","1302073","0.0-112.0","1920x1080","","12060.19999999972","61.11","img/238/3.5/2/bw/001.png","","","interesting"
"","","","","","animation","113","1310833","0.0-113.0","1920x1080","","8759.30000000028","28.97","img/117/5.5/1/bw/001.png","","","interesting"
"","","","","","animation","114","1323329","0.0-114.0","1920x1080","","12494.600000000093","57.28","img/117/2.5/1/bw/001.png","","","interesting"
"","","","","","animation","115","1367569","0.0-115.0","1920x1080","","44238.89999999991","81","img/238/4.5/0.66667/bw/001.png","","","interesting"
"","","","","","animation","116","1376860","0.0-116.0","1920x1080","","9289.19999999972","48.94","img/314/2.5/0.66667/bw/001.png","","","interesting"
"","","","","","animation","117","1404065","0.0-117.0","1920x1080","","27204.5","58","img/314/4/0.5/bw/001.png","","","interesting"
"","","","","","animation","118","1411234","0.0-118.0","1920x1080","","7166.899999999907","61","img/238/4/1.5/bw/001.png","","","interesting"
"","","","","","animation","119","1419401","0.0-119.0","1920x1080","","8166.600000000093","66.93","img/238/5.5/0.66667/bw/001.png","","","interesting"
"","","","","","animation","120","1423833","0.0-120.0","1920x1080","","4431","53.17","img/238/3.5/0.5/bw/001.png","","","interesting"
"","","","","","animation","121","1426953","0.0-121.0","1920x1080","","3118.600000000093","31.48","img/314/3.5/2/bw/001.png","","","interesting"
"","","","","","animation","122","1450411","0.0-122.0","1920x1080","","23455.69999999972","23.28","img/238/2.5/2/bw/001.png","","","interesting"
"","","","","","animation","123","1462578","0.0-123.0","1920x1080","","12166.099999999627","40.87","img/238/4/1/bw/001.png","","","interesting"
"","","","","","animation","124","1468730","0.0-124.0","1920x1080","","6150.5","57.28","img/117/4.5/0.66667/bw/001.png","","","interesting"
"","","","","","animation","125","1490955","0.0-125.0","1920x1080","","22223.299999999814","42","img/314/4.5/1.5/bw/001.png","","","interesting"
"","","","","","animation","126","1498084","0.0-126.0","1920x1080","","7127","76.59","img/238/5.5/0.5/bw/001.png","","","interesting"
"","","","","","animation","127","1505036","0.0-127.0","1920x1080","","6950.5999999996275","44","img/238/4/0.66667/bw/001.png","","","interesting"
"","","","","","animation","128","1507899","0.0-128.0","1920x1080","","2862.4000000003725","35.05","img/238/3.5/1/bw/001.png","","","interesting"
"","","","","","animation","129","1514524","0.0-129.0","1920x1080","","6623.0999999996275","34.13","img/117/3.5/0.5/bw/001.png","","","interesting"
"","","","","","animation","130","1524724","0.0-130.0","1920x1080","","10198.799999999814","29.63","img/117/4/0.5/bw/001.png","","","interesting"
"","","","","","animation","131","1530812","0.0-131.0","1920x1080","","6086.299999999814","47.88","img/238/4.5/0.5/bw/001.png","","","interesting"
"","","","","","animation","132","1540012","0.0-132.0","1920x1080","","9199","58.60","img/314/4.5/0.66667/bw/001.png","","","interesting"
"","","","","","animation","133","1547988","0.0-133.0","1920x1080","","7975","22.75","img/117/2.5/1.5/bw/001.png","","","interesting"
"","","","","","animation","134","1551381","0.0-134.0","1920x1080","","3390.600000000559","49.34","img/117/4.5/1.5/bw/001.png","","","interesting"
"","","","","","animation","135","1560933","0.0-135.0","1920x1080","","9551.200000000186","57.28","img/314/4/1/bw/001.png","","","interesting"
"","","","","","animation","136","1579205","0.0-136.0","1920x1080","","18271.5","38.10","img/117/3.5/2/bw/001.png","","","interesting"
"","","","","","animation","137","1607685","0.0-137.0","1920x1080","","28478.5","56.35","img/314/5.5/2/bw/001.png","","","interesting"
"","","","","","animation","138","1611270","0.0-138.0","1920x1080","","3583.2000000001863","45.11","img/314/4/2/bw/001.png","","","interesting"
"","","","","","animation","139","1617814","0.0-139.0","1920x1080","","6542.799999999814","23","img/117/2.5/0.66667/bw/001.png","","","interesting"
"","","","","","animation","140","1621565","0.0-140.0","1920x1080","","3750.9000000003725","39","img/238/4/2/bw/001.png","","","interesting"
"","","","","","animation","141","1644831","0.0-141.0","1920x1080","","23264.200000000186","57","img/238/5.5/1.5/bw/001.png","","","interesting"
"","","","","","animation","142","1658102","0.0-142.0","1920x1080","","13270.400000000373","83.60","img/314/4/0.66667/bw/001.png","","","interesting"
"","","","","","animation","143","1662790","0.0-143.0","1920x1080","","4686","70.90","img/314/3.5/1/bw/001.png","","","interesting"
"","","","","","animation","144","1670350","0.0-144.0","1920x1080","","7558","52","img/117/3.5/1.5/bw/001.png","","","interesting"
"","","","","","animation","145","1680320","0.0-145.0","1920x1080","","9967.299999999814","70.11","img/238/4.5/1.5/bw/001.png","","","interesting"
"","","","","","animation","146","1686272","0.0-146.0","1920x1080","","5951","57","img/117/4/2/bw/001.png","","","interesting"
"","","","","","animation","147","1691192","0.0-147.0","1920x1080","","4918.899999999441","42.20","img/314/3.5/0.5/bw/001.png","","","interesting"
"","","","","","animation","148","1704098","0.0-148.0","1920x1080","","12906","48","img/314/4.5/2/bw/001.png","","","interesting"
"","","","","","animation","149","1723608","0.0-149.0","1920x1080","","19508.400000000373","65.34","img/117/4/1/bw/001.png","","","interesting"
"","","","","","animation","150","1726832","0.0-150.0","1920x1080","","3222.5","24.87","img/117/2.5/2/bw/001.png","","","interesting"
"","","","","","animation","151","1731632","0.0-151.0","1920x1080","","4799.4000000003725","43","img/314/3.5/0.66667/bw/001.png","","","interesting"
"","","","","","animation","152","1734176","0.0-152.0","1920x1080","","2543","20.63","img/238/2.5/1.5/bw/001.png","","","interesting"
"","","","","","animation","153","1741065","0.0-153.0","1920x1080","","6888.200000000186","77.65","img/314/5.5/0.5/bw/001.png","","","interesting"
"","","","","","animation","154","1748132","0.0-154.0","1920x1080","","7065.799999999814","71","img/117/5.5/2/bw/001.png","","","interesting"
"","","","","","animation","155","1751760","0.0-155.0","1920x1080","","3626.7000000001863","28","img/238/2.5/0.66667/bw/001.png","","","interesting"
"","","","","","animation","156","1756266","0.0-156.0","1920x1080","","4504.200000000186","44","img/117/4.5/1/bw/001.png","","","interesting"
"","","","","","animation","157","1760953","0.0-157.0","1920x1080","","4686.5999999996275","57.41","img/117/5.5/1.5/bw/001.png","","","interesting"
"","","","","","animation","158","1764499","0.0-158.0","1920x1080","","3544.0999999996275","48.54","img/117/3.5/1/bw/001.png","","","interesting"
"","","","","","html-button-response","159","1843516","0.0-159.0","1920x1080","","79016.29999999981","","<div class=""intro"">You are about to view a new series of animations.<br><br></div><div class=""intro"">You will evaluate them based on a different descriptor.<br><br></div><div class=""intro"">Move the slider to indicate how <strong style=""text-transform:capitalize"">APPEALING</strong> you find each animation.<br><br></div><div class=""intro"">0 = Least Appealing<br></div><div class=""intro"">1 = Most Appealing<br><br></div><div class=""intro"">Remember to use the <strong><em>entire range</em></strong> of the slider to make your ratings.<br></div><div class=""intro"">Please <strong><em>take your time</em></strong> and carefully consider each rating you make.<br><br></div>","0","",""
"","","","","","call-function","160","1843521","0.0-160.0","1920x1080","","","","","","",""
"","","","","","animation","161","1863185","0.0-161.0","1920x1080","","19662","48.15","img/117/3.5/2/bw/001.png","","","appealing"
"","","","","","animation","162","1868594","0.0-162.0","1920x1080","","5406.199999999255","34.52","img/238/2.5/1.5/bw/001.png","","","appealing"
"","","","","","animation","163","1879625","0.0-163.0","1920x1080","","11029.799999999814","65.61","img/117/5.5/1.5/bw/001.png","","","appealing"
"","","","","","animation","164","1883921","0.0-164.0","1920x1080","","4295","59","img/117/4.5/1.5/bw/001.png","","","appealing"
"","","","","","animation","165","1886949","0.0-165.0","1920x1080","","3026.899999999441","44.84","img/238/4/2/bw/001.png","","","appealing"
"","","","","","animation","166","1891585","0.0-166.0","1920x1080","","4635","37.83","img/117/4/1/bw/001.png","","","appealing"
"","","","","","animation","167","1909649","0.0-167.0","1920x1080","","18063.200000000186","69.84","img/314/4.5/1.5/bw/001.png","","","appealing"
"","","","","","animation","168","1918194","0.0-168.0","1920x1080","","8542.900000000373","63","img/238/4/1.5/bw/001.png","","","appealing"
"","","","","","animation","169","1928116","0.0-169.0","1920x1080","","9921","54","img/238/3.5/0.66667/bw/001.png","","","appealing"
"","","","","","animation","170","1942217","0.0-170.0","1920x1080","","14100.799999999814","77","img/238/4.5/0.5/bw/001.png","","","appealing"
"","","","","","animation","171","1947690","0.0-171.0","1920x1080","","5469.799999999814","17.99","img/314/2.5/1.5/bw/001.png","","","appealing"
"","","","","","animation","172","1965649","0.0-172.0","1920x1080","","17957.199999999255","60","img/314/4.5/1/bw/001.png","","","appealing"
"","","","","","animation","173","1975955","0.0-173.0","1920x1080","","10303.200000000186","55.69","img/238/5.5/2/bw/001.png","","","appealing"
"","","","","","animation","174","1981307","0.0-174.0","1920x1080","","5350.5999999996275","14.55","img/238/2.5/0.66667/bw/001.png","","","appealing"
"","","","","","animation","175","1984923","0.0-175.0","1920x1080","","3614.0999999996275","23.28","img/238/3.5/1.5/bw/001.png","","","appealing"
"","","","","","animation","176","1989884","0.0-176.0","1920x1080","","4960","13","img/117/2.5/1/bw/001.png","","","appealing"
"","","","","","animation","177","2005771","0.0-177.0","1920x1080","","15886.099999999627","54","img/117/4.5/2/bw/001.png","","","appealing"
"","","","","","animation","178","2009307","0.0-178.0","1920x1080","","3534.7999999998137","37.30","img/314/3.5/0.5/bw/001.png","","","appealing"
"","","","","","animation","179","2016350","0.0-179.0","1920x1080","","7042.4000000003725","44.05","img/314/4/1.5/bw/001.png","","","appealing"
"","","","","","animation","180","2022843","0.0-180.0","1920x1080","","6491.5999999996275","27.65","img/117/3.5/0.5/bw/001.png","","","appealing"
"","","","","","animation","181","2040202","0.0-181.0","1920x1080","","17357.89999999944","56.35","img/117/5.5/2/bw/001.png","","","appealing"
"","","","","","animation","182","2044083","0.0-182.0","1920x1080","","3879.7999999998137","17.72","img/238/3.5/2/bw/001.png","","","appealing"
"","","","","","animation","183","2051490","0.0-183.0","1920x1080","","7406","36","img/117/4.5/0.66667/bw/001.png","","","appealing"
"","","","","","animation","184","2055275","0.0-184.0","1920x1080","","3781.7999999998137","12.43","img/117/2.5/0.66667/bw/001.png","","","appealing"
"","","","","","animation","185","2061754","0.0-185.0","1920x1080","","6478.4000000003725","32","img/117/4/0.66667/bw/001.png","","","appealing"
"","","","","","animation","186","2069986","0.0-186.0","1920x1080","","8231","82","img/238/5.5/0.5/bw/001.png","","","appealing"
"","","","","","animation","187","2081866","0.0-187.0","1920x1080","","11878.700000000186","74.21","img/117/5.5/1/bw/001.png","","","appealing"
"","","","","","animation","188","2088154","0.0-188.0","1920x1080","","6286.700000000186","14.42","img/238/2.5/2/bw/001.png","","","appealing"
"","","","","","animation","189","2092675","0.0-189.0","1920x1080","","4518.799999999814","23.54","img/314/4/0.66667/bw/001.png","","","appealing"
"","","","","","animation","190","2097586","0.0-190.0","1920x1080","","4910.5","32.28","img/238/4/0.66667/bw/001.png","","","appealing"
"","","","","","animation","191","2111486","0.0-191.0","1920x1080","","13899.200000000186","66.67","img/238/4.5/1.5/bw/001.png","","","appealing"
"","","","","","animation","192","2121466","0.0-192.0","1920x1080","","9978","64.02","img/238/5.5/1.5/bw/001.png","","","appealing"
"","","","","","animation","193","2124274","0.0-193.0","1920x1080","","2806.7999999998137","12.43","img/314/2.5/0.5/bw/001.png","","","appealing"
"","","","","","animation","194","2135171","0.0-194.0","1920x1080","","10895.099999999627","76","img/314/5.5/0.5/bw/001.png","","","appealing"
"","","","","","animation","195","2141366","0.0-195.0","1920x1080","","6194.299999999814","25.93","img/238/3.5/0.5/bw/001.png","","","appealing"
"","","","","","animation","196","2169891","0.0-196.0","1920x1080","","28523.200000000186","60.58","img/238/5.5/1/bw/001.png","","","appealing"
"","","","","","animation","197","2174443","0.0-197.0","1920x1080","","4550","65.34","img/117/5.5/0.66667/bw/001.png","","","appealing"
"","","","","","animation","198","2177323","0.0-198.0","1920x1080","","2879","25.53","img/314/3.5/1/bw/001.png","","","appealing"
"","","","","","animation","199","2180555","0.0-199.0","1920x1080","","3230.600000000559","19.84","img/314/3.5/1.5/bw/001.png","","","appealing"
"","","","","","animation","200","2192107","0.0-200.0","1920x1080","","11550.900000000373","41.80","img/314/4.5/2/bw/001.png","","","appealing"
"","","","","","animation","201","2195619","0.0-201.0","1920x1080","","3510.399999999441","10.85","img/238/2.5/1/bw/001.png","","","appealing"
"","","","","","animation","202","2200867","0.0-202.0","1920x1080","","5246.700000000186","25.79","img/117/3.5/0.66667/bw/001.png","","","appealing"
"","","","","","animation","203","2243367","0.0-203.0","1920x1080","","42498.10000000056","63.10","img/238/4.5/2/bw/001.png","","","appealing"
"","","","","","animation","204","2249956","0.0-204.0","1920x1080","","6588.100000000559","55.69","img/314/3.5/0.66667/bw/001.png","","","appealing"
"","","","","","animation","205","2257372","0.0-205.0","1920x1080","","7414.700000000186","54.23","img/314/4/0.5/bw/001.png","","","appealing"
"","","","","","animation","206","2264035","0.0-206.0","1920x1080","","6662.600000000559","58.20","img/314/4.5/0.66667/bw/001.png","","","appealing"
"","","","","","animation","207","2268588","0.0-207.0","1920x1080","","4551.4000000003725","16.14","img/117/2.5/0.5/bw/001.png","","","appealing"
"","","","","","animation","208","2274603","0.0-208.0","1920x1080","","6014.899999999441","30.42","img/117/4/0.5/bw/001.png","","","appealing"
"","","","","","animation","209","2290459","0.0-209.0","1920x1080","","15854.300000000745","50","img/117/4/1.5/bw/001.png","","","appealing"
"","","","","","animation","210","2296923","0.0-210.0","1920x1080","","6460.9000000003725","21.83","img/117/2.5/2/bw/001.png","","","appealing"
"","","","","","animation","211","2307467","0.0-211.0","1920x1080","","10542.200000000186","82.67","img/238/5.5/0.66667/bw/001.png","","","appealing"
"","","","","","animation","212","2322755","0.0-212.0","1920x1080","","15286.599999999627","68.25","img/117/5.5/0.5/bw/001.png","","","appealing"
"","","","","","animation","213","2365090","0.0-213.0","1920x1080","","42332.40000000037","44.71","img/117/4/2/bw/001.png","","","appealing"
"","","","","","animation","214","2389772","0.0-214.0","1920x1080","","24680.200000000186","48.41","img/314/4/2/bw/001.png","","","appealing"
"","","","","","animation","215","2402817","0.0-215.0","1920x1080","","13043.5","73","img/314/5.5/1/bw/001.png","","","appealing"
"","","","","","animation","216","2409550","0.0-216.0","1920x1080","","6731.9000000003725","26.32","img/117/3.5/1.5/bw/001.png","","","appealing"
"","","","","","animation","217","2418956","0.0-217.0","1920x1080","","9404.900000000373","66.14","img/314/5.5/2/bw/001.png","","","appealing"
"","","","","","animation","218","2426924","0.0-218.0","1920x1080","","7966.799999999814","39","img/117/4.5/0.5/bw/001.png","","","appealing"
"","","","","","animation","219","2432741","0.0-219.0","1920x1080","","5815.799999999814","23","img/314/3.5/2/bw/001.png","","","appealing"
"","","","","","animation","220","2439468","0.0-220.0","1920x1080","","6725.0999999996275","12.04","img/314/2.5/2/bw/001.png","","","appealing"
"","","","","","animation","221","2443276","0.0-221.0","1920x1080","","3807.2000000001863","8.86","img/238/2.5/0.5/bw/001.png","","","appealing"
"","","","","","animation","222","2447466","0.0-222.0","1920x1080","","4188.799999999814","29.63","img/238/3.5/1/bw/001.png","","","appealing"
"","","","","","animation","223","2461237","0.0-223.0","1920x1080","","13768.600000000559","41.14","img/314/4.5/0.5/bw/001.png","","","appealing"
"","","","","","animation","224","2480389","0.0-224.0","1920x1080","","19150.89999999944","54","img/117/3.5/1/bw/001.png","","","appealing"
"","","","","","animation","225","2485150","0.0-225.0","1920x1080","","4759.399999999441","21","img/117/2.5/1.5/bw/001.png","","","appealing"
"","","","","","animation","226","2492683","0.0-226.0","1920x1080","","7531.600000000559","73.15","img/314/5.5/1.5/bw/001.png","","","appealing"
"","","","","","animation","227","2502589","0.0-227.0","1920x1080","","9904.099999999627","58","img/238/4.5/1/bw/001.png","","","appealing"
"","","","","","animation","228","2511718","0.0-228.0","1920x1080","","9126.300000000745","40","img/314/4/1/bw/001.png","","","appealing"
"","","","","","animation","229","2517885","0.0-229.0","1920x1080","","6163.4000000003725","14.68","img/314/2.5/1/bw/001.png","","","appealing"
"","","","","","animation","230","2524086","0.0-230.0","1920x1080","","6199.9000000003725","61.77","img/238/4.5/0.66667/bw/001.png","","","appealing"
"","","","","","animation","231","2531102","0.0-231.0","1920x1080","","7014.299999999814","17","img/314/2.5/0.66667/bw/001.png","","","appealing"
"","","","","","animation","232","2539707","0.0-232.0","1920x1080","","8603.899999999441","46","img/238/4/1/bw/001.png","","","appealing"
"","","","","","animation","233","2546957","0.0-233.0","1920x1080","","7248.100000000559","52.91","img/117/4.5/1/bw/001.png","","","appealing"
"","","","","","animation","234","2553542","0.0-234.0","1920x1080","","6584.299999999814","61","img/238/4/0.5/bw/001.png","","","appealing"
"","","","","","animation","235","2560459","0.0-235.0","1920x1080","","6915.100000000559","74.74","img/314/5.5/0.66667/bw/001.png","","","appealing"
"","","","","","html-button-response","236","2582945","0.0-236.0","1920x1080","","22482.300000000745","","<div class=""intro"">You are about to view a new series of animations.<br><br></div><div class=""intro"">You will evaluate them based on a different descriptor.<br><br></div><div class=""intro"">Move the slider to indicate how <strong style=""text-transform:capitalize"">NATURAL</strong> you find each animation.<br><br></div><div class=""intro"">0 = Least Natural<br></div><div class=""intro"">1 = Most Natural<br><br></div><div class=""intro"">Remember to use the <strong><em>entire range</em></strong> of the slider to make your ratings.<br></div><div class=""intro"">Please <strong><em>take your time</em></strong> and carefully consider each rating you make.<br><br></div>","0","",""
"","","","","","call-function","237","2582948","0.0-237.0","1920x1080","","","","","","",""
"","","","","","animation","238","2611240","0.0-238.0","1920x1080","","28292.299999999814","14.55","img/238/2.5/0.66667/bw/001.png","","","natural"
"","","","","","animation","239","2625420","0.0-239.0","1920x1080","","14177.299999999814","85","img/314/5.5/0.5/bw/001.png","","","natural"
"","","","","","animation","240","2630943","0.0-240.0","1920x1080","","5522.200000000186","16.01","img/238/2.5/1.5/bw/001.png","","","natural"
"","","","","","animation","241","2634594","0.0-241.0","1920x1080","","3647.2000000001863","37.17","img/238/3.5/2/bw/001.png","","","natural"
"","","","","","animation","242","2644578","0.0-242.0","1920x1080","","9982.900000000373","86.38","img/117/5.5/1.5/bw/001.png","","","natural"
"","","","","","animation","243","2647746","0.0-243.0","1920x1080","","3166.899999999441","38.49","img/117/3.5/1/bw/001.png","","","natural"
"","","","","","animation","244","2655105","0.0-244.0","1920x1080","","7356.299999999814","48.02","img/117/4/1/bw/001.png","","","natural"
"","","","","","animation","245","2692892","0.0-245.0","1920x1080","","37783.89999999944","64.95","img/117/4.5/1.5/bw/001.png","","","natural"
"","","","","","animation","246","2706165","0.0-246.0","1920x1080","","13271.399999999441","89.02","img/238/5.5/1/bw/001.png","","","natural"
"","","","","","animation","247","2711296","0.0-247.0","1920x1080","","5129.399999999441","9","img/117/2.5/2/bw/001.png","","","natural"
"","","","","","animation","248","2718274","0.0-248.0","1920x1080","","6975.800000000745","34","img/238/3.5/1/bw/001.png","","","natural"
"","","","","","animation","249","2724507","0.0-249.0","1920x1080","","6232","22.35","img/314/3.5/1.5/bw/001.png","","","natural"
"","","","","","animation","250","2727007","0.0-250.0","1920x1080","","2497.7999999998137","13.62","img/117/3.5/1.5/bw/001.png","","","natural"
"","","","","","animation","251","2732125","0.0-251.0","1920x1080","","5116.800000000745","59.79","img/314/4/0.5/bw/001.png","","","natural"
"","","","","","animation","252","2735596","0.0-252.0","1920x1080","","3470.399999999441","53.84","img/117/3.5/0.5/bw/001.png","","","natural"
"","","","","","animation","253","2740092","0.0-253.0","1920x1080","","4495.0999999996275","57.54","img/117/4/1.5/bw/001.png","","","natural"
"","","","","","animation","254","2745308","0.0-254.0","1920x1080","","5214.799999999814","44.58","img/238/4/0.5/bw/001.png","","","natural"
"","","","","","animation","255","2750006","0.0-255.0","1920x1080","","4697.100000000559","64.55","img/314/4.5/1.5/bw/001.png","","","natural"
"","","","","","animation","256","2756692","0.0-256.0","1920x1080","","6684.5","86.11","img/314/5.5/0.66667/bw/001.png","","","natural"
"","","","","","animation","257","2766093","0.0-257.0","1920x1080","","9399.200000000186","87.57","img/117/5.5/1/bw/001.png","","","natural"
"","","","","","animation","258","2773673","0.0-258.0","1920x1080","","7579.100000000559","91.80","img/314/5.5/1/bw/001.png","","","natural"
"","","","","","animation","259","2782790","0.0-259.0","1920x1080","","9115.799999999814","95","img/238/5.5/2/bw/001.png","","","natural"
"","","","","","animation","260","2787640","0.0-260.0","1920x1080","","4847.799999999814","5.69","img/117/2.5/1/bw/001.png","","","natural"
"","","","","","animation","261","2790709","0.0-261.0","1920x1080","","3067.7999999998137","15.74","img/314/3.5/1/bw/001.png","","","natural"
"","","","","","animation","262","2800013","0.0-262.0","1920x1080","","9303.200000000186","61","img/238/4.5/1.5/bw/001.png","","","natural"
"","","","","","animation","263","2802413","0.0-263.0","1920x1080","","2398.7000000001863","44.05","img/238/3.5/0.5/bw/001.png","","","natural"
"","","","","","animation","264","2808076","0.0-264.0","1920x1080","","5662.700000000186","50.79","img/117/4.5/0.5/bw/001.png","","","natural"
"","","","","","animation","265","2811494","0.0-265.0","1920x1080","","3415.0999999996275","39.95","img/314/3.5/0.66667/bw/001.png","","","natural"
"","","","","","animation","266","2814975","0.0-266.0","1920x1080","","3479.5","36.38","img/314/4/0.66667/bw/001.png","","","natural"
"","","","","","animation","267","2817358","0.0-267.0","1920x1080","","2382.5999999996275","26.46","img/238/3.5/1.5/bw/001.png","","","natural"
"","","","","","animation","268","2821310","0.0-268.0","1920x1080","","3950.7000000001863","38","img/117/4.5/0.66667/bw/001.png","","","natural"
"","","","","","animation","269","2835861","0.0-269.0","1920x1080","","14550","8.47","img/117/2.5/1.5/bw/001.png","","","natural"
"","","","","","animation","270","2838474","0.0-270.0","1920x1080","","2611.399999999441","4.76","img/117/2.5/0.66667/bw/001.png","","","natural"
"","","","","","animation","271","2842393","0.0-271.0","1920x1080","","3917.7999999998137","2.78","img/314/2.5/1/bw/001.png","","","natural"
"","","","","","animation","272","2847949","0.0-272.0","1920x1080","","5553.299999999814","95","img/117/5.5/2/bw/001.png","","","natural"
"","","","","","animation","273","2857380","0.0-273.0","1920x1080","","9430","6","img/314/2.5/2/bw/001.png","","","natural"
"","","","","","animation","274","2866694","0.0-274.0","1920x1080","","9312.199999999255","59","img/238/4/0.66667/bw/001.png","","","natural"
"","","","","","animation","275","2871041","0.0-275.0","1920x1080","","4345.9000000003725","15.08","img/117/2.5/0.5/bw/001.png","","","natural"
"","","","","","animation","276","2877866","0.0-276.0","1920x1080","","6823.5","74","img/117/4/2/bw/001.png","","","natural"
"","","","","","animation","277","2881566","0.0-277.0","1920x1080","","3698.5","84.79","img/238/5.5/0.66667/bw/001.png","","","natural"
"","","","","","animation","278","2888127","0.0-278.0","1920x1080","","6559.800000000745","64","img/238/4/2/bw/001.png","","","natural"
"","","","","","animation","279","2897161","0.0-279.0","1920x1080","","9032","94","img/314/5.5/2/bw/001.png","","","natural"
"","","","","","animation","280","2903030","0.0-280.0","1920x1080","","5867.4000000003725","74.87","img/314/4/1/bw/001.png","","","natural"
"","","","","","animation","281","2909061","0.0-281.0","1920x1080","","6029.700000000186","61.24","img/314/4.5/0.66667/bw/001.png","","","natural"
"","","","","","animation","282","2913030","0.0-282.0","1920x1080","","3966.600000000559","51","img/238/4/1/bw/001.png","","","natural"
"","","","","","animation","283","2916479","0.0-283.0","1920x1080","","3446.9000000003725","37.96","img/117/3.5/2/bw/001.png","","","natural"
"","","","","","animation","284","2920061","0.0-284.0","1920x1080","","3581.2000000001863","66.67","img/117/5.5/0.5/bw/001.png","","","natural"
"","","","","","animation","285","2928324","0.0-285.0","1920x1080","","8261.599999999627","29.10","img/238/3.5/0.66667/bw/001.png","","","natural"
"","","","","","animation","286","2936966","0.0-286.0","1920x1080","","8639.200000000186","92","img/238/5.5/1.5/bw/001.png","","","natural"
"","","","","","animation","287","2941247","0.0-287.0","1920x1080","","4280","77","img/314/3.5/0.5/bw/001.png","","","natural"
"","","","","","animation","288","2950495","0.0-288.0","1920x1080","","9246.5","52.91","img/117/4/0.66667/bw/001.png","","","natural"
"","","","","","animation","289","2958079","0.0-289.0","1920x1080","","7583.200000000186","11.11","img/314/2.5/0.66667/bw/001.png","","","natural"
"","","","","","animation","290","2961485","0.0-290.0","1920x1080","","3404.7999999998137","8.07","img/314/2.5/0.5/bw/001.png","","","natural"
"","","","","","animation","291","2968582","0.0-291.0","1920x1080","","7095.0999999996275","80.42","img/238/4.5/1/bw/001.png","","","natural"
"","","","","","animation","292","2974599","0.0-292.0","1920x1080","","6014.5999999996275","88.49","img/117/5.5/0.66667/bw/001.png","","","natural"
"","","","","","animation","293","2978512","0.0-293.0","1920x1080","","3911.399999999441","8.07","img/238/2.5/2/bw/001.png","","","natural"
"","","","","","animation","294","2989598","0.0-294.0","1920x1080","","11084.799999999814","50.13","img/117/4.5/1/bw/001.png","","","natural"
"","","","","","animation","295","2996793","0.0-295.0","1920x1080","","7192.0999999996275","57.28","img/238/4/1.5/bw/001.png","","","natural"
"","","","","","animation","296","3004351","0.0-296.0","1920x1080","","7556.299999999814","9.66","img/238/2.5/1/bw/001.png","","","natural"
"","","","","","animation","297","3010000","0.0-297.0","1920x1080","","5647.700000000186","74.87","img/238/4.5/0.5/bw/001.png","","","natural"
"","","","","","animation","298","3036946","0.0-298.0","1920x1080","","26944.300000000745","55","img/314/4.5/1/bw/001.png","","","natural"
"","","","","","animation","299","3043032","0.0-299.0","1920x1080","","6084.299999999814","65.34","img/238/4.5/2/bw/001.png","","","natural"
"","","","","","animation","300","3047647","0.0-300.0","1920x1080","","4611.5","60.58","img/238/4.5/0.66667/bw/001.png","","","natural"
"","","","","","animation","301","3051848","0.0-301.0","1920x1080","","4200.299999999814","11.64","img/238/2.5/0.5/bw/001.png","","","natural"
"","","","","","animation","302","3062978","0.0-302.0","1920x1080","","11128.900000000373","62.96","img/117/4.5/2/bw/001.png","","","natural"
"","","","","","animation","303","3089876","0.0-303.0","1920x1080","","26895.89999999944","73","img/314/4.5/2/bw/001.png","","","natural"
"","","","","","animation","304","3095329","0.0-304.0","1920x1080","","5452.5","11","img/314/2.5/1.5/bw/001.png","","","natural"
"","","","","","animation","305","3100128","0.0-305.0","1920x1080","","4797.4000000003725","93.65","img/238/5.5/0.5/bw/001.png","","","natural"
"","","","","","animation","306","3105963","0.0-306.0","1920x1080","","5833.700000000186","52.78","img/314/3.5/2/bw/001.png","","","natural"
"","","","","","animation","307","3109697","0.0-307.0","1920x1080","","3733","56.75","img/314/4.5/0.5/bw/001.png","","","natural"
"","","","","","animation","308","3112460","0.0-308.0","1920x1080","","2760.199999999255","46.16","img/117/4/0.5/bw/001.png","","","natural"
"","","","","","animation","309","3117617","0.0-309.0","1920x1080","","5155.5","86.77","img/314/5.5/1.5/bw/001.png","","","natural"
"","","","","","animation","310","3120184","0.0-310.0","1920x1080","","2565.600000000559","61.64","img/117/3.5/0.66667/bw/001.png","","","natural"
"","","","","","animation","311","3123685","0.0-311.0","1920x1080","","3499.2999999998137","68.65","img/314/4/1.5/bw/001.png","","","natural"
"","","","","","animation","312","3126577","0.0-312.0","1920x1080","","2889.9000000003725","66.01","img/314/4/2/bw/001.png","","","natural"
"","","","","","html-button-response","313","3150593","0.0-313.0","1920x1080","","24015.300000000745","","<div class=""intro"">You are about to view a new series of animations.<br><br></div><div class=""intro"">You will evaluate them based on a different descriptor.<br><br></div><div class=""intro"">Move the slider to indicate how <strong style=""text-transform:capitalize"">RELAXING</strong> you find each animation.<br><br></div><div class=""intro"">0 = Least Relaxing<br></div><div class=""intro"">1 = Most Relaxing<br><br></div><div class=""intro"">Remember to use the <strong><em>entire range</em></strong> of the slider to make your ratings.<br></div><div class=""intro"">Please <strong><em>take your time</em></strong> and carefully consider each rating you make.<br><br></div>","0","",""
"","","","","","call-function","314","3150596","0.0-314.0","1920x1080","","","","","","",""
"","","","","","animation","315","3167459","0.0-315.0","1920x1080","","16862.39999999944","68.92","img/314/5.5/0.5/bw/001.png","","","relaxing"
"","","","","","animation","316","3173052","0.0-316.0","1920x1080","","5588","44.97","img/314/4/0.66667/bw/001.png","","","relaxing"
"","","","","","animation","317","3180098","0.0-317.0","1920x1080","","7044.899999999441","7.94","img/238/2.5/0.66667/bw/001.png","","","relaxing"
"","","","","","animation","318","3184282","0.0-318.0","1920x1080","","4181.0999999996275","19","img/314/3.5/1/bw/001.png","","","relaxing"
"","","","","","animation","319","3190450","0.0-319.0","1920x1080","","6165.4000000003725","90.08","img/117/5.5/1.5/bw/001.png","","","relaxing"
"","","","","","animation","320","3194650","0.0-320.0","1920x1080","","4197.9000000003725","83.86","img/117/4.5/1.5/bw/001.png","","","relaxing"
"","","","","","animation","321","3199943","0.0-321.0","1920x1080","","5291.600000000559","3.70","img/314/2.5/0.5/bw/001.png","","","relaxing"
"","","","","","animation","322","3204173","0.0-322.0","1920x1080","","4228","22.35","img/238/3.5/1/bw/001.png","","","relaxing"
"","","","","","animation","323","3210526","0.0-323.0","1920x1080","","6351.700000000186","7.80","img/117/2.5/1.5/bw/001.png","","","relaxing"
"","","","","","animation","324","3213634","0.0-324.0","1920x1080","","3106.5","2.91","img/238/2.5/1/bw/001.png","","","relaxing"
"","","","","","animation","325","3222793","0.0-325.0","1920x1080","","9157.099999999627","92.20","img/314/5.5/1/bw/001.png","","","relaxing"
"","","","","","animation","326","3226648","0.0-326.0","1920x1080","","3853","66.14","img/117/4/1.5/bw/001.png","","","relaxing"
"","","","","","animation","327","3232963","0.0-327.0","1920x1080","","6314","26","img/238/3.5/1.5/bw/001.png","","","relaxing"
"","","","","","animation","328","3235183","0.0-328.0","1920x1080","","2217.100000000559","31.61","img/314/4/2/bw/001.png","","","relaxing"
"","","","","","animation","329","3239768","0.0-329.0","1920x1080","","4584.100000000559","98","img/238/5.5/1.5/bw/001.png","","","relaxing"
"","","","","","animation","330","3259981","0.0-330.0","1920x1080","","20210.599999999627","54.63","img/238/4/2/bw/001.png","","","relaxing"
"","","","","","animation","331","3270444","0.0-331.0","1920x1080","","10461.400000000373","10.32","img/117/2.5/2/bw/001.png","","","relaxing"
"","","","","","animation","332","3280554","0.0-332.0","1920x1080","","10106.199999999255","88.10","img/117/5.5/2/bw/001.png","","","relaxing"
"","","","","","animation","333","3283961","0.0-333.0","1920x1080","","3404.5","74.60","img/117/5.5/0.5/bw/001.png","","","relaxing"
"","","","","","animation","334","3294819","0.0-334.0","1920x1080","","10855.599999999627","53.57","img/314/3.5/1.5/bw/001.png","","","relaxing"
"","","","","","animation","335","3304396","0.0-335.0","1920x1080","","9575.299999999814","64.02","img/117/4.5/1/bw/001.png","","","relaxing"
"","","","","","animation","336","3312593","0.0-336.0","1920x1080","","8194.400000000373","17.20","img/238/2.5/0.5/bw/001.png","","","relaxing"
"","","","","","animation","337","3318533","0.0-337.0","1920x1080","","5938.4000000003725","80.42","img/238/4.5/2/bw/001.png","","","relaxing"
"","","","","","animation","338","3325377","0.0-338.0","1920x1080","","6840.799999999814","14","img/314/2.5/0.66667/bw/001.png","","","relaxing"
"","","","","","animation","339","3346932","0.0-339.0","1920x1080","","21551.60000000056","62","img/117/4.5/0.66667/bw/001.png","","","relaxing"
"","","","","","animation","340","3355181","0.0-340.0","1920x1080","","8246.699999999255","42.86","img/238/4.5/0.5/bw/001.png","","","relaxing"
"","","","","","animation","341","3380610","0.0-341.0","1920x1080","","25428.099999999627","50","img/238/4/0.66667/bw/001.png","","","relaxing"
"","","","","","animation","342","3383760","0.0-342.0","1920x1080","","3148","63.23","img/314/4.5/2/bw/001.png","","","relaxing"
"","","","","","animation","343","3388968","0.0-343.0","1920x1080","","5206.5999999996275","46.30","img/117/4/0.5/bw/001.png","","","relaxing"
"","","","","","animation","344","3401029","0.0-344.0","1920x1080","","12058.600000000559","47.49","img/314/4/1/bw/001.png","","","relaxing"
"","","","","","animation","345","3425410","0.0-345.0","1920x1080","","24379.200000000186","44.58","img/314/4.5/0.66667/bw/001.png","","","relaxing"
"","","","","","animation","346","3431932","0.0-346.0","1920x1080","","6521.299999999814","94","img/238/5.5/1/bw/001.png","","","relaxing"
"","","","","","animation","347","3434610","0.0-347.0","1920x1080","","2675.9000000003725","6.61","img/117/2.5/0.5/bw/001.png","","","relaxing"
"","","","","","animation","348","3441287","0.0-348.0","1920x1080","","6674.600000000559","75","img/238/4.5/1.5/bw/001.png","","","relaxing"
"","","","","","animation","349","3445511","0.0-349.0","1920x1080","","4222.9000000003725","45.11","img/117/4/1/bw/001.png","","","relaxing"
"","","","","","animation","350","3452637","0.0-350.0","1920x1080","","7125.100000000559","30.95","img/238/4/1/bw/001.png","","","relaxing"
"","","","","","animation","351","3456683","0.0-351.0","1920x1080","","4042.9000000003725","54.23","img/117/4/2/bw/001.png","","","relaxing"
"","","","","","animation","352","3459776","0.0-352.0","1920x1080","","3091.899999999441","41.27","img/238/3.5/0.66667/bw/001.png","","","relaxing"
"","","","","","animation","353","3468694","0.0-353.0","1920x1080","","8917.299999999814","39.29","img/314/4/0.5/bw/001.png","","","relaxing"
"","","","","","animation","354","3476736","0.0-354.0","1920x1080","","8041.0999999996275","32.67","img/314/3.5/0.5/bw/001.png","","","relaxing"
"","","","","","animation","355","3486070","0.0-355.0","1920x1080","","9332.400000000373","90.48","img/117/5.5/1/bw/001.png","","","relaxing"
"","","","","","animation","356","3494743","0.0-356.0","1920x1080","","8671","84","img/314/5.5/0.66667/bw/001.png","","","relaxing"
"","","","","","animation","357","3498943","0.0-357.0","1920x1080","","4198.100000000559","33.73","img/238/3.5/2/bw/001.png","","","relaxing"
"","","","","","animation","358","3511494","0.0-358.0","1920x1080","","12548.600000000559","92","img/314/5.5/2/bw/001.png","","","relaxing"
"","","","","","animation","359","3517242","0.0-359.0","1920x1080","","5746.9000000003725","21.83","img/117/3.5/1.5/bw/001.png","","","relaxing"
"","","","","","animation","360","3520443","0.0-360.0","1920x1080","","3199.7999999998137","29.63","img/314/4.5/0.5/bw/001.png","","","relaxing"
"","","","","","animation","361","3523168","0.0-361.0","1920x1080","","2723.5999999996275","9.13","img/117/2.5/1/bw/001.png","","","relaxing"
"","","","","","animation","362","3527194","0.0-362.0","1920x1080","","4023.9000000003725","38.36","img/117/4.5/2/bw/001.png","","","relaxing"
"","","","","","animation","363","3539259","0.0-363.0","1920x1080","","12064.600000000559","68","img/314/4.5/1.5/bw/001.png","","","relaxing"
"","","","","","animation","364","3543768","0.0-364.0","1920x1080","","4508.0999999996275","28.70","img/238/4/0.5/bw/001.png","","","relaxing"
"","","","","","animation","365","3546409","0.0-365.0","1920x1080","","2639.2999999998137","6.75","img/314/2.5/1.5/bw/001.png","","","relaxing"
"","","","","","animation","366","3549977","0.0-366.0","1920x1080","","3566.199999999255","26.19","img/314/3.5/2/bw/001.png","","","relaxing"
"","","","","","animation","367","3560796","0.0-367.0","1920x1080","","10817.900000000373","82.94","img/238/5.5/2/bw/001.png","","","relaxing"
"","","","","","animation","368","3581934","0.0-368.0","1920x1080","","21136","75.40","img/117/5.5/0.66667/bw/001.png","","","relaxing"
"","","","","","animation","369","3587968","0.0-369.0","1920x1080","","6032.200000000186","65.34","img/238/4.5/1/bw/001.png","","","relaxing"
"","","","","","animation","370","3593813","0.0-370.0","1920x1080","","5842.700000000186","35.98","img/117/4/0.66667/bw/001.png","","","relaxing"
"","","","","","animation","371","3622183","0.0-371.0","1920x1080","","28368.599999999627","53.04","img/238/4/1.5/bw/001.png","","","relaxing"
"","","","","","animation","372","3625091","0.0-372.0","1920x1080","","2906.199999999255","6","img/117/2.5/0.66667/bw/001.png","","","relaxing"
"","","","","","animation","373","3630425","0.0-373.0","1920x1080","","5332.200000000186","22","img/238/3.5/0.5/bw/001.png","","","relaxing"
"","","","","","animation","374","3635545","0.0-374.0","1920x1080","","5118.799999999814","17","img/117/3.5/0.66667/bw/001.png","","","relaxing"
"","","","","","animation","375","3637961","0.0-375.0","1920x1080","","2414.199999999255","6.88","img/314/2.5/1/bw/001.png","","","relaxing"
"","","","","","animation","376","3643440","0.0-376.0","1920x1080","","5477.5","16.53","img/117/3.5/0.5/bw/001.png","","","relaxing"
"","","","","","animation","377","3650316","0.0-377.0","1920x1080","","6872","56","img/314/4/1.5/bw/001.png","","","relaxing"
"","","","","","animation","378","3654765","0.0-378.0","1920x1080","","4448.300000000745","41","img/117/3.5/1/bw/001.png","","","relaxing"
"","","","","","animation","379","3666128","0.0-379.0","1920x1080","","11361.299999999814","56","img/314/4.5/1/bw/001.png","","","relaxing"
"","","","","","animation","380","3669908","0.0-380.0","1920x1080","","3778.2999999998137","43.12","img/238/4.5/0.66667/bw/001.png","","","relaxing"
"","","","","","animation","381","3681602","0.0-381.0","1920x1080","","11692.400000000373","34.26","img/117/3.5/2/bw/001.png","","","relaxing"
"","","","","","animation","382","3684144","0.0-382.0","1920x1080","","2539.7999999998137","12.43","img/238/2.5/1.5/bw/001.png","","","relaxing"
"","","","","","animation","383","3686626","0.0-383.0","1920x1080","","2481","8","img/238/2.5/2/bw/001.png","","","relaxing"
"","","","","","animation","384","3695097","0.0-384.0","1920x1080","","8469.299999999814","95","img/238/5.5/0.5/bw/001.png","","","relaxing"
"","","","","","animation","385","3702506","0.0-385.0","1920x1080","","7405.5999999996275","8.99","img/314/2.5/2/bw/001.png","","","relaxing"
"","","","","","animation","386","3706323","0.0-386.0","1920x1080","","3816.5","26.85","img/117/4.5/0.5/bw/001.png","","","relaxing"
"","","","","","animation","387","3711975","0.0-387.0","1920x1080","","5651","92.20","img/238/5.5/0.66667/bw/001.png","","","relaxing"
"","","","","","animation","388","3716880","0.0-388.0","1920x1080","","4903.700000000186","24.21","img/314/3.5/0.66667/bw/001.png","","","relaxing"
"","","","","","animation","389","3724848","0.0-389.0","1920x1080","","7966.399999999441","95","img/314/5.5/1.5/bw/001.png","","","relaxing"
"","","","","","html-button-response","390","3772247","0.0-390.0","1920x1080","","47397.700000000186","","<strong>Study Debriefing</strong><br><p class=""debrief""><strong>Background:</strong> The patterns you rated are called <em>fractals</em>. The term fractal describes a class of irregular curves or shapes for which any suitably chosen part is similar in shape to a given larger or smaller part when magnified or reduced to the same size. Fractal properties are found throughout the natural and manmade world. The series of animations you saw today displayed animated fractal patterns of a varying complexity.</p><p class=""debrief""><strong>Purpose of this study:</strong> We hope to better understand how the perception of static fractals differs from the perception of animated fractals, and how the speed of the animated patterns influences people&apos;s perception of them. Fractals allow us to study the perception of aesthetic properties (e.g. the perceived level of beauty in an image) without using recognizable content, which makes them an excellent tool for studying abstract aesthetic judgement.</p><p class=""debrief""><strong>Your part:</strong> Your participation has helped us to further understand how humans perceive these patterns across different levels of speed and complexity. This research with allow us to better understand how the visual system and brain process our ever-changing visual environments.<p class=""debrief""><strong>Feedback and Further information:</strong> If you have additional questions about this study, please feel free to ask the researcher, Nathan Gonzales-Hess at nhess @ uoregon.edu. If you have any questions concerning your rights as a research participant, please contact Research Compliance Services, 5237 University of Oregon, Eugene, OR 97403, 541-346-2510, or email researchCompliance @ uoregon.edu. You can also email the Human Subjects Coordinator for psychology and linguistics research at hscoord @ uoregon.edu. ","0","",""
"","","","","","html-button-response","391","3774980","0.0-391.0","1920x1080","","2728.7000000001863","","Thank you for participating in this study. <br>Please click below to finish the experiment and submit your responses.<br><br>","0","",""
"true","","","","","fullscreen","392","3775999","0.0-392.0","1920x1080","12:28 4/11/2022","","","","","",""
