"success","timeout","failed_images","failed_audio","failed_video","trial_type","trial_index","time_elapsed","internal_node_id","resolution","timeStamp","rt","response","stimulus","button_pressed","value","descriptor"
"true","false","[]","[]","[]","preload","0","5931","0.0-0.0","1920x1080","","","","","","",""
"true","false","[]","[]","[]","preload","1","12071","0.0-1.0","1920x1080","","","","","","",""
"true","false","[]","[]","[]","preload","2","17954","0.0-2.0","1920x1080","","","","","","",""
"true","","","","","fullscreen","3","181346","0.0-3.0","1920x1080","11:55 7/10/2022","","","","","",""
"","","","","","survey-html-form","4","193506","0.0-4.0","1920x1080","","12157.89999999851","{""age"":""18"",""gender"":""male""}","","","",""
"","","","","","html-button-response","5","491714","0.0-5.0","1920x1080","","298206.3999999985","","<div class=""complex"">You are going to see a series of animations.<br><br></div><div class=""complex"">Move the slider to indicate how <strong style=""text-transform:capitalize"">COMPLEX</strong> you find each animation.<br><br></div><div class=""complex"">0 = Least Complex<br></div><div class=""complex"">1 = Most Complex<br><br></div><div class=""complex"">Remember to use the <strong><em>entire range</em></strong> of the slider to make your ratings.<br></div><div class=""complex"">Please <strong><em>take your time</em></strong> and carefully consider each rating you make.<br><br></div><div class=""complex"">The study has five sections and will take about 45 minutes to complete.<br><br></div>","0","",""
"","","","","","call-function","6","491715","0.0-6.0","1920x1080","","","","","","",""
"","","","","","animation","7","520354","0.0-7.0","1920x1080","","28637.89999999851","76","img/117/3.5/1.5/bw/001.png","","","complex"
"","","","","","animation","8","525050","0.0-8.0","1920x1080","","4695.69999999553","49.34","img/238/4.5/1.5/bw/001.png","","","complex"
"","","","","","animation","9","529250","0.0-9.0","1920x1080","","4199","56.88","img/117/3.5/0.66667/bw/001.png","","","complex"
"","","","","","animation","10","532018","0.0-10.0","1920x1080","","2767.2999999970198","59.52","img/314/3.5/0.5/bw/001.png","","","complex"
"","","","","","animation","11","534906","0.0-11.0","1920x1080","","2885.10000000149","67.99","img/117/4/0.66667/bw/001.png","","","complex"
"","","","","","animation","12","539594","0.0-12.0","1920x1080","","4687.19999999553","47.09","img/314/4.5/1/bw/001.png","","","complex"
"","","","","","animation","13","543450","0.0-13.0","1920x1080","","3855.60000000149","80.16","img/117/2.5/2/bw/001.png","","","complex"
"","","","","","animation","14","551410","0.0-14.0","1920x1080","","7959.30000000447","95","img/314/4.5/0.5/bw/001.png","","","complex"
"","","","","","animation","15","557082","0.0-15.0","1920x1080","","5671","90","img/238/4.5/0.5/bw/001.png","","","complex"
"","","","","","animation","16","560418","0.0-16.0","1920x1080","","3335.39999999851","44.71","img/314/5.5/1.5/bw/001.png","","","complex"
"","","","","","animation","17","563578","0.0-17.0","1920x1080","","3159.39999999851","47.09","img/314/3.5/1/bw/001.png","","","complex"
"","","","","","animation","18","567434","0.0-18.0","1920x1080","","3855.5","29.63","img/238/2.5/1.5/bw/001.png","","","complex"
"","","","","","animation","19","569346","0.0-19.0","1920x1080","","1911.3000000044703","23.15","img/314/2.5/2/bw/001.png","","","complex"
"","","","","","animation","20","571786","0.0-20.0","1920x1080","","2438.9000000059605","47.75","img/314/5.5/0.66667/bw/001.png","","","complex"
"","","","","","animation","21","574810","0.0-21.0","1920x1080","","3023.39999999851","51.72","img/314/4/1.5/bw/001.png","","","complex"
"","","","","","animation","22","578106","0.0-22.0","1920x1080","","3295","27.91","img/117/2.5/1.5/bw/001.png","","","complex"
"","","","","","animation","23","581098","0.0-23.0","1920x1080","","2991.2999999970198","97","img/117/4.5/0.5/bw/001.png","","","complex"
"","","","","","animation","24","584835","0.0-24.0","1920x1080","","3736","90.87","img/117/4.5/2/bw/001.png","","","complex"
"","","","","","animation","25","587169","0.0-25.0","1920x1080","","2334.10000000149","48.94","img/117/3.5/2/bw/001.png","","","complex"
"","","","","","animation","26","589978","0.0-26.0","1920x1080","","2808.10000000149","25.93","img/117/2.5/0.66667/bw/001.png","","","complex"
"","","","","","animation","27","592353","0.0-27.0","1920x1080","","2374.7000000029802","24.74","img/117/3.5/1/bw/001.png","","","complex"
"","","","","","animation","28","595786","0.0-28.0","1920x1080","","3431.89999999851","76.06","img/117/4.5/1/bw/001.png","","","complex"
"","","","","","animation","29","600019","0.0-29.0","1920x1080","","4231.9000000059605","4","img/238/2.5/0.66667/bw/001.png","","","complex"
"","","","","","animation","30","602114","0.0-30.0","1920x1080","","2094.2999999970198","4.89","img/314/2.5/0.66667/bw/001.png","","","complex"
"","","","","","animation","31","606154","0.0-31.0","1920x1080","","4036.60000000149","42.99","img/314/5.5/2/bw/001.png","","","complex"
"","","","","","animation","32","609954","0.0-32.0","1920x1080","","3799.10000000149","99","img/314/5.5/0.5/bw/001.png","","","complex"
"","","","","","animation","33","613282","0.0-33.0","1920x1080","","3327.60000000149","31.35","img/238/3.5/0.5/bw/001.png","","","complex"
"","","","","","animation","34","615530","0.0-34.0","1920x1080","","2247.2000000029802","62.17","img/117/4.5/1.5/bw/001.png","","","complex"
"","","","","","animation","35","620778","0.0-35.0","1920x1080","","5247.10000000149","37","img/238/3.5/1.5/bw/001.png","","","complex"
"","","","","","animation","36","624082","0.0-36.0","1920x1080","","3303","41.14","img/238/3.5/0.66667/bw/001.png","","","complex"
"","","","","","animation","37","628458","0.0-37.0","1920x1080","","4375.5","47","img/238/4/0.5/bw/001.png","","","complex"
"","","","","","animation","38","632236","0.0-38.0","1920x1080","","3776.8000000044703","62.30","img/314/4.5/0.66667/bw/001.png","","","complex"
"","","","","","animation","39","639674","0.0-39.0","1920x1080","","7437.60000000149","73","img/117/5.5/2/bw/001.png","","","complex"
"","","","","","animation","40","642786","0.0-40.0","1920x1080","","3110.7000000029802","68.78","img/117/5.5/1/bw/001.png","","","complex"
"","","","","","animation","41","645826","0.0-41.0","1920x1080","","3039.89999999851","99","img/238/5.5/0.66667/bw/001.png","","","complex"
"","","","","","animation","42","649130","0.0-42.0","1920x1080","","3303.10000000149","72.09","img/238/5.5/2/bw/001.png","","","complex"
"","","","","","animation","43","654554","0.0-43.0","1920x1080","","5422.80000000447","68.39","img/238/5.5/1.5/bw/001.png","","","complex"
"","","","","","animation","44","661346","0.0-44.0","1920x1080","","6788.60000000149","38.76","img/117/4/0.5/bw/001.png","","","complex"
"","","","","","animation","45","667003","0.0-45.0","1920x1080","","5655.70000000298","58","img/238/4.5/1/bw/001.png","","","complex"
"","","","","","animation","46","677099","0.0-46.0","1920x1080","","10094.5","57.14","img/238/4.5/0.66667/bw/001.png","","","complex"
"","","","","","animation","47","679763","0.0-47.0","1920x1080","","2662","6.88","img/314/2.5/0.5/bw/001.png","","","complex"
"","","","","","animation","48","685770","0.0-48.0","1920x1080","","6007.29999999702","78.17","img/314/4.5/1.5/bw/001.png","","","complex"
"","","","","","animation","49","691731","0.0-49.0","1920x1080","","5959.20000000298","99","img/238/4/2/bw/001.png","","","complex"
"","","","","","animation","50","695299","0.0-50.0","1920x1080","","3566.2999999970198","62.04","img/117/4/1.5/bw/001.png","","","complex"
"","","","","","animation","51","697690","0.0-51.0","1920x1080","","2391","37.17","img/238/4/0.66667/bw/001.png","","","complex"
"","","","","","animation","52","703452","0.0-52.0","1920x1080","","5761.20000000298","11.38","img/238/2.5/0.5/bw/001.png","","","complex"
"","","","","","animation","53","707259","0.0-53.0","1920x1080","","3805.60000000149","84.13","img/238/5.5/1/bw/001.png","","","complex"
"","","","","","animation","54","710171","0.0-54.0","1920x1080","","2910.89999999851","96","img/238/4.5/2/bw/001.png","","","complex"
"","","","","","animation","55","715082","0.0-55.0","1920x1080","","4911.10000000149","82.41","img/117/5.5/0.66667/bw/001.png","","","complex"
"","","","","","animation","56","717763","0.0-56.0","1920x1080","","2679.2999999970198","68.78","img/314/5.5/1/bw/001.png","","","complex"
"","","","","","animation","57","727954","0.0-57.0","1920x1080","","10190.60000000149","35","img/117/4/1/bw/001.png","","","complex"
"","","","","","animation","58","733053","0.0-58.0","1920x1080","","5097.89999999851","16.53","img/238/3.5/1/bw/001.png","","","complex"
"","","","","","animation","59","737746","0.0-59.0","1920x1080","","4692.69999999553","31","img/314/4/1/bw/001.png","","","complex"
"","","","","","animation","60","741074","0.0-60.0","1920x1080","","3326.5","34","img/314/4/2/bw/001.png","","","complex"
"","","","","","animation","61","743636","0.0-61.0","1920x1080","","2561.60000000149","52.78","img/117/4/2/bw/001.png","","","complex"
"","","","","","animation","62","745874","0.0-62.0","1920x1080","","2237","87.70","img/117/5.5/0.5/bw/001.png","","","complex"
"","","","","","animation","63","747914","0.0-63.0","1920x1080","","2039.2999999970198","46.96","img/314/3.5/0.66667/bw/001.png","","","complex"
"","","","","","animation","64","749994","0.0-64.0","1920x1080","","2079","4","img/238/2.5/2/bw/001.png","","","complex"
"","","","","","animation","65","752042","0.0-65.0","1920x1080","","2046.9000000059605","6.08","img/314/2.5/1.5/bw/001.png","","","complex"
"","","","","","animation","66","754874","0.0-66.0","1920x1080","","2831","7.01","img/238/2.5/1/bw/001.png","","","complex"
"","","","","","animation","67","759146","0.0-67.0","1920x1080","","4271.4000000059605","59","img/117/4.5/0.66667/bw/001.png","","","complex"
"","","","","","animation","68","761090","0.0-68.0","1920x1080","","1942.8999999985099","67.20","img/314/4.5/2/bw/001.png","","","complex"
"","","","","","animation","69","763562","0.0-69.0","1920x1080","","2471.60000000149","72.09","img/238/4/1/bw/001.png","","","complex"
"","","","","","animation","70","768530","0.0-70.0","1920x1080","","4967","33.73","img/314/3.5/1.5/bw/001.png","","","complex"
"","","","","","animation","71","772658","0.0-71.0","1920x1080","","4127","44","img/238/3.5/2/bw/001.png","","","complex"
"","","","","","animation","72","777130","0.0-72.0","1920x1080","","4471.29999999702","58","img/238/5.5/0.5/bw/001.png","","","complex"
"","","","","","animation","73","780003","0.0-73.0","1920x1080","","2871.6999999955297","62.57","img/238/4/1.5/bw/001.png","","","complex"
"","","","","","animation","74","783162","0.0-74.0","1920x1080","","3158.6999999955297","66.14","img/117/5.5/1.5/bw/001.png","","","complex"
"","","","","","animation","75","785394","0.0-75.0","1920x1080","","2231.2999999970198","6.22","img/117/2.5/0.5/bw/001.png","","","complex"
"","","","","","animation","76","788658","0.0-76.0","1920x1080","","3262.89999999851","59.66","img/314/4/0.5/bw/001.png","","","complex"
"","","","","","animation","77","790690","0.0-77.0","1920x1080","","2031.2000000029802","26.98","img/314/2.5/1/bw/001.png","","","complex"
"","","","","","animation","78","794811","0.0-78.0","1920x1080","","4119.5","56","img/314/4/0.66667/bw/001.png","","","complex"
"","","","","","animation","79","796837","0.0-79.0","1920x1080","","2025.7000000029802","15.08","img/117/2.5/1/bw/001.png","","","complex"
"","","","","","animation","80","798811","0.0-80.0","1920x1080","","1972.7000000029802","15.08","img/314/3.5/2/bw/001.png","","","complex"
"","","","","","animation","81","802283","0.0-81.0","1920x1080","","3470.39999999851","45.11","img/117/3.5/0.5/bw/001.png","","","complex"
"","","","","","html-button-response","82","821021","0.0-82.0","1920x1080","","18736.69999999553","","<div class=""intro"">You are about to view a new series of animations.<br><br></div><div class=""intro"">You will evaluate them based on a different descriptor.<br><br></div><div class=""intro"">Move the slider to indicate how <strong style=""text-transform:capitalize"">RELAXING</strong> you find each animation.<br><br></div><div class=""intro"">0 = Least Relaxing<br></div><div class=""intro"">1 = Most Relaxing<br><br></div><div class=""intro"">Remember to use the <strong><em>entire range</em></strong> of the slider to make your ratings.<br></div><div class=""intro"">Please <strong><em>take your time</em></strong> and carefully consider each rating you make.<br><br></div>","0","",""
"","","","","","call-function","83","821021","0.0-83.0","1920x1080","","","","","","",""
"","","","","","animation","84","829027","0.0-84.0","1920x1080","","8004.60000000149","35.98","img/314/3.5/2/bw/001.png","","","relaxing"
"","","","","","animation","85","831890","0.0-85.0","1920x1080","","2861.89999999851","-1.46","img/314/2.5/0.66667/bw/001.png","","","relaxing"
"","","","","","animation","86","838115","0.0-86.0","1920x1080","","6223.60000000149","57","img/314/4.5/1/bw/001.png","","","relaxing"
"","","","","","animation","87","840643","0.0-87.0","1920x1080","","2527.10000000149","46.16","img/314/3.5/1/bw/001.png","","","relaxing"
"","","","","","animation","88","842754","0.0-88.0","1920x1080","","2110.7000000029802","39.29","img/314/4.5/0.66667/bw/001.png","","","relaxing"
"","","","","","animation","89","844890","0.0-89.0","1920x1080","","2135.2999999970198","0","img/238/2.5/0.66667/bw/001.png","","","relaxing"
"","","","","","animation","90","847938","0.0-90.0","1920x1080","","3047.1999999955297","10.71","img/314/2.5/2/bw/001.png","","","relaxing"
"","","","","","animation","91","850954","0.0-91.0","1920x1080","","3015.10000000149","23.41","img/117/3.5/1.5/bw/001.png","","","relaxing"
"","","","","","animation","92","853979","0.0-92.0","1920x1080","","3023.4000000059605","40.08","img/314/4/1/bw/001.png","","","relaxing"
"","","","","","animation","93","856253","0.0-93.0","1920x1080","","2274","27.38","img/117/4/1/bw/001.png","","","relaxing"
"","","","","","animation","94","860838","0.0-94.0","1920x1080","","4583.30000000447","-3.44","img/238/3.5/0.5/bw/001.png","","","relaxing"
"","","","","","animation","95","863054","0.0-95.0","1920x1080","","2215","5.56","img/117/4/2/bw/001.png","","","relaxing"
"","","","","","animation","96","867203","0.0-96.0","1920x1080","","4148.39999999851","95","img/314/5.5/1.5/bw/001.png","","","relaxing"
"","","","","","animation","97","869570","0.0-97.0","1920x1080","","2366.2000000029802","22.75","img/238/3.5/1/bw/001.png","","","relaxing"
"","","","","","animation","98","871604","0.0-98.0","1920x1080","","2032.8999999985099","37.17","img/117/3.5/0.66667/bw/001.png","","","relaxing"
"","","","","","animation","99","873803","0.0-99.0","1920x1080","","2198.1999999955297","0.53","img/117/2.5/2/bw/001.png","","","relaxing"
"","","","","","animation","100","876059","0.0-100.0","1920x1080","","2254.7000000029802","1.98","img/314/3.5/1.5/bw/001.png","","","relaxing"
"","","","","","animation","101","878179","0.0-101.0","1920x1080","","2118.89999999851","3.04","img/238/2.5/1/bw/001.png","","","relaxing"
"","","","","","animation","102","880674","0.0-102.0","1920x1080","","2494.7999999970198","1.98","img/238/2.5/1.5/bw/001.png","","","relaxing"
"","","","","","animation","103","882882","0.0-103.0","1920x1080","","2207","15.87","img/238/3.5/2/bw/001.png","","","relaxing"
"","","","","","animation","104","888738","0.0-104.0","1920x1080","","5853.70000000298","9.52","img/238/4/1.5/bw/001.png","","","relaxing"
"","","","","","animation","105","891154","0.0-105.0","1920x1080","","2415.1999999955297","0.79","img/238/2.5/0.5/bw/001.png","","","relaxing"
"","","","","","animation","106","893821","0.0-106.0","1920x1080","","2666","95","img/238/5.5/2/bw/001.png","","","relaxing"
"","","","","","animation","107","897354","0.0-107.0","1920x1080","","3531.60000000149","40","img/314/4/1.5/bw/001.png","","","relaxing"
"","","","","","animation","108","899530","0.0-108.0","1920x1080","","2175.8000000044703","41.27","img/238/4/1/bw/001.png","","","relaxing"
"","","","","","animation","109","904299","0.0-109.0","1920x1080","","4767.20000000298","43","img/117/5.5/0.5/bw/001.png","","","relaxing"
"","","","","","animation","110","907162","0.0-110.0","1920x1080","","2862.7000000029802","2.65","img/117/2.5/0.66667/bw/001.png","","","relaxing"
"","","","","","animation","111","910427","0.0-111.0","1920x1080","","3263.2000000029802","69.18","img/314/5.5/2/bw/001.png","","","relaxing"
"","","","","","animation","112","913270","0.0-112.0","1920x1080","","2842.7999999970198","0.00","img/117/2.5/0.5/bw/001.png","","","relaxing"
"","","","","","animation","113","917138","0.0-113.0","1920x1080","","3866.60000000149","76.72","img/117/5.5/1.5/bw/001.png","","","relaxing"
"","","","","","animation","114","919669","0.0-114.0","1920x1080","","2530.5999999940395","58.99","img/238/4.5/0.66667/bw/001.png","","","relaxing"
"","","","","","animation","115","922410","0.0-115.0","1920x1080","","2739.89999999851","30.69","img/117/3.5/1/bw/001.png","","","relaxing"
"","","","","","animation","116","924421","0.0-116.0","1920x1080","","2009.5","18.39","img/314/4/0.5/bw/001.png","","","relaxing"
"","","","","","animation","117","926946","0.0-117.0","1920x1080","","2524.0999999940395","11.77","img/238/4/0.5/bw/001.png","","","relaxing"
"","","","","","animation","118","930898","0.0-118.0","1920x1080","","3951.10000000149","48.94","img/238/4.5/2/bw/001.png","","","relaxing"
"","","","","","animation","119","934538","0.0-119.0","1920x1080","","3638.60000000149","80.42","img/117/5.5/1/bw/001.png","","","relaxing"
"","","","","","animation","120","939033","0.0-120.0","1920x1080","","4494.69999999553","75","img/238/5.5/1/bw/001.png","","","relaxing"
"","","","","","animation","121","943470","0.0-121.0","1920x1080","","4384.0999999940395","18","img/238/2.5/2/bw/001.png","","","relaxing"
"","","","","","animation","122","946070","0.0-122.0","1920x1080","","2599","80.56","img/117/5.5/2/bw/001.png","","","relaxing"
"","","","","","animation","123","948419","0.0-123.0","1920x1080","","2348.6999999955297","86.38","img/238/5.5/0.66667/bw/001.png","","","relaxing"
"","","","","","animation","124","950674","0.0-124.0","1920x1080","","2253.7999999970198","39.15","img/314/3.5/0.5/bw/001.png","","","relaxing"
"","","","","","animation","125","952410","0.0-125.0","1920x1080","","1735.1000000014901","31.88","img/238/3.5/0.66667/bw/001.png","","","relaxing"
"","","","","","animation","126","955003","0.0-126.0","1920x1080","","2591.7999999970198","41.80","img/238/4/0.66667/bw/001.png","","","relaxing"
"","","","","","animation","127","957010","0.0-127.0","1920x1080","","2006.2999999970198","36.90","img/117/4/0.66667/bw/001.png","","","relaxing"
"","","","","","animation","128","958826","0.0-128.0","1920x1080","","1815.2000000029802","26.85","img/117/4.5/1/bw/001.png","","","relaxing"
"","","","","","animation","129","961870","0.0-129.0","1920x1080","","3042.60000000149","16.93","img/117/4/0.5/bw/001.png","","","relaxing"
"","","","","","animation","130","964772","0.0-130.0","1920x1080","","2901.10000000149","4.50","img/117/2.5/1.5/bw/001.png","","","relaxing"
"","","","","","animation","131","968490","0.0-131.0","1920x1080","","3716.39999999851","97","img/238/5.5/0.5/bw/001.png","","","relaxing"
"","","","","","animation","132","970870","0.0-132.0","1920x1080","","2378.89999999851","0.79","img/314/2.5/1.5/bw/001.png","","","relaxing"
"","","","","","animation","133","973221","0.0-133.0","1920x1080","","2349.60000000149","22.62","img/117/4.5/2/bw/001.png","","","relaxing"
"","","","","","animation","134","975686","0.0-134.0","1920x1080","","2464.5","1","img/314/2.5/0.5/bw/001.png","","","relaxing"
"","","","","","animation","135","977674","0.0-135.0","1920x1080","","1986.8000000044703","1.59","img/117/2.5/1/bw/001.png","","","relaxing"
"","","","","","animation","136","980754","0.0-136.0","1920x1080","","3078.89999999851","38.36","img/117/4.5/0.66667/bw/001.png","","","relaxing"
"","","","","","animation","137","982322","0.0-137.0","1920x1080","","1567.3999999985099","31.22","img/238/4.5/1/bw/001.png","","","relaxing"
"","","","","","animation","138","983637","0.0-138.0","1920x1080","","1313.7999999970198","34.26","img/314/3.5/0.66667/bw/001.png","","","relaxing"
"","","","","","animation","139","985070","0.0-139.0","1920x1080","","1432.6999999955297","23.28","img/314/4/0.66667/bw/001.png","","","relaxing"
"","","","","","animation","140","987638","0.0-140.0","1920x1080","","2566.7999999970198","56.75","img/117/4.5/1.5/bw/001.png","","","relaxing"
"","","","","","animation","141","991242","0.0-141.0","1920x1080","","3602.7999999970198","88.23","img/117/5.5/0.66667/bw/001.png","","","relaxing"
"","","","","","animation","142","993987","0.0-142.0","1920x1080","","2743.5","99","img/314/5.5/1/bw/001.png","","","relaxing"
"","","","","","animation","143","997314","0.0-143.0","1920x1080","","3326.1999999955297","23.41","img/314/4/2/bw/001.png","","","relaxing"
"","","","","","animation","144","1002053","0.0-144.0","1920x1080","","4738","27.25","img/238/4.5/0.5/bw/001.png","","","relaxing"
"","","","","","animation","145","1004162","0.0-145.0","1920x1080","","2107.60000000149","29.76","img/117/4.5/0.5/bw/001.png","","","relaxing"
"","","","","","animation","146","1006287","0.0-146.0","1920x1080","","2123.7999999970198","32.94","img/117/4/1.5/bw/001.png","","","relaxing"
"","","","","","animation","147","1008714","0.0-147.0","1920x1080","","2426.60000000149","26.72","img/238/4.5/1.5/bw/001.png","","","relaxing"
"","","","","","animation","148","1012578","0.0-148.0","1920x1080","","3862.7999999970198","95","img/238/5.5/1.5/bw/001.png","","","relaxing"
"","","","","","animation","149","1014994","0.0-149.0","1920x1080","","2414.89999999851","35.58","img/117/3.5/2/bw/001.png","","","relaxing"
"","","","","","animation","150","1016458","0.0-150.0","1920x1080","","1462.8999999985099","26.19","img/238/3.5/1.5/bw/001.png","","","relaxing"
"","","","","","animation","151","1018130","0.0-151.0","1920x1080","","1671","30.03","img/314/4.5/2/bw/001.png","","","relaxing"
"","","","","","animation","152","1020804","0.0-152.0","1920x1080","","2672.89999999851","35","img/238/4/2/bw/001.png","","","relaxing"
"","","","","","animation","153","1023346","0.0-153.0","1920x1080","","2541.39999999851","17.72","img/314/4.5/0.5/bw/001.png","","","relaxing"
"","","","","","animation","154","1026890","0.0-154.0","1920x1080","","3542.7000000029802","78.70","img/314/5.5/0.66667/bw/001.png","","","relaxing"
"","","","","","animation","155","1029314","0.0-155.0","1920x1080","","2423","1.32","img/314/2.5/1/bw/001.png","","","relaxing"
"","","","","","animation","156","1031506","0.0-156.0","1920x1080","","2190.39999999851","10.19","img/117/3.5/0.5/bw/001.png","","","relaxing"
"","","","","","animation","157","1037314","0.0-157.0","1920x1080","","5807.39999999851","78","img/314/5.5/0.5/bw/001.png","","","relaxing"
"","","","","","animation","158","1041730","0.0-158.0","1920x1080","","4414.79999999702","40.61","img/314/4.5/1.5/bw/001.png","","","relaxing"
"","","","","","html-button-response","159","1060490","0.0-159.0","1920x1080","","18759.09999999404","","<div class=""intro"">You are about to view a new series of animations.<br><br></div><div class=""intro"">You will evaluate them based on a different descriptor.<br><br></div><div class=""intro"">Move the slider to indicate how <strong style=""text-transform:capitalize"">INTERESTING</strong> you find each animation.<br><br></div><div class=""intro"">0 = Least Interesting<br></div><div class=""intro"">1 = Most Interesting<br><br></div><div class=""intro"">Remember to use the <strong><em>entire range</em></strong> of the slider to make your ratings.<br></div><div class=""intro"">Please <strong><em>take your time</em></strong> and carefully consider each rating you make.<br><br></div>","0","",""
"","","","","","call-function","160","1060491","0.0-160.0","1920x1080","","","","","","",""
"","","","","","animation","161","1066274","0.0-161.0","1920x1080","","5782.29999999702","39.29","img/238/4/2/bw/001.png","","","interesting"
"","","","","","animation","162","1069578","0.0-162.0","1920x1080","","3303.0999999940395","43.25","img/238/4.5/0.5/bw/001.png","","","interesting"
"","","","","","animation","163","1071738","0.0-163.0","1920x1080","","2158.60000000149","39.02","img/238/3.5/0.5/bw/001.png","","","interesting"
"","","","","","animation","164","1073530","0.0-164.0","1920x1080","","1790.5999999940395","27.65","img/117/4/0.5/bw/001.png","","","interesting"
"","","","","","animation","165","1077387","0.0-165.0","1920x1080","","3853.5","25.13","img/314/3.5/1.5/bw/001.png","","","interesting"
"","","","","","animation","166","1081194","0.0-166.0","1920x1080","","3806.1999999955297","81.35","img/238/4.5/0.66667/bw/001.png","","","interesting"
"","","","","","animation","167","1083610","0.0-167.0","1920x1080","","2414.89999999851","28.84","img/117/3.5/2/bw/001.png","","","interesting"
"","","","","","animation","168","1086420","0.0-168.0","1920x1080","","2809","0","img/238/2.5/1.5/bw/001.png","","","interesting"
"","","","","","animation","169","1088898","0.0-169.0","1920x1080","","2476.60000000149","54.63","img/314/5.5/2/bw/001.png","","","interesting"
"","","","","","animation","170","1092338","0.0-170.0","1920x1080","","3438.7999999970198","1","img/314/2.5/0.5/bw/001.png","","","interesting"
"","","","","","animation","171","1096931","0.0-171.0","1920x1080","","4591.5","19.18","img/238/4/0.66667/bw/001.png","","","interesting"
"","","","","","animation","172","1098971","0.0-172.0","1920x1080","","2039.1000000014901","2.12","img/117/2.5/0.66667/bw/001.png","","","interesting"
"","","","","","animation","173","1101005","0.0-173.0","1920x1080","","2032.7000000029802","21.69","img/314/4/1.5/bw/001.png","","","interesting"
"","","","","","animation","174","1103055","0.0-174.0","1920x1080","","2049.2000000029802","8.33","img/238/3.5/2/bw/001.png","","","interesting"
"","","","","","animation","175","1105163","0.0-175.0","1920x1080","","2107.0999999940395","0.79","img/117/2.5/2/bw/001.png","","","interesting"
"","","","","","animation","176","1107820","0.0-176.0","1920x1080","","2656.7000000029802","3.84","img/314/3.5/1/bw/001.png","","","interesting"
"","","","","","animation","177","1109798","0.0-177.0","1920x1080","","1976.2999999970198","39","img/117/5.5/1.5/bw/001.png","","","interesting"
"","","","","","animation","178","1112306","0.0-178.0","1920x1080","","2506.60000000149","53.84","img/238/4.5/1/bw/001.png","","","interesting"
"","","","","","animation","179","1115538","0.0-179.0","1920x1080","","3230.89999999851","23.54","img/117/3.5/0.66667/bw/001.png","","","interesting"
"","","","","","animation","180","1119027","0.0-180.0","1920x1080","","3487.39999999851","-1.59","img/238/2.5/0.66667/bw/001.png","","","interesting"
"","","","","","animation","181","1121938","0.0-181.0","1920x1080","","2910.39999999851","3.31","img/238/3.5/0.66667/bw/001.png","","","interesting"
"","","","","","animation","182","1124404","0.0-182.0","1920x1080","","2464.7999999970198","2.38","img/117/2.5/1.5/bw/001.png","","","interesting"
"","","","","","animation","183","1128331","0.0-183.0","1920x1080","","3925.39999999851","40.21","img/117/5.5/0.66667/bw/001.png","","","interesting"
"","","","","","animation","184","1130471","0.0-184.0","1920x1080","","2139.2999999970198","11.24","img/117/4.5/1.5/bw/001.png","","","interesting"
"","","","","","animation","185","1134915","0.0-185.0","1920x1080","","4442.5","58","img/238/5.5/1.5/bw/001.png","","","interesting"
"","","","","","animation","186","1136947","0.0-186.0","1920x1080","","2030.5999999940395","19.31","img/238/4/1/bw/001.png","","","interesting"
"","","","","","animation","187","1139021","0.0-187.0","1920x1080","","2073.2000000029802","16.80","img/314/4.5/1.5/bw/001.png","","","interesting"
"","","","","","animation","188","1140855","0.0-188.0","1920x1080","","1832.7999999970198","28","img/238/4/1.5/bw/001.png","","","interesting"
"","","","","","animation","189","1143688","0.0-189.0","1920x1080","","2832","-10.71","img/238/2.5/0.5/bw/001.png","","","interesting"
"","","","","","animation","190","1146610","0.0-190.0","1920x1080","","2921.2999999970198","-19.05","img/314/2.5/0.66667/bw/001.png","","","interesting"
"","","","","","animation","191","1153547","0.0-191.0","1920x1080","","6935.0999999940395","31","img/314/4/2/bw/001.png","","","interesting"
"","","","","","animation","192","1156531","0.0-192.0","1920x1080","","2983.1999999955297","60.71","img/238/5.5/1/bw/001.png","","","interesting"
"","","","","","animation","193","1158571","0.0-193.0","1920x1080","","2039.1999999955297","26.85","img/238/3.5/1.5/bw/001.png","","","interesting"
"","","","","","animation","194","1160989","0.0-194.0","1920x1080","","2416.89999999851","11.64","img/314/4.5/1/bw/001.png","","","interesting"
"","","","","","animation","195","1162930","0.0-195.0","1920x1080","","1937.1000000014901","45.24","img/314/4.5/0.66667/bw/001.png","","","interesting"
"","","","","","animation","196","1165788","0.0-196.0","1920x1080","","2857","35.45","img/117/5.5/2/bw/001.png","","","interesting"
"","","","","","animation","197","1168305","0.0-197.0","1920x1080","","2514.2999999970198","22.35","img/117/3.5/0.5/bw/001.png","","","interesting"
"","","","","","animation","198","1170021","0.0-198.0","1920x1080","","1715.5999999940395","35.58","img/314/3.5/2/bw/001.png","","","interesting"
"","","","","","animation","199","1172963","0.0-199.0","1920x1080","","2940.5","-77.25","img/314/2.5/1.5/bw/001.png","","","interesting"
"","","","","","animation","200","1175506","0.0-200.0","1920x1080","","2542.2999999970198","57","img/314/5.5/1.5/bw/001.png","","","interesting"
"","","","","","animation","201","1178931","0.0-201.0","1920x1080","","3423.10000000149","53.31","img/238/4.5/1.5/bw/001.png","","","interesting"
"","","","","","animation","202","1181405","0.0-202.0","1920x1080","","2473","54.63","img/117/4.5/2/bw/001.png","","","interesting"
"","","","","","animation","203","1183131","0.0-203.0","1920x1080","","1724.5999999940395","46.96","img/238/5.5/0.66667/bw/001.png","","","interesting"
"","","","","","animation","204","1186227","0.0-204.0","1920x1080","","3094.9000000059605","-77.25","img/238/2.5/2/bw/001.png","","","interesting"
"","","","","","animation","205","1188931","0.0-205.0","1920x1080","","2702.7999999970198","38.89","img/117/4.5/0.5/bw/001.png","","","interesting"
"","","","","","animation","206","1190688","0.0-206.0","1920x1080","","1756.4000000059605","44.71","img/314/4/0.5/bw/001.png","","","interesting"
"","","","","","animation","207","1192038","0.0-207.0","1920x1080","","1349.1000000014901","46.43","img/238/4/0.5/bw/001.png","","","interesting"
"","","","","","animation","208","1194427","0.0-208.0","1920x1080","","2387.7000000029802","48.02","img/314/4/1/bw/001.png","","","interesting"
"","","","","","animation","209","1198988","0.0-209.0","1920x1080","","4560.29999999702","25.26","img/117/4/1/bw/001.png","","","interesting"
"","","","","","animation","210","1200858","0.0-210.0","1920x1080","","1869.5","26.46","img/117/4/0.66667/bw/001.png","","","interesting"
"","","","","","animation","211","1202546","0.0-211.0","1920x1080","","1687.1000000014901","31.75","img/314/3.5/0.66667/bw/001.png","","","interesting"
"","","","","","animation","212","1205155","0.0-212.0","1920x1080","","2607.7000000029802","49.21","img/314/5.5/0.66667/bw/001.png","","","interesting"
"","","","","","animation","213","1207227","0.0-213.0","1920x1080","","2070.3000000044703","28.31","img/238/3.5/1/bw/001.png","","","interesting"
"","","","","","animation","214","1209338","0.0-214.0","1920x1080","","2110.5999999940395","20.63","img/117/4/1.5/bw/001.png","","","interesting"
"","","","","","animation","215","1211505","0.0-215.0","1920x1080","","2165.7000000029802","36","img/314/4.5/2/bw/001.png","","","interesting"
"","","","","","animation","216","1214072","0.0-216.0","1920x1080","","2565.89999999851","41.53","img/117/4.5/0.66667/bw/001.png","","","interesting"
"","","","","","animation","217","1216474","0.0-217.0","1920x1080","","2401.5999999940395","11.90","img/117/4/2/bw/001.png","","","interesting"
"","","","","","animation","218","1219638","0.0-218.0","1920x1080","","3163.2000000029802","-42.33","img/117/2.5/0.5/bw/001.png","","","interesting"
"","","","","","animation","219","1234226","0.0-219.0","1920x1080","","14586.89999999851","40.87","img/314/4/0.66667/bw/001.png","","","interesting"
"","","","","","animation","220","1237105","0.0-220.0","1920x1080","","2877","47","img/238/4.5/2/bw/001.png","","","interesting"
"","","","","","animation","221","1241171","0.0-221.0","1920x1080","","4064.89999999851","3.70","img/117/3.5/1/bw/001.png","","","interesting"
"","","","","","animation","222","1244072","0.0-222.0","1920x1080","","2899.1999999955297","50.79","img/314/5.5/1/bw/001.png","","","interesting"
"","","","","","animation","223","1247514","0.0-223.0","1920x1080","","3441.5","-38.62","img/314/2.5/2/bw/001.png","","","interesting"
"","","","","","animation","224","1254305","0.0-224.0","1920x1080","","6788.79999999702","37","img/314/3.5/0.5/bw/001.png","","","interesting"
"","","","","","animation","225","1257258","0.0-225.0","1920x1080","","2951.60000000149","58.07","img/238/5.5/2/bw/001.png","","","interesting"
"","","","","","animation","226","1259471","0.0-226.0","1920x1080","","2212.3000000044703","55.29","img/117/5.5/0.5/bw/001.png","","","interesting"
"","","","","","animation","227","1262794","0.0-227.0","1920x1080","","3321.8000000044703","-70.63","img/314/2.5/1/bw/001.png","","","interesting"
"","","","","","animation","228","1266288","0.0-228.0","1920x1080","","3492.39999999851","-29.76","img/238/2.5/1/bw/001.png","","","interesting"
"","","","","","animation","229","1268962","0.0-229.0","1920x1080","","2672.7999999970198","-2.25","img/117/2.5/1/bw/001.png","","","interesting"
"","","","","","animation","230","1271674","0.0-230.0","1920x1080","","2710.5999999940395","43.12","img/117/4.5/1/bw/001.png","","","interesting"
"","","","","","animation","231","1273771","0.0-231.0","1920x1080","","2096.10000000149","50.40","img/117/5.5/1/bw/001.png","","","interesting"
"","","","","","animation","232","1277074","0.0-232.0","1920x1080","","3301.5","52.78","img/314/5.5/0.5/bw/001.png","","","interesting"
"","","","","","animation","233","1280688","0.0-233.0","1920x1080","","3612.7999999970198","68.12","img/238/5.5/0.5/bw/001.png","","","interesting"
"","","","","","animation","234","1287521","0.0-234.0","1920x1080","","6832.20000000298","39.68","img/314/4.5/0.5/bw/001.png","","","interesting"
"","","","","","animation","235","1290605","0.0-235.0","1920x1080","","3082.2000000029802","17.20","img/117/3.5/1.5/bw/001.png","","","interesting"
"","","","","","html-button-response","236","1311979","0.0-236.0","1920x1080","","21372.20000000298","","<div class=""intro"">You are about to view a new series of animations.<br><br></div><div class=""intro"">You will evaluate them based on a different descriptor.<br><br></div><div class=""intro"">Move the slider to indicate how <strong style=""text-transform:capitalize"">NATURAL</strong> you find each animation.<br><br></div><div class=""intro"">0 = Least Natural<br></div><div class=""intro"">1 = Most Natural<br><br></div><div class=""intro"">Remember to use the <strong><em>entire range</em></strong> of the slider to make your ratings.<br></div><div class=""intro"">Please <strong><em>take your time</em></strong> and carefully consider each rating you make.<br><br></div>","0","",""
"","","","","","call-function","237","1311981","0.0-237.0","1920x1080","","","","","","",""
"","","","","","animation","238","1320226","0.0-238.0","1920x1080","","8244.39999999851","21","img/314/4/1.5/bw/001.png","","","natural"
"","","","","","animation","239","1324594","0.0-239.0","1920x1080","","4366.60000000149","32.41","img/238/4.5/2/bw/001.png","","","natural"
"","","","","","animation","240","1328155","0.0-240.0","1920x1080","","3557.9000000059605","21.16","img/117/5.5/0.66667/bw/001.png","","","natural"
"","","","","","animation","241","1332188","0.0-241.0","1920x1080","","4031.6999999955297","50.00","img/314/4/0.5/bw/001.png","","","natural"
"","","","","","animation","242","1336138","0.0-242.0","1920x1080","","3948.89999999851","84","img/314/5.5/2/bw/001.png","","","natural"
"","","","","","animation","243","1340674","0.0-243.0","1920x1080","","4534.60000000149","54","img/117/4/0.66667/bw/001.png","","","natural"
"","","","","","animation","244","1344706","0.0-244.0","1920x1080","","4030.89999999851","55.95","img/314/3.5/1.5/bw/001.png","","","natural"
"","","","","","animation","245","1347131","0.0-245.0","1920x1080","","2423.5","56.35","img/117/3.5/2/bw/001.png","","","natural"
"","","","","","animation","246","1351355","0.0-246.0","1920x1080","","4223.20000000298","62.30","img/238/3.5/2/bw/001.png","","","natural"
"","","","","","animation","247","1354195","0.0-247.0","1920x1080","","2837.39999999851","66","img/117/4/1.5/bw/001.png","","","natural"
"","","","","","animation","248","1357242","0.0-248.0","1920x1080","","3046.89999999851","69.71","img/314/3.5/2/bw/001.png","","","natural"
"","","","","","animation","249","1361639","0.0-249.0","1920x1080","","4395.10000000149","51.46","img/238/5.5/0.5/bw/001.png","","","natural"
"","","","","","animation","250","1366210","0.0-250.0","1920x1080","","4570.39999999851","56.48","img/238/5.5/0.66667/bw/001.png","","","natural"
"","","","","","animation","251","1368306","0.0-251.0","1920x1080","","2093.7000000029802","62","img/117/3.5/1/bw/001.png","","","natural"
"","","","","","animation","252","1371055","0.0-252.0","1920x1080","","2748.1999999955297","70.50","img/238/4/0.66667/bw/001.png","","","natural"
"","","","","","animation","253","1374638","0.0-253.0","1920x1080","","3581.7999999970198","68","img/117/4.5/0.5/bw/001.png","","","natural"
"","","","","","animation","254","1377915","0.0-254.0","1920x1080","","3275","41.40","img/117/3.5/0.5/bw/001.png","","","natural"
"","","","","","animation","255","1383922","0.0-255.0","1920x1080","","6006","-77.25","img/117/2.5/1.5/bw/001.png","","","natural"
"","","","","","animation","256","1388389","0.0-256.0","1920x1080","","4464.80000000447","82.94","img/314/4.5/1/bw/001.png","","","natural"
"","","","","","animation","257","1390859","0.0-257.0","1920x1080","","2468.5","84","img/238/4.5/0.66667/bw/001.png","","","natural"
"","","","","","animation","258","1395707","0.0-258.0","1920x1080","","4845.60000000149","69.44","img/314/5.5/0.5/bw/001.png","","","natural"
"","","","","","animation","259","1398790","0.0-259.0","1920x1080","","3081.9000000059605","60","img/314/4/2/bw/001.png","","","natural"
"","","","","","animation","260","1401240","0.0-260.0","1920x1080","","2448.7999999970198","60.05","img/117/4/0.5/bw/001.png","","","natural"
"","","","","","animation","261","1403673","0.0-261.0","1920x1080","","2431.7999999970198","-31.75","img/314/2.5/0.66667/bw/001.png","","","natural"
"","","","","","animation","262","1408523","0.0-262.0","1920x1080","","4849.20000000298","18.12","img/238/4.5/1.5/bw/001.png","","","natural"
"","","","","","animation","263","1411556","0.0-263.0","1920x1080","","3031.5","0","img/238/2.5/2/bw/001.png","","","natural"
"","","","","","animation","264","1414212","0.0-264.0","1920x1080","","2654.10000000149","0.53","img/238/2.5/1/bw/001.png","","","natural"
"","","","","","animation","265","1418259","0.0-265.0","1920x1080","","4046.2000000029802","59.92","img/314/3.5/0.5/bw/001.png","","","natural"
"","","","","","animation","266","1420307","0.0-266.0","1920x1080","","2046.7000000029802","50.53","img/314/3.5/1/bw/001.png","","","natural"
"","","","","","animation","267","1423207","0.0-267.0","1920x1080","","2898","8","img/117/2.5/2/bw/001.png","","","natural"
"","","","","","animation","268","1427108","0.0-268.0","1920x1080","","3899.5","62.04","img/117/5.5/2/bw/001.png","","","natural"
"","","","","","animation","269","1430424","0.0-269.0","1920x1080","","3312.7000000029802","-42.46","img/314/2.5/2/bw/001.png","","","natural"
"","","","","","animation","270","1434540","0.0-270.0","1920x1080","","4115.0999999940395","60.05","img/314/5.5/0.66667/bw/001.png","","","natural"
"","","","","","animation","271","1439274","0.0-271.0","1920x1080","","4732.79999999702","29.23","img/314/4.5/2/bw/001.png","","","natural"
"","","","","","animation","272","1444123","0.0-272.0","1920x1080","","4844","-19.97","img/314/2.5/1.5/bw/001.png","","","natural"
"","","","","","animation","273","1449107","0.0-273.0","1920x1080","","4982.70000000298","72.22","img/314/5.5/1.5/bw/001.png","","","natural"
"","","","","","animation","274","1453614","0.0-274.0","1920x1080","","4501.89999999851","42.59","img/117/5.5/1.5/bw/001.png","","","natural"
"","","","","","animation","275","1456825","0.0-275.0","1920x1080","","3210.2999999970198","52.12","img/117/4.5/0.66667/bw/001.png","","","natural"
"","","","","","animation","276","1460292","0.0-276.0","1920x1080","","3465.5","0.40","img/117/2.5/0.5/bw/001.png","","","natural"
"","","","","","animation","277","1465826","0.0-277.0","1920x1080","","5532.5","51","img/314/4.5/0.66667/bw/001.png","","","natural"
"","","","","","animation","278","1468508","0.0-278.0","1920x1080","","2681.5","-47.35","img/314/2.5/0.5/bw/001.png","","","natural"
"","","","","","animation","279","1481275","0.0-279.0","1920x1080","","12765.70000000298","56","img/238/3.5/0.66667/bw/001.png","","","natural"
"","","","","","animation","280","1483792","0.0-280.0","1920x1080","","2515.60000000149","-25.13","img/117/2.5/0.66667/bw/001.png","","","natural"
"","","","","","animation","281","1486647","0.0-281.0","1920x1080","","2853.39999999851","-10.58","img/238/2.5/1.5/bw/001.png","","","natural"
"","","","","","animation","282","1489677","0.0-282.0","1920x1080","","3028.89999999851","29","img/238/4/1/bw/001.png","","","natural"
"","","","","","animation","283","1491949","0.0-283.0","1920x1080","","2270.8000000044703","3.44","img/238/2.5/0.5/bw/001.png","","","natural"
"","","","","","animation","284","1496767","0.0-284.0","1920x1080","","4816.10000000149","65","img/238/3.5/1/bw/001.png","","","natural"
"","","","","","animation","285","1498981","0.0-285.0","1920x1080","","2212.2999999970198","53","img/117/3.5/0.66667/bw/001.png","","","natural"
"","","","","","animation","286","1501926","0.0-286.0","1920x1080","","2941","39.81","img/314/4.5/1.5/bw/001.png","","","natural"
"","","","","","animation","287","1504261","0.0-287.0","1920x1080","","2334.2999999970198","1.72","img/117/2.5/1/bw/001.png","","","natural"
"","","","","","animation","288","1506477","0.0-288.0","1920x1080","","2214.60000000149","63","img/117/4.5/2/bw/001.png","","","natural"
"","","","","","animation","289","1509598","0.0-289.0","1920x1080","","3119.0999999940395","50.00","img/117/4/2/bw/001.png","","","natural"
"","","","","","animation","290","1512327","0.0-290.0","1920x1080","","2726.2999999970198","1.72","img/314/2.5/1/bw/001.png","","","natural"
"","","","","","animation","291","1516783","0.0-291.0","1920x1080","","4454.69999999553","62","img/238/5.5/1.5/bw/001.png","","","natural"
"","","","","","animation","292","1520316","0.0-292.0","1920x1080","","3531.7999999970198","75.93","img/117/4/1/bw/001.png","","","natural"
"","","","","","animation","293","1522552","0.0-293.0","1920x1080","","2233.60000000149","60.32","img/238/5.5/1/bw/001.png","","","natural"
"","","","","","animation","294","1525951","0.0-294.0","1920x1080","","3397.3000000044703","73.54","img/238/3.5/1.5/bw/001.png","","","natural"
"","","","","","animation","295","1531344","0.0-295.0","1920x1080","","5390.5","80.82","img/238/5.5/2/bw/001.png","","","natural"
"","","","","","animation","296","1540344","0.0-296.0","1920x1080","","8999.10000000149","31","img/238/4.5/1/bw/001.png","","","natural"
"","","","","","animation","297","1546551","0.0-297.0","1920x1080","","6205.5","33","img/314/5.5/1/bw/001.png","","","natural"
"","","","","","animation","298","1551143","0.0-298.0","1920x1080","","4590.89999999851","45.63","img/117/5.5/0.5/bw/001.png","","","natural"
"","","","","","animation","299","1558436","0.0-299.0","1920x1080","","7291.70000000298","44.05","img/117/5.5/1/bw/001.png","","","natural"
"","","","","","animation","300","1560502","0.0-300.0","1920x1080","","2064.5","46.43","img/314/3.5/0.66667/bw/001.png","","","natural"
"","","","","","animation","301","1562968","0.0-301.0","1920x1080","","2464.10000000149","58","img/238/3.5/0.5/bw/001.png","","","natural"
"","","","","","animation","302","1564751","0.0-302.0","1920x1080","","1782","54.37","img/238/4.5/0.5/bw/001.png","","","natural"
"","","","","","animation","303","1567279","0.0-303.0","1920x1080","","2526.5","63.36","img/238/4/2/bw/001.png","","","natural"
"","","","","","animation","304","1571467","0.0-304.0","1920x1080","","4183.70000000298","67.33","img/314/4/0.66667/bw/001.png","","","natural"
"","","","","","animation","305","1574785","0.0-305.0","1920x1080","","3316.60000000149","69.31","img/117/4.5/1/bw/001.png","","","natural"
"","","","","","animation","306","1578862","0.0-306.0","1920x1080","","4075.60000000149","70.11","img/117/3.5/1.5/bw/001.png","","","natural"
"","","","","","animation","307","1581979","0.0-307.0","1920x1080","","3113.5","4.37","img/238/2.5/0.66667/bw/001.png","","","natural"
"","","","","","animation","308","1587785","0.0-308.0","1920x1080","","5805.4000000059605","56.35","img/314/4/1/bw/001.png","","","natural"
"","","","","","animation","309","1593946","0.0-309.0","1920x1080","","6158.79999999702","65.21","img/238/4/1.5/bw/001.png","","","natural"
"","","","","","animation","310","1597145","0.0-310.0","1920x1080","","3196","71.56","img/117/4.5/1.5/bw/001.png","","","natural"
"","","","","","animation","311","1604389","0.0-311.0","1920x1080","","7241.39999999851","59.79","img/238/4/0.5/bw/001.png","","","natural"
"","","","","","animation","312","1609520","0.0-312.0","1920x1080","","5129.39999999851","39","img/314/4.5/0.5/bw/001.png","","","natural"
"","","","","","html-button-response","313","1628802","0.0-313.0","1920x1080","","19280.10000000149","","<div class=""intro"">You are about to view a new series of animations.<br><br></div><div class=""intro"">You will evaluate them based on a different descriptor.<br><br></div><div class=""intro"">Move the slider to indicate how <strong style=""text-transform:capitalize"">APPEALING</strong> you find each animation.<br><br></div><div class=""intro"">0 = Least Appealing<br></div><div class=""intro"">1 = Most Appealing<br><br></div><div class=""intro"">Remember to use the <strong><em>entire range</em></strong> of the slider to make your ratings.<br></div><div class=""intro"">Please <strong><em>take your time</em></strong> and carefully consider each rating you make.<br><br></div>","0","",""
"","","","","","call-function","314","1628803","0.0-314.0","1920x1080","","","","","","",""
"","","","","","animation","315","1634231","0.0-315.0","1920x1080","","5425.80000000447","99","img/238/5.5/2/bw/001.png","","","appealing"
"","","","","","animation","316","1636403","0.0-316.0","1920x1080","","2170.60000000149","78.70","img/314/5.5/1/bw/001.png","","","appealing"
"","","","","","animation","317","1638882","0.0-317.0","1920x1080","","2478.2999999970198","1.98","img/238/2.5/2/bw/001.png","","","appealing"
"","","","","","animation","318","1641664","0.0-318.0","1920x1080","","2780.60000000149","2.51","img/117/2.5/0.66667/bw/001.png","","","appealing"
"","","","","","animation","319","1644003","0.0-319.0","1920x1080","","2336.89999999851","5.03","img/314/2.5/1/bw/001.png","","","appealing"
"","","","","","animation","320","1646089","0.0-320.0","1920x1080","","2083.3000000044703","17.99","img/314/3.5/1/bw/001.png","","","appealing"
"","","","","","animation","321","1648338","0.0-321.0","1920x1080","","2248.1999999955297","11.24","img/117/4/1/bw/001.png","","","appealing"
"","","","","","animation","322","1650791","0.0-322.0","1920x1080","","2450.89999999851","39.29","img/117/4.5/1.5/bw/001.png","","","appealing"
"","","","","","animation","323","1653675","0.0-323.0","1920x1080","","2882.2000000029802","30.56","img/238/4/0.5/bw/001.png","","","appealing"
"","","","","","animation","324","1656549","0.0-324.0","1920x1080","","2872.60000000149","36.24","img/238/4/1.5/bw/001.png","","","appealing"
"","","","","","animation","325","1660597","0.0-325.0","1920x1080","","4046.10000000149","37.96","img/238/4.5/1.5/bw/001.png","","","appealing"
"","","","","","animation","326","1665106","0.0-326.0","1920x1080","","4507.39999999851","42.33","img/314/4/0.66667/bw/001.png","","","appealing"
"","","","","","animation","327","1667064","0.0-327.0","1920x1080","","1955.7000000029802","3","img/238/2.5/1.5/bw/001.png","","","appealing"
"","","","","","animation","328","1670347","0.0-328.0","1920x1080","","3281.8000000044703","45.37","img/314/4.5/0.66667/bw/001.png","","","appealing"
"","","","","","animation","329","1673171","0.0-329.0","1920x1080","","2822.2000000029802","3.31","img/238/2.5/0.5/bw/001.png","","","appealing"
"","","","","","animation","330","1676333","0.0-330.0","1920x1080","","3160.5999999940395","3.04","img/238/3.5/0.5/bw/001.png","","","appealing"
"","","","","","animation","331","1680619","0.0-331.0","1920x1080","","4283","99","img/238/5.5/1/bw/001.png","","","appealing"
"","","","","","animation","332","1686988","0.0-332.0","1920x1080","","6366.39999999851","43.12","img/117/3.5/1/bw/001.png","","","appealing"
"","","","","","animation","333","1690152","0.0-333.0","1920x1080","","3163.10000000149","64.15","img/238/4.5/0.5/bw/001.png","","","appealing"
"","","","","","animation","334","1692985","0.0-334.0","1920x1080","","2830.7000000029802","0","img/238/2.5/1/bw/001.png","","","appealing"
"","","","","","animation","335","1695756","0.0-335.0","1920x1080","","2769.2999999970198","11.64","img/117/3.5/0.66667/bw/001.png","","","appealing"
"","","","","","animation","336","1701364","0.0-336.0","1920x1080","","5606","90","img/314/5.5/0.66667/bw/001.png","","","appealing"
"","","","","","animation","337","1704837","0.0-337.0","1920x1080","","3470.5999999940395","67.06","img/314/4.5/1/bw/001.png","","","appealing"
"","","","","","animation","338","1707729","0.0-338.0","1920x1080","","2891.2000000029802","13.10","img/238/2.5/0.66667/bw/001.png","","","appealing"
"","","","","","animation","339","1710349","0.0-339.0","1920x1080","","2618.3000000044703","18.92","img/117/2.5/2/bw/001.png","","","appealing"
"","","","","","animation","340","1713064","0.0-340.0","1920x1080","","2713.3000000044703","30.16","img/238/3.5/1.5/bw/001.png","","","appealing"
"","","","","","animation","341","1715259","0.0-341.0","1920x1080","","2193.8000000044703","37.83","img/238/4/2/bw/001.png","","","appealing"
"","","","","","animation","342","1717205","0.0-342.0","1920x1080","","1943.6999999955297","42.59","img/238/4.5/1/bw/001.png","","","appealing"
"","","","","","animation","343","1720098","0.0-343.0","1920x1080","","2890.39999999851","6.35","img/314/2.5/2/bw/001.png","","","appealing"
"","","","","","animation","344","1724539","0.0-344.0","1920x1080","","4439.5999999940395","91.93","img/238/5.5/1.5/bw/001.png","","","appealing"
"","","","","","animation","345","1726914","0.0-345.0","1920x1080","","2373.3000000044703","67.46","img/117/5.5/2/bw/001.png","","","appealing"
"","","","","","animation","346","1731989","0.0-346.0","1920x1080","","5072.89999999851","13","img/117/3.5/1.5/bw/001.png","","","appealing"
"","","","","","animation","347","1734774","0.0-347.0","1920x1080","","2782.8000000044703","45.63","img/117/4/0.5/bw/001.png","","","appealing"
"","","","","","animation","348","1738539","0.0-348.0","1920x1080","","3763.7999999970198","63","img/314/3.5/2/bw/001.png","","","appealing"
"","","","","","animation","349","1740269","0.0-349.0","1920x1080","","1728.3999999985099","55.29","img/314/3.5/1.5/bw/001.png","","","appealing"
"","","","","","animation","350","1743858","0.0-350.0","1920x1080","","3586.9000000059605","27.38","img/314/3.5/0.66667/bw/001.png","","","appealing"
"","","","","","animation","351","1747315","0.0-351.0","1920x1080","","3455.5","39.68","img/117/5.5/0.66667/bw/001.png","","","appealing"
"","","","","","animation","352","1749860","0.0-352.0","1920x1080","","2544.39999999851","11.11","img/117/5.5/0.5/bw/001.png","","","appealing"
"","","","","","animation","353","1754283","0.0-353.0","1920x1080","","4419.80000000447","88.76","img/238/4.5/2/bw/001.png","","","appealing"
"","","","","","animation","354","1758140","0.0-354.0","1920x1080","","3855.4000000059605","3.31","img/238/3.5/0.66667/bw/001.png","","","appealing"
"","","","","","animation","355","1760298","0.0-355.0","1920x1080","","2156.89999999851","24.07","img/117/4/2/bw/001.png","","","appealing"
"","","","","","animation","356","1764616","0.0-356.0","1920x1080","","4315.89999999851","86.90","img/238/5.5/0.5/bw/001.png","","","appealing"
"","","","","","animation","357","1766657","0.0-357.0","1920x1080","","2040.1999999955297","65","img/314/4/1/bw/001.png","","","appealing"
"","","","","","animation","358","1768859","0.0-358.0","1920x1080","","2200","42","img/314/4.5/1.5/bw/001.png","","","appealing"
"","","","","","animation","359","1772100","0.0-359.0","1920x1080","","3239.39999999851","52.38","img/314/4/1.5/bw/001.png","","","appealing"
"","","","","","animation","360","1788661","0.0-360.0","1920x1080","","16560.59999999404","48.54","img/117/4.5/0.66667/bw/001.png","","","appealing"
"","","","","","animation","361","1791549","0.0-361.0","1920x1080","","2885.0999999940395","4","img/117/2.5/1/bw/001.png","","","appealing"
"","","","","","animation","362","1794004","0.0-362.0","1920x1080","","2453.1999999955297","11.38","img/117/2.5/0.5/bw/001.png","","","appealing"
"","","","","","animation","363","1799716","0.0-363.0","1920x1080","","5710.10000000149","74","img/314/5.5/0.5/bw/001.png","","","appealing"
"","","","","","animation","364","1802049","0.0-364.0","1920x1080","","2331.60000000149","49.21","img/117/3.5/2/bw/001.png","","","appealing"
"","","","","","animation","365","1804484","0.0-365.0","1920x1080","","2432.89999999851","70.50","img/314/5.5/2/bw/001.png","","","appealing"
"","","","","","animation","366","1807136","0.0-366.0","1920x1080","","2650.10000000149","92","img/238/5.5/0.66667/bw/001.png","","","appealing"
"","","","","","animation","367","1818644","0.0-367.0","1920x1080","","11505.19999999553","49","img/238/4.5/0.66667/bw/001.png","","","appealing"
"","","","","","animation","368","1821866","0.0-368.0","1920x1080","","3220","65.08","img/117/4.5/2/bw/001.png","","","appealing"
"","","","","","animation","369","1825700","0.0-369.0","1920x1080","","3831.60000000149","6.61","img/314/2.5/1.5/bw/001.png","","","appealing"
"","","","","","animation","370","1830852","0.0-370.0","1920x1080","","5150","43.92","img/117/4.5/1/bw/001.png","","","appealing"
"","","","","","animation","371","1835084","0.0-371.0","1920x1080","","4230.60000000149","-3.84","img/314/2.5/0.5/bw/001.png","","","appealing"
"","","","","","animation","372","1838233","0.0-372.0","1920x1080","","3146.60000000149","39.95","img/314/4/2/bw/001.png","","","appealing"
"","","","","","animation","373","1840550","0.0-373.0","1920x1080","","2315.5","15.74","img/314/4.5/2/bw/001.png","","","appealing"
"","","","","","animation","374","1843866","0.0-374.0","1920x1080","","3315","71.30","img/117/4.5/0.5/bw/001.png","","","appealing"
"","","","","","animation","375","1846041","0.0-375.0","1920x1080","","2172.4000000059605","53.44","img/117/4/1.5/bw/001.png","","","appealing"
"","","","","","animation","376","1848157","0.0-376.0","1920x1080","","2113.6999999955297","18.12","img/117/3.5/0.5/bw/001.png","","","appealing"
"","","","","","animation","377","1850199","0.0-377.0","1920x1080","","2041","27.51","img/117/4/0.66667/bw/001.png","","","appealing"
"","","","","","animation","378","1852937","0.0-378.0","1920x1080","","2733.7999999970198","72","img/117/5.5/1.5/bw/001.png","","","appealing"
"","","","","","animation","379","1856042","0.0-379.0","1920x1080","","3103.10000000149","25.93","img/238/3.5/1/bw/001.png","","","appealing"
"","","","","","animation","380","1858333","0.0-380.0","1920x1080","","2289.60000000149","40.34","img/314/4/0.5/bw/001.png","","","appealing"
"","","","","","animation","381","1865316","0.0-381.0","1920x1080","","6981.69999999553","85","img/314/5.5/1.5/bw/001.png","","","appealing"
"","","","","","animation","382","1868783","0.0-382.0","1920x1080","","3463.39999999851","6","img/117/2.5/1.5/bw/001.png","","","appealing"
"","","","","","animation","383","1871901","0.0-383.0","1920x1080","","3115","30.95","img/314/4.5/0.5/bw/001.png","","","appealing"
"","","","","","animation","384","1874684","0.0-384.0","1920x1080","","2781.2999999970198","19.58","img/314/3.5/0.5/bw/001.png","","","appealing"
"","","","","","animation","385","1877335","0.0-385.0","1920x1080","","2649","75.40","img/117/5.5/1/bw/001.png","","","appealing"
"","","","","","animation","386","1879434","0.0-386.0","1920x1080","","2094.4000000059605","43.25","img/238/4/0.66667/bw/001.png","","","appealing"
"","","","","","animation","387","1882284","0.0-387.0","1920x1080","","2848.60000000149","2","img/314/2.5/0.66667/bw/001.png","","","appealing"
"","","","","","animation","388","1884751","0.0-388.0","1920x1080","","2464.60000000149","32.28","img/238/4/1/bw/001.png","","","appealing"
"","","","","","animation","389","1888304","0.0-389.0","1920x1080","","3551.5","60.45","img/238/3.5/2/bw/001.png","","","appealing"
"","","","","","html-button-response","390","1999794","0.0-390.0","1920x1080","","111487.60000000149","","<strong>Study Debriefing</strong><br><p class=""debrief""><strong>Background:</strong> The patterns you rated are called <em>fractals</em>. The term fractal describes a class of irregular curves or shapes for which any suitably chosen part is similar in shape to a given larger or smaller part when magnified or reduced to the same size. Fractal properties are found throughout the natural and manmade world. The series of animations you saw today displayed animated fractal patterns of a varying complexity.</p><p class=""debrief""><strong>Purpose of this study:</strong> We hope to better understand how the perception of static fractals differs from the perception of animated fractals, and how the speed of the animated patterns influences people&apos;s perception of them. Fractals allow us to study the perception of aesthetic properties (e.g. the perceived level of beauty in an image) without using recognizable content, which makes them an excellent tool for studying abstract aesthetic judgement.</p><p class=""debrief""><strong>Your part:</strong> Your participation has helped us to further understand how humans perceive these patterns across different levels of speed and complexity. This research with allow us to better understand how the visual system and brain process our ever-changing visual environments.<p class=""debrief""><strong>Feedback and Further information:</strong> If you have additional questions about this study, please feel free to ask the researcher, Nathan Gonzales-Hess at nhess @ uoregon.edu. If you have any questions concerning your rights as a research participant, please contact Research Compliance Services, 5237 University of Oregon, Eugene, OR 97403, 541-346-2510, or email researchCompliance @ uoregon.edu. You can also email the Human Subjects Coordinator for psychology and linguistics research at hscoord @ uoregon.edu. ","0","",""
"","","","","","html-button-response","391","3758424","0.0-391.0","1920x1080","","1758632","","Thank you for participating in this study. <br>Please click below to finish the experiment and submit your responses.<br><br>","0","",""
"true","","","","","fullscreen","392","3759433","0.0-392.0","1920x1080","12:57 7/10/2022","","","","","",""
