"success","timeout","failed_images","failed_audio","failed_video","trial_type","trial_index","time_elapsed","internal_node_id","resolution","timeStamp","rt","response","stimulus","button_pressed","value","descriptor"
"true","false","[]","[]","[]","preload","0","26346","0.0-0.0","1920x1080","","","","","","",""
"true","false","[]","[]","[]","preload","1","72201","0.0-1.0","1920x1080","","","","","","",""
"true","false","[]","[]","[]","preload","2","123748","0.0-2.0","1920x1080","","","","","","",""
"true","","","","","fullscreen","3","133536","0.0-3.0","1920x1080","9:37 16/5/2022","","","","","",""
"","","","","","survey-html-form","4","145959","0.0-4.0","1920x1080","","12422.300000011921","{""age"":""19"",""gender"":""Male""}","","","",""
"","","","","","html-button-response","5","188407","0.0-5.0","1920x1080","","42447","","<div class=""intro"">You are going to see a series of animations.<br><br></div><div class=""intro"">Move the slider to indicate how <strong style=""text-transform:capitalize"">COMPLEX</strong> you find each animation.<br><br></div><div class=""intro"">0 = Least Complex<br></div><div class=""intro"">1 = Most Complex<br><br></div><div class=""intro"">Remember to use the <strong><em>entire range</em></strong> of the slider to make your ratings.<br></div><div class=""intro"">Please <strong><em>take your time</em></strong> and carefully consider each rating you make.<br><br></div><div class=""intro"">The study will take approximately 1 hour to complete.<br><br></div>","0","",""
"","","","","","call-function","6","188408","0.0-6.0","1920x1080","","","","","","",""
"","","","","","animation","7","214183","0.0-7.0","1920x1080","","25773.600000023842","26.19","img/238/3.5/2/bw/001.png","","","complex"
"","","","","","animation","8","219559","0.0-8.0","1920x1080","","5375.099999964237","69.44","img/117/2.5/0.5/bw/001.png","","","complex"
"","","","","","animation","9","235127","0.0-9.0","1920x1080","","15566.699999988079","14.29","img/314/5.5/0.5/bw/001.png","","","complex"
"","","","","","animation","10","247902","0.0-10.0","1920x1080","","12775.199999988079","54.50","img/238/3.5/0.5/bw/001.png","","","complex"
"","","","","","animation","11","255166","0.0-11.0","1920x1080","","7263.100000023842","45.11","img/314/3.5/2/bw/001.png","","","complex"
"","","","","","animation","12","307187","0.0-12.0","1920x1080","","52031","42.06","img/117/3.5/1/bw/001.png","","","complex"
"","","","","","animation","13","311267","0.0-13.0","1920x1080","","4079.300000011921","10.45","img/117/5.5/0.5/bw/001.png","","","complex"
"","","","","","animation","14","318371","0.0-14.0","1920x1080","","7103.300000011921","50.79","img/117/4/1/bw/001.png","","","complex"
"","","","","","animation","15","322595","0.0-15.0","1920x1080","","4223.400000035763","20.50","img/238/4.5/1/bw/001.png","","","complex"
"","","","","","animation","16","354875","0.0-16.0","1920x1080","","32279.400000035763","41.67","img/314/4/1/bw/001.png","","","complex"
"","","","","","animation","17","362142","0.0-17.0","1920x1080","","7327.199999988079","62","img/314/3.5/0.66667/bw/001.png","","","complex"
"","","","","","animation","18","375510","0.0-18.0","1920x1080","","13367.599999964237","3.17","img/238/5.5/0.66667/bw/001.png","","","complex"
"","","","","","animation","19","392366","0.0-19.0","1920x1080","","16855.5","71.83","img/238/3.5/0.66667/bw/001.png","","","complex"
"","","","","","animation","20","396342","0.0-20.0","1920x1080","","3974.800000011921","99","img/314/2.5/0.5/bw/001.png","","","complex"
"","","","","","animation","21","401175","0.0-21.0","1920x1080","","4832.300000011921","12.04","img/117/5.5/1/bw/001.png","","","complex"
"","","","","","animation","22","420546","0.0-22.0","1920x1080","","19430.5","94","img/117/2.5/0.66667/bw/001.png","","","complex"
"","","","","","animation","23","435890","0.0-23.0","1920x1080","","15342.600000023842","42","img/314/4/0.66667/bw/001.png","","","complex"
"","","","","","animation","24","448298","0.0-24.0","1920x1080","","12407.5","57.41","img/314/4/0.5/bw/001.png","","","complex"
"","","","","","animation","25","476490","0.0-25.0","1920x1080","","28191.399999976158","36.51","img/117/4/2/bw/001.png","","","complex"
"","","","","","animation","26","486070","0.0-26.0","1920x1080","","9640","73.28","img/314/2.5/1/bw/001.png","","","complex"
"","","","","","animation","27","490287","0.0-27.0","1920x1080","","4216.199999988079","82.14","img/117/2.5/1/bw/001.png","","","complex"
"","","","","","animation","28","542905","0.0-28.0","1920x1080","","52677.5","4.10","img/314/5.5/1.5/bw/001.png","","","complex"
"","","","","","animation","29","601143","0.0-29.0","1920x1080","","58285.299999952316","33.20","img/238/4/0.66667/bw/001.png","","","complex"
"","","","","","animation","30","619624","0.0-30.0","1920x1080","","18479","34","img/117/4/1.5/bw/001.png","","","complex"
"","","","","","animation","31","625512","0.0-31.0","1920x1080","","5886.899999976158","18.65","img/314/4.5/0.5/bw/001.png","","","complex"
"","","","","","animation","32","634944","0.0-32.0","1920x1080","","9430.799999952316","63","img/314/3.5/0.5/bw/001.png","","","complex"
"","","","","","animation","33","684768","0.0-33.0","1920x1080","","49823.60000002384","54","img/117/4/0.5/bw/001.png","","","complex"
"","","","","","animation","34","691896","0.0-34.0","1920x1080","","7126.5","75","img/238/2.5/2/bw/001.png","","","complex"
"","","","","","animation","35","694577","0.0-35.0","1920x1080","","2680.099999964237","14.29","img/238/4/1.5/bw/001.png","","","complex"
"","","","","","animation","36","698024","0.0-36.0","1920x1080","","3446.800000011921","-3.84","img/314/5.5/1/bw/001.png","","","complex"
"","","","","","animation","37","739840","0.0-37.0","1920x1080","","41815.10000002384","25.53","img/314/4.5/1/bw/001.png","","","complex"
"","","","","","animation","38","778016","0.0-38.0","1920x1080","","38175","15","img/314/4.5/2/bw/001.png","","","complex"
"","","","","","animation","39","789512","0.0-39.0","1920x1080","","11495","2.51","img/117/5.5/0.66667/bw/001.png","","","complex"
"","","","","","animation","40","797032","0.0-40.0","1920x1080","","7519.300000011921","93","img/238/2.5/0.66667/bw/001.png","","","complex"
"","","","","","animation","41","820593","0.0-41.0","1920x1080","","23560.100000023842","1.98","img/314/5.5/0.66667/bw/001.png","","","complex"
"","","","","","animation","42","829577","0.0-42.0","1920x1080","","8982.699999988079","88","img/238/2.5/0.5/bw/001.png","","","complex"
"","","","","","animation","43","838193","0.0-43.0","1920x1080","","8615.199999988079","18.39","img/238/4.5/2/bw/001.png","","","complex"
"","","","","","animation","44","862519","0.0-44.0","1920x1080","","24326.099999964237","25.79","img/117/4.5/0.66667/bw/001.png","","","complex"
"","","","","","animation","45","890751","0.0-45.0","1920x1080","","28228.399999976158","78.31","img/238/2.5/1.5/bw/001.png","","","complex"
"","","","","","animation","46","943952","0.0-46.0","1920x1080","","53199.200000047684","14.02","img/117/5.5/2/bw/001.png","","","complex"
"","","","","","animation","47","948616","0.0-47.0","1920x1080","","4662.600000023842","79.63","img/238/2.5/1/bw/001.png","","","complex"
"","","","","","animation","48","952225","0.0-48.0","1920x1080","","3608.800000011921","55.29","img/314/4/1.5/bw/001.png","","","complex"
"","","","","","animation","49","986871","0.0-49.0","1920x1080","","34645.39999997616","1","img/238/5.5/0.5/bw/001.png","","","complex"
"","","","","","animation","50","993383","0.0-50.0","1920x1080","","6510.800000011921","17.33","img/117/4.5/0.5/bw/001.png","","","complex"
"","","","","","animation","51","1007031","0.0-51.0","1920x1080","","13646.699999988079","44","img/314/2.5/2/bw/001.png","","","complex"
"","","","","","animation","52","1022215","0.0-52.0","1920x1080","","15182.699999988079","60.32","img/314/3.5/1.5/bw/001.png","","","complex"
"","","","","","animation","53","1059847","0.0-53.0","1920x1080","","37631.09999996424","44.05","img/314/3.5/1/bw/001.png","","","complex"
"","","","","","animation","54","1062008","0.0-54.0","1920x1080","","2160","13.89","img/238/4.5/0.5/bw/001.png","","","complex"
"","","","","","animation","55","1067247","0.0-55.0","1920x1080","","5238.099999964237","19","img/238/4/2/bw/001.png","","","complex"
"","","","","","animation","56","1096104","0.0-56.0","1920x1080","","28855.399999976158","64.68","img/117/3.5/2/bw/001.png","","","complex"
"","","","","","animation","57","1146826","0.0-57.0","1920x1080","","50716.19999998808","36.38","img/117/3.5/1.5/bw/001.png","","","complex"
"","","","","","animation","58","1191280","0.0-58.0","1920x1080","","44451.80000001192","13.49","img/238/4.5/1.5/bw/001.png","","","complex"
"","","","","","animation","59","1203110","0.0-59.0","1920x1080","","11825.100000023842","90.61","img/117/2.5/2/bw/001.png","","","complex"
"","","","","","animation","60","1207218","0.0-60.0","1920x1080","","4107.799999952316","49.47","img/238/4/0.5/bw/001.png","","","complex"
"","","","","","animation","61","1283219","0.0-61.0","1920x1080","","75999.09999996424","48","img/314/4/2/bw/001.png","","","complex"
"","","","","","animation","62","1314451","0.0-62.0","1920x1080","","31230.400000035763","33.20","img/117/4.5/1.5/bw/001.png","","","complex"
"","","","","","animation","63","1318003","0.0-63.0","1920x1080","","3548.199999988079","43.25","img/117/4.5/1/bw/001.png","","","complex"
"","","","","","animation","64","1329827","0.0-64.0","1920x1080","","11822.600000023842","53.17","img/238/3.5/1.5/bw/001.png","","","complex"
"","","","","","animation","65","1349435","0.0-65.0","1920x1080","","19607.30000001192","71","img/117/2.5/1.5/bw/001.png","","","complex"
"","","","","","animation","66","1381211","0.0-66.0","1920x1080","","31773.80000001192","2.65","img/238/5.5/2/bw/001.png","","","complex"
"","","","","","animation","67","1415916","0.0-67.0","1920x1080","","34703.5","66.67","img/314/2.5/1.5/bw/001.png","","","complex"
"","","","","","animation","68","1449058","0.0-68.0","1920x1080","","33142.60000002384","9.13","img/117/5.5/1.5/bw/001.png","","","complex"
"","","","","","animation","69","1452403","0.0-69.0","1920x1080","","3343.699999988079","99","img/314/2.5/0.66667/bw/001.png","","","complex"
"","","","","","animation","70","1474699","0.0-70.0","1920x1080","","22294.899999976158","1.32","img/238/5.5/1/bw/001.png","","","complex"
"","","","","","animation","71","1478875","0.0-71.0","1920x1080","","4174.699999988079","0","img/314/5.5/2/bw/001.png","","","complex"
"","","","","","animation","72","1483874","0.0-72.0","1920x1080","","4999","39.42","img/238/3.5/1/bw/001.png","","","complex"
"","","","","","animation","73","1487308","0.0-73.0","1920x1080","","3432.5","0","img/238/5.5/1.5/bw/001.png","","","complex"
"","","","","","animation","74","1490362","0.0-74.0","1920x1080","","3053.100000023842","23.81","img/314/4.5/1.5/bw/001.png","","","complex"
"","","","","","animation","75","1492635","0.0-75.0","1920x1080","","2271.2999999523163","34.79","img/117/4.5/2/bw/001.png","","","complex"
"","","","","","animation","76","1495403","0.0-76.0","1920x1080","","2767.699999988079","51.59","img/117/4/0.66667/bw/001.png","","","complex"
"","","","","","animation","77","1541259","0.0-77.0","1920x1080","","45854.59999996424","20.90","img/238/4.5/0.66667/bw/001.png","","","complex"
"","","","","","animation","78","1548627","0.0-78.0","1920x1080","","7366.599999964237","57.28","img/117/3.5/0.5/bw/001.png","","","complex"
"","","","","","animation","79","1551659","0.0-79.0","1920x1080","","3031.099999964237","40.48","img/314/4.5/0.66667/bw/001.png","","","complex"
"","","","","","animation","80","1572699","0.0-80.0","1920x1080","","21039.600000023842","29.76","img/238/4/1/bw/001.png","","","complex"
"","","","","","animation","81","1576651","0.0-81.0","1920x1080","","3951.300000011921","58.07","img/117/3.5/0.66667/bw/001.png","","","complex"
"","","","","","html-button-response","82","1607379","0.0-82.0","1920x1080","","30727","","<div class=""intro"">You are about to view a new series of animations.<br><br></div><div class=""intro"">You will evaluate them based on a different descriptor.<br><br></div><div class=""intro"">Move the slider to indicate how <strong style=""text-transform:capitalize"">INTERESTING</strong> you find each animation.<br><br></div><div class=""intro"">0 = Least Interesting<br></div><div class=""intro"">1 = Most Interesting<br><br></div><div class=""intro"">Remember to use the <strong><em>entire range</em></strong> of the slider to make your ratings.<br></div><div class=""intro"">Please <strong><em>take your time</em></strong> and carefully consider each rating you make.<br><br></div>","0","",""
"","","","","","call-function","83","1607382","0.0-83.0","1920x1080","","","","","","",""
"","","","","","animation","84","1648996","0.0-84.0","1920x1080","","41611.80000001192","79","img/238/5.5/0.66667/bw/001.png","","","interesting"
"","","","","","animation","85","1656220","0.0-85.0","1920x1080","","7223.099999964237","73.15","img/238/4.5/1.5/bw/001.png","","","interesting"
"","","","","","animation","86","1676883","0.0-86.0","1920x1080","","20662.399999976158","55.16","img/314/5.5/1.5/bw/001.png","","","interesting"
"","","","","","animation","87","1681067","0.0-87.0","1920x1080","","4183.100000023842","18.39","img/314/3.5/0.5/bw/001.png","","","interesting"
"","","","","","animation","88","1688011","0.0-88.0","1920x1080","","6942.899999976158","25","img/117/3.5/0.5/bw/001.png","","","interesting"
"","","","","","animation","89","1698995","0.0-89.0","1920x1080","","10983.199999988079","39","img/117/4/0.5/bw/001.png","","","interesting"
"","","","","","animation","90","1718827","0.0-90.0","1920x1080","","19831.100000023842","35.19","img/238/3.5/2/bw/001.png","","","interesting"
"","","","","","animation","91","1724090","0.0-91.0","1920x1080","","5262.600000023842","0","img/117/2.5/1/bw/001.png","","","interesting"
"","","","","","animation","92","1736715","0.0-92.0","1920x1080","","12623.5","31.88","img/238/4.5/0.66667/bw/001.png","","","interesting"
"","","","","","animation","93","1782058","0.0-93.0","1920x1080","","45342.60000002384","53.17","img/117/5.5/1.5/bw/001.png","","","interesting"
"","","","","","animation","94","1803172","0.0-94.0","1920x1080","","21112.30000001192","44.58","img/314/4/1/bw/001.png","","","interesting"
"","","","","","animation","95","1806995","0.0-95.0","1920x1080","","3822","0.93","img/314/2.5/0.66667/bw/001.png","","","interesting"
"","","","","","animation","96","1812459","0.0-96.0","1920x1080","","5462.100000023842","70.50","img/238/4.5/2/bw/001.png","","","interesting"
"","","","","","animation","97","1817723","0.0-97.0","1920x1080","","5263.100000023842","63.76","img/314/4.5/1/bw/001.png","","","interesting"
"","","","","","animation","98","1830331","0.0-98.0","1920x1080","","12607.600000023842","80","img/314/5.5/0.5/bw/001.png","","","interesting"
"","","","","","animation","99","1853883","0.0-99.0","1920x1080","","23550.5","33.99","img/117/3.5/2/bw/001.png","","","interesting"
"","","","","","animation","100","1877435","0.0-100.0","1920x1080","","23551.5","35.98","img/314/4/0.66667/bw/001.png","","","interesting"
"","","","","","animation","101","1881299","0.0-101.0","1920x1080","","3863","1.59","img/117/2.5/1.5/bw/001.png","","","interesting"
"","","","","","animation","102","1894172","0.0-102.0","1920x1080","","12872.399999976158","16.80","img/238/5.5/1/bw/001.png","","","interesting"
"","","","","","animation","103","1897973","0.0-103.0","1920x1080","","3799.699999988079","25.93","img/238/5.5/1.5/bw/001.png","","","interesting"
"","","","","","animation","104","1928039","0.0-104.0","1920x1080","","30064.69999998808","62","img/117/4.5/0.66667/bw/001.png","","","interesting"
"","","","","","animation","105","1947131","0.0-105.0","1920x1080","","19091","8.47","img/314/2.5/0.5/bw/001.png","","","interesting"
"","","","","","animation","106","1973907","0.0-106.0","1920x1080","","26774.799999952316","46","img/238/4/0.66667/bw/001.png","","","interesting"
"","","","","","animation","107","1981115","0.0-107.0","1920x1080","","7207.300000011921","1","img/238/2.5/0.5/bw/001.png","","","interesting"
"","","","","","animation","108","1983956","0.0-108.0","1920x1080","","2839.600000023842","7.80","img/117/2.5/2/bw/001.png","","","interesting"
"","","","","","animation","109","1987179","0.0-109.0","1920x1080","","3222.300000011921","67.20","img/314/4.5/1.5/bw/001.png","","","interesting"
"","","","","","animation","110","2015267","0.0-110.0","1920x1080","","28087.299999952316","44.71","img/238/4.5/0.5/bw/001.png","","","interesting"
"","","","","","animation","111","2022907","0.0-111.0","1920x1080","","7638.600000023842","20.77","img/117/5.5/2/bw/001.png","","","interesting"
"","","","","","animation","112","2026275","0.0-112.0","1920x1080","","3366.199999988079","57.54","img/314/4.5/2/bw/001.png","","","interesting"
"","","","","","animation","113","2090071","0.0-113.0","1920x1080","","63795.19999998808","67.99","img/314/3.5/0.66667/bw/001.png","","","interesting"
"","","","","","animation","114","2093411","0.0-114.0","1920x1080","","3338.699999988079","58.07","img/117/3.5/1/bw/001.png","","","interesting"
"","","","","","animation","115","2106691","0.0-115.0","1920x1080","","13278.5","88.10","img/238/3.5/1.5/bw/001.png","","","interesting"
"","","","","","animation","116","2147916","0.0-116.0","1920x1080","","41223.69999998808","64.29","img/117/5.5/0.5/bw/001.png","","","interesting"
"","","","","","animation","117","2150339","0.0-117.0","1920x1080","","2422.699999988079","32.14","img/314/5.5/1/bw/001.png","","","interesting"
"","","","","","animation","118","2159339","0.0-118.0","1920x1080","","8999.199999988079","57","img/238/4/2/bw/001.png","","","interesting"
"","","","","","animation","119","2235092","0.0-119.0","1920x1080","","75750.10000002384","80.03","img/117/4.5/2/bw/001.png","","","interesting"
"","","","","","animation","120","2257100","0.0-120.0","1920x1080","","22003.700000047684","71.56","img/117/5.5/1/bw/001.png","","","interesting"
"","","","","","animation","121","2259164","0.0-121.0","1920x1080","","2063.100000023842","23.68","img/314/4/0.5/bw/001.png","","","interesting"
"","","","","","animation","122","2263044","0.0-122.0","1920x1080","","3879.399999976158","38.23","img/238/3.5/0.66667/bw/001.png","","","interesting"
"","","","","","animation","123","2283197","0.0-123.0","1920x1080","","20151.200000047684","46.83","img/314/5.5/2/bw/001.png","","","interesting"
"","","","","","animation","124","2295506","0.0-124.0","1920x1080","","12307.599999964237","26.59","img/238/4.5/1/bw/001.png","","","interesting"
"","","","","","animation","125","2311397","0.0-125.0","1920x1080","","15887","0","img/314/2.5/1.5/bw/001.png","","","interesting"
"","","","","","animation","126","2322388","0.0-126.0","1920x1080","","10990.399999976158","76","img/238/3.5/1/bw/001.png","","","interesting"
"","","","","","animation","127","2325688","0.0-127.0","1920x1080","","3298.699999988079","89.55","img/117/4/2/bw/001.png","","","interesting"
"","","","","","animation","128","2329397","0.0-128.0","1920x1080","","3707.5","2.25","img/117/2.5/0.5/bw/001.png","","","interesting"
"","","","","","animation","129","2388605","0.0-129.0","1920x1080","","59206.60000002384","90.34","img/314/5.5/0.66667/bw/001.png","","","interesting"
"","","","","","animation","130","2395549","0.0-130.0","1920x1080","","6943.599999964237","2.91","img/117/2.5/0.66667/bw/001.png","","","interesting"
"","","","","","animation","131","2431996","0.0-131.0","1920x1080","","36446.89999997616","66.80","img/117/4.5/1/bw/001.png","","","interesting"
"","","","","","animation","132","2435429","0.0-132.0","1920x1080","","3427.5","0","img/314/2.5/1/bw/001.png","","","interesting"
"","","","","","animation","133","2465621","0.0-133.0","1920x1080","","30191.30000001192","69.44","img/314/4/1.5/bw/001.png","","","interesting"
"","","","","","animation","134","2486213","0.0-134.0","1920x1080","","20590.80000001192","79","img/117/4/0.66667/bw/001.png","","","interesting"
"","","","","","animation","135","2489388","0.0-135.0","1920x1080","","3174.100000023842","72.75","img/314/4/2/bw/001.png","","","interesting"
"","","","","","animation","136","2491965","0.0-136.0","1920x1080","","2575.300000011921","61.64","img/314/3.5/2/bw/001.png","","","interesting"
"","","","","","animation","137","2494590","0.0-137.0","1920x1080","","2624.5","54.10","img/314/4.5/0.66667/bw/001.png","","","interesting"
"","","","","","animation","138","2497071","0.0-138.0","1920x1080","","2479.800000011921","17.06","img/117/3.5/0.66667/bw/001.png","","","interesting"
"","","","","","animation","139","2499871","0.0-139.0","1920x1080","","2798.5","0.79","img/238/2.5/1/bw/001.png","","","interesting"
"","","","","","animation","140","2502871","0.0-140.0","1920x1080","","2999.300000011921","0","img/238/2.5/2/bw/001.png","","","interesting"
"","","","","","animation","141","2529093","0.0-141.0","1920x1080","","26220.599999964237","91.93","img/117/4/1/bw/001.png","","","interesting"
"","","","","","animation","142","2572365","0.0-142.0","1920x1080","","43266.69999998808","73.68","img/314/4.5/0.5/bw/001.png","","","interesting"
"","","","","","animation","143","2577173","0.0-143.0","1920x1080","","4807.100000023842","94.97","img/117/4.5/1.5/bw/001.png","","","interesting"
"","","","","","animation","144","2580104","0.0-144.0","1920x1080","","2928.100000023842","64.68","img/117/4/1.5/bw/001.png","","","interesting"
"","","","","","animation","145","2593061","0.0-145.0","1920x1080","","12956.399999976158","71.56","img/238/5.5/0.5/bw/001.png","","","interesting"
"","","","","","animation","146","2624341","0.0-146.0","1920x1080","","31278.100000023842","5.95","img/238/2.5/0.66667/bw/001.png","","","interesting"
"","","","","","animation","147","2629109","0.0-147.0","1920x1080","","4766.900000035763","9.26","img/238/2.5/1.5/bw/001.png","","","interesting"
"","","","","","animation","148","2640493","0.0-148.0","1920x1080","","11382.599999964237","84.26","img/314/3.5/1.5/bw/001.png","","","interesting"
"","","","","","animation","149","2646356","0.0-149.0","1920x1080","","5860.800000011921","89.15","img/117/3.5/1.5/bw/001.png","","","interesting"
"","","","","","animation","150","2650709","0.0-150.0","1920x1080","","4351.299999952316","91.80","img/314/3.5/1/bw/001.png","","","interesting"
"","","","","","animation","151","2653287","0.0-151.0","1920x1080","","2576.699999988079","0.53","img/314/2.5/2/bw/001.png","","","interesting"
"","","","","","animation","152","2655739","0.0-152.0","1920x1080","","2450.899999976158","24.87","img/238/3.5/0.5/bw/001.png","","","interesting"
"","","","","","animation","153","2657581","0.0-153.0","1920x1080","","1840.9000000357628","36.90","img/238/4/0.5/bw/001.png","","","interesting"
"","","","","","animation","154","2660237","0.0-154.0","1920x1080","","2654.899999976158","61.77","img/238/4/1/bw/001.png","","","interesting"
"","","","","","animation","155","2663254","0.0-155.0","1920x1080","","3015.599999964237","72.22","img/117/4.5/0.5/bw/001.png","","","interesting"
"","","","","","animation","156","2668638","0.0-156.0","1920x1080","","5383.599999964237","55.16","img/238/5.5/2/bw/001.png","","","interesting"
"","","","","","animation","157","2671429","0.0-157.0","1920x1080","","2789.599999964237","58.20","img/117/5.5/0.66667/bw/001.png","","","interesting"
"","","","","","animation","158","2753629","0.0-158.0","1920x1080","","82198.80000001192","73.81","img/238/4/1.5/bw/001.png","","","interesting"
"","","","","","html-button-response","159","2773365","0.0-159.0","1920x1080","","19734.600000023842","","<div class=""intro"">You are about to view a new series of animations.<br><br></div><div class=""intro"">You will evaluate them based on a different descriptor.<br><br></div><div class=""intro"">Move the slider to indicate how <strong style=""text-transform:capitalize"">NATURAL</strong> you find each animation.<br><br></div><div class=""intro"">0 = Least Natural<br></div><div class=""intro"">1 = Most Natural<br><br></div><div class=""intro"">Remember to use the <strong><em>entire range</em></strong> of the slider to make your ratings.<br></div><div class=""intro"">Please <strong><em>take your time</em></strong> and carefully consider each rating you make.<br><br></div>","0","",""
"","","","","","call-function","160","2773366","0.0-160.0","1920x1080","","","","","","",""
"","","","","","animation","161","2804524","0.0-161.0","1920x1080","","31158.100000023842","70.63","img/117/4.5/1/bw/001.png","","","natural"
"","","","","","animation","162","2807869","0.0-162.0","1920x1080","","3343.5","-2.38","img/238/2.5/0.5/bw/001.png","","","natural"
"","","","","","animation","163","2852437","0.0-163.0","1920x1080","","44566.299999952316","78.44","img/314/4.5/0.66667/bw/001.png","","","natural"
"","","","","","animation","164","2866525","0.0-164.0","1920x1080","","14086.699999988079","33.86","img/238/4/1/bw/001.png","","","natural"
"","","","","","animation","165","2874135","0.0-165.0","1920x1080","","7608.899999976158","70","img/238/4/2/bw/001.png","","","natural"
"","","","","","animation","166","2895402","0.0-166.0","1920x1080","","21267","23","img/314/3.5/1/bw/001.png","","","natural"
"","","","","","animation","167","2902860","0.0-167.0","1920x1080","","7455.899999976158","100","img/117/5.5/0.66667/bw/001.png","","","natural"
"","","","","","animation","168","2932028","0.0-168.0","1920x1080","","29166.69999998808","0","img/238/2.5/1.5/bw/001.png","","","natural"
"","","","","","animation","169","2940629","0.0-169.0","1920x1080","","8599.400000035763","30.29","img/117/3.5/2/bw/001.png","","","natural"
"","","","","","animation","170","2983077","0.0-170.0","1920x1080","","42446.39999997616","67.06","img/314/5.5/0.66667/bw/001.png","","","natural"
"","","","","","animation","171","2992103","0.0-171.0","1920x1080","","9019.699999988079","80.29","img/314/4.5/1/bw/001.png","","","natural"
"","","","","","animation","172","3001817","0.0-172.0","1920x1080","","9711.600000023842","-71.16","img/117/3.5/1.5/bw/001.png","","","natural"
"","","","","","animation","173","3013001","0.0-173.0","1920x1080","","11182.099999964237","176.59","img/314/4/0.66667/bw/001.png","","","natural"
"","","","","","animation","174","3036193","0.0-174.0","1920x1080","","23189.900000035763","11.38","img/238/4/0.5/bw/001.png","","","natural"
"","","","","","animation","175","3079967","0.0-175.0","1920x1080","","43773","30","img/314/3.5/0.66667/bw/001.png","","","natural"
"","","","","","animation","176","3083004","0.0-176.0","1920x1080","","3036","0.53","img/314/2.5/0.5/bw/001.png","","","natural"
"","","","","","animation","177","3100519","0.0-177.0","1920x1080","","17514.399999976158","83","img/314/3.5/2/bw/001.png","","","natural"
"","","","","","animation","178","3108967","0.0-178.0","1920x1080","","8444.300000011921","7.54","img/314/2.5/2/bw/001.png","","","natural"
"","","","","","animation","179","3114676","0.0-179.0","1920x1080","","5708.300000011921","91","img/314/5.5/2/bw/001.png","","","natural"
"","","","","","animation","180","3182128","0.0-180.0","1920x1080","","67446.60000002384","75.00","img/314/4.5/1.5/bw/001.png","","","natural"
"","","","","","animation","181","3203904","0.0-181.0","1920x1080","","21774.400000035763","96","img/238/5.5/1/bw/001.png","","","natural"
"","","","","","animation","182","3220304","0.0-182.0","1920x1080","","16398.80000001192","4.50","img/117/3.5/0.66667/bw/001.png","","","natural"
"","","","","","animation","183","3235360","0.0-183.0","1920x1080","","15055.199999988079","57.41","img/117/4/0.5/bw/001.png","","","natural"
"","","","","","animation","184","3238794","0.0-184.0","1920x1080","","3430.100000023842","43.25","img/238/4/0.66667/bw/001.png","","","natural"
"","","","","","animation","185","3257566","0.0-185.0","1920x1080","","18771.100000023842","0.79","img/238/2.5/1/bw/001.png","","","natural"
"","","","","","animation","186","3259805","0.0-186.0","1920x1080","","2236.800000011921","0.93","img/117/2.5/1/bw/001.png","","","natural"
"","","","","","animation","187","3263106","0.0-187.0","1920x1080","","3299.5","1.98","img/117/2.5/0.66667/bw/001.png","","","natural"
"","","","","","animation","188","3283146","0.0-188.0","1920x1080","","20037.30000001192","64.95","img/117/4.5/1.5/bw/001.png","","","natural"
"","","","","","animation","189","3287738","0.0-189.0","1920x1080","","4588.299999952316","0","img/314/2.5/1/bw/001.png","","","natural"
"","","","","","animation","190","3293474","0.0-190.0","1920x1080","","5733.899999976158","77","img/238/3.5/1/bw/001.png","","","natural"
"","","","","","animation","191","3295922","0.0-191.0","1920x1080","","2446.600000023842","0.53","img/314/2.5/0.66667/bw/001.png","","","natural"
"","","","","","animation","192","3335741","0.0-192.0","1920x1080","","39815.5","85.58","img/238/4.5/0.5/bw/001.png","","","natural"
"","","","","","animation","193","3347740","0.0-193.0","1920x1080","","11998.599999964237","99","img/314/5.5/1.5/bw/001.png","","","natural"
"","","","","","animation","194","3374829","0.0-194.0","1920x1080","","27085.100000023842","77.12","img/314/4/1.5/bw/001.png","","","natural"
"","","","","","animation","195","3404409","0.0-195.0","1920x1080","","29574","85.19","img/314/4/2/bw/001.png","","","natural"
"","","","","","animation","196","3407959","0.0-196.0","1920x1080","","3548.5","71.96","img/238/3.5/2/bw/001.png","","","natural"
"","","","","","animation","197","3412310","0.0-197.0","1920x1080","","4350.100000023842","84.26","img/238/5.5/0.5/bw/001.png","","","natural"
"","","","","","animation","198","3456959","0.0-198.0","1920x1080","","44647.09999996424","92.59","img/117/4/2/bw/001.png","","","natural"
"","","","","","animation","199","3459492","0.0-199.0","1920x1080","","2531.2999999523163","72.22","img/238/4/1.5/bw/001.png","","","natural"
"","","","","","animation","200","3461892","0.0-200.0","1920x1080","","2398.5","90.21","img/117/5.5/2/bw/001.png","","","natural"
"","","","","","animation","201","3464463","0.0-201.0","1920x1080","","2569.899999976158","97","img/117/5.5/1/bw/001.png","","","natural"
"","","","","","animation","202","3467735","0.0-202.0","1920x1080","","3270.899999976158","83.60","img/314/5.5/1/bw/001.png","","","natural"
"","","","","","animation","203","3470599","0.0-203.0","1920x1080","","2862.900000035763","72.35","img/238/4.5/1.5/bw/001.png","","","natural"
"","","","","","animation","204","3473542","0.0-204.0","1920x1080","","2942.300000011921","0.79","img/117/2.5/0.5/bw/001.png","","","natural"
"","","","","","animation","205","3475882","0.0-205.0","1920x1080","","2338.100000023842","0","img/117/2.5/1.5/bw/001.png","","","natural"
"","","","","","animation","206","3478325","0.0-206.0","1920x1080","","2442.199999988079","48.54","img/117/4.5/2/bw/001.png","","","natural"
"","","","","","animation","207","3502865","0.0-207.0","1920x1080","","24539.899999976158","49","img/117/4/0.66667/bw/001.png","","","natural"
"","","","","","animation","208","3505158","0.0-208.0","1920x1080","","2287","54.76","img/117/4/1.5/bw/001.png","","","natural"
"","","","","","animation","209","3517014","0.0-209.0","1920x1080","","11854.700000047684","24.60","img/238/3.5/1.5/bw/001.png","","","natural"
"","","","","","animation","210","3528550","0.0-210.0","1920x1080","","11530.5","14.15","img/238/3.5/0.5/bw/001.png","","","natural"
"","","","","","animation","211","3532724","0.0-211.0","1920x1080","","4173.5","34.66","img/314/4.5/0.5/bw/001.png","","","natural"
"","","","","","animation","212","3552260","0.0-212.0","1920x1080","","19534","66.93","img/314/4/0.5/bw/001.png","","","natural"
"","","","","","animation","213","3555925","0.0-213.0","1920x1080","","3661.5","5.16","img/238/2.5/0.66667/bw/001.png","","","natural"
"","","","","","animation","214","3572774","0.0-214.0","1920x1080","","16848.100000023842","78","img/117/3.5/0.5/bw/001.png","","","natural"
"","","","","","animation","215","3605751","0.0-215.0","1920x1080","","32974.5","76.46","img/238/4.5/2/bw/001.png","","","natural"
"","","","","","animation","216","3614910","0.0-216.0","1920x1080","","9158.5","88","img/238/5.5/0.66667/bw/001.png","","","natural"
"","","","","","animation","217","3621110","0.0-217.0","1920x1080","","6198.699999988079","76","img/117/4.5/0.66667/bw/001.png","","","natural"
"","","","","","animation","218","3623158","0.0-218.0","1920x1080","","2046.699999988079","86.24","img/238/4.5/1/bw/001.png","","","natural"
"","","","","","animation","219","3634192","0.0-219.0","1920x1080","","11032.600000023842","69.05","img/117/5.5/1.5/bw/001.png","","","natural"
"","","","","","animation","220","3642825","0.0-220.0","1920x1080","","8631.400000035763","0","img/117/2.5/2/bw/001.png","","","natural"
"","","","","","animation","221","3664630","0.0-221.0","1920x1080","","21803.5","75","img/314/4.5/2/bw/001.png","","","natural"
"","","","","","animation","222","3668891","0.0-222.0","1920x1080","","4259.699999988079","34.66","img/314/3.5/0.5/bw/001.png","","","natural"
"","","","","","animation","223","3674424","0.0-223.0","1920x1080","","5532","65.74","img/117/4.5/0.5/bw/001.png","","","natural"
"","","","","","animation","224","3677214","0.0-224.0","1920x1080","","2787.2999999523163","85.32","img/314/5.5/0.5/bw/001.png","","","natural"
"","","","","","animation","225","3680274","0.0-225.0","1920x1080","","3058.900000035763","2.25","img/238/2.5/2/bw/001.png","","","natural"
"","","","","","animation","226","3688624","0.0-226.0","1920x1080","","8347.800000011921","30.95","img/117/3.5/1/bw/001.png","","","natural"
"","","","","","animation","227","3701398","0.0-227.0","1920x1080","","12773.400000035763","87.96","img/117/5.5/0.5/bw/001.png","","","natural"
"","","","","","animation","228","3715558","0.0-228.0","1920x1080","","14154.599999964237","59.39","img/314/4/1/bw/001.png","","","natural"
"","","","","","animation","229","3718435","0.0-229.0","1920x1080","","2876.100000023842","96","img/238/5.5/2/bw/001.png","","","natural"
"","","","","","animation","230","3722290","0.0-230.0","1920x1080","","3853.7000000476837","0.53","img/314/2.5/1.5/bw/001.png","","","natural"
"","","","","","animation","231","3724973","0.0-231.0","1920x1080","","2682.400000035763","35.05","img/314/3.5/1.5/bw/001.png","","","natural"
"","","","","","animation","232","3727740","0.0-232.0","1920x1080","","2766","74.74","img/238/3.5/0.66667/bw/001.png","","","natural"
"","","","","","animation","233","3730507","0.0-233.0","1920x1080","","2765.199999988079","58.60","img/117/4/1/bw/001.png","","","natural"
"","","","","","animation","234","3732357","0.0-234.0","1920x1080","","1848.7000000476837","88.36","img/238/4.5/0.66667/bw/001.png","","","natural"
"","","","","","animation","235","3740982","0.0-235.0","1920x1080","","8623.900000035763","99","img/238/5.5/1.5/bw/001.png","","","natural"
"","","","","","html-button-response","236","3759708","0.0-236.0","1920x1080","","18721.69999998808","","<div class=""intro"">You are about to view a new series of animations.<br><br></div><div class=""intro"">You will evaluate them based on a different descriptor.<br><br></div><div class=""intro"">Move the slider to indicate how <strong style=""text-transform:capitalize"">RELAXING</strong> you find each animation.<br><br></div><div class=""intro"">0 = Least Relaxing<br></div><div class=""intro"">1 = Most Relaxing<br><br></div><div class=""intro"">Remember to use the <strong><em>entire range</em></strong> of the slider to make your ratings.<br></div><div class=""intro"">Please <strong><em>take your time</em></strong> and carefully consider each rating you make.<br><br></div>","0","",""
"","","","","","call-function","237","3759708","0.0-237.0","1920x1080","","","","","","",""
"","","","","","animation","238","3761857","0.0-238.0","1920x1080","","2148.199999988079","94.58","img/117/5.5/2/bw/001.png","","","relaxing"
"","","","","","animation","239","3764294","0.0-239.0","1920x1080","","2435.800000011921","68.12","img/238/5.5/0.5/bw/001.png","","","relaxing"
"","","","","","animation","240","3767398","0.0-240.0","1920x1080","","3102.800000011921","83.33","img/238/4.5/2/bw/001.png","","","relaxing"
"","","","","","animation","241","3769640","0.0-241.0","1920x1080","","2240.899999976158","22.62","img/117/3.5/0.66667/bw/001.png","","","relaxing"
"","","","","","animation","242","3771973","0.0-242.0","1920x1080","","2332.100000023842","75.93","img/238/3.5/2/bw/001.png","","","relaxing"
"","","","","","animation","243","3774046","0.0-243.0","1920x1080","","2071.300000011921","100","img/314/5.5/2/bw/001.png","","","relaxing"
"","","","","","animation","244","3776207","0.0-244.0","1920x1080","","2160.100000023842","57.41","img/238/4.5/0.66667/bw/001.png","","","relaxing"
"","","","","","animation","245","3778306","0.0-245.0","1920x1080","","2098.5","40.34","img/238/4.5/1/bw/001.png","","","relaxing"
"","","","","","animation","246","3780543","0.0-246.0","1920x1080","","2234.300000011921","82.28","img/314/5.5/1/bw/001.png","","","relaxing"
"","","","","","animation","247","3782741","0.0-247.0","1920x1080","","2196","0.00","img/238/2.5/0.66667/bw/001.png","","","relaxing"
"","","","","","animation","248","3785158","0.0-248.0","1920x1080","","2416.099999964237","34.13","img/117/5.5/0.5/bw/001.png","","","relaxing"
"","","","","","animation","249","3787674","0.0-249.0","1920x1080","","2515.100000023842","25.79","img/117/4.5/2/bw/001.png","","","relaxing"
"","","","","","animation","250","3789998","0.0-250.0","1920x1080","","2322.699999988079","70.90","img/314/5.5/0.5/bw/001.png","","","relaxing"
"","","","","","animation","251","3796910","0.0-251.0","1920x1080","","6910.5","94","img/314/5.5/0.66667/bw/001.png","","","relaxing"
"","","","","","animation","252","3799524","0.0-252.0","1920x1080","","2612.699999988079","71.96","img/314/4/2/bw/001.png","","","relaxing"
"","","","","","animation","253","3801958","0.0-253.0","1920x1080","","2432.5","50.13","img/117/3.5/1/bw/001.png","","","relaxing"
"","","","","","animation","254","3803991","0.0-254.0","1920x1080","","2031.699999988079","36.11","img/238/4.5/1.5/bw/001.png","","","relaxing"
"","","","","","animation","255","3807198","0.0-255.0","1920x1080","","3206.400000035763","70.24","img/238/4/2/bw/001.png","","","relaxing"
"","","","","","animation","256","3810198","0.0-256.0","1920x1080","","2998.5","0.40","img/238/2.5/2/bw/001.png","","","relaxing"
"","","","","","animation","257","3812846","0.0-257.0","1920x1080","","2646.600000023842","36.90","img/117/3.5/1.5/bw/001.png","","","relaxing"
"","","","","","animation","258","3817008","0.0-258.0","1920x1080","","4160.600000023842","16.53","img/314/3.5/0.66667/bw/001.png","","","relaxing"
"","","","","","animation","259","3826583","0.0-259.0","1920x1080","","9572.400000035763","65.08","img/314/4.5/2/bw/001.png","","","relaxing"
"","","","","","animation","260","3828742","0.0-260.0","1920x1080","","2157.399999976158","17.72","img/238/3.5/0.5/bw/001.png","","","relaxing"
"","","","","","animation","261","3832575","0.0-261.0","1920x1080","","3831.399999976158","44.97","img/314/4/1/bw/001.png","","","relaxing"
"","","","","","animation","262","3835841","0.0-262.0","1920x1080","","3265.199999988079","66.53","img/117/4.5/1.5/bw/001.png","","","relaxing"
"","","","","","animation","263","3844739","0.0-263.0","1920x1080","","8897.5","82.28","img/117/4/2/bw/001.png","","","relaxing"
"","","","","","animation","264","3851657","0.0-264.0","1920x1080","","6915.100000023842","30","img/238/4/0.66667/bw/001.png","","","relaxing"
"","","","","","animation","265","3856340","0.0-265.0","1920x1080","","4680.899999976158","66.14","img/314/4.5/1.5/bw/001.png","","","relaxing"
"","","","","","animation","266","3858925","0.0-266.0","1920x1080","","2582.899999976158","11","img/238/3.5/0.66667/bw/001.png","","","relaxing"
"","","","","","animation","267","3861773","0.0-267.0","1920x1080","","2846.599999964237","0.40","img/117/2.5/2/bw/001.png","","","relaxing"
"","","","","","animation","268","3864030","0.0-268.0","1920x1080","","2254.800000011921","1.32","img/117/2.5/1.5/bw/001.png","","","relaxing"
"","","","","","animation","269","3866741","0.0-269.0","1920x1080","","2710.400000035763","11.24","img/117/2.5/1/bw/001.png","","","relaxing"
"","","","","","animation","270","3869457","0.0-270.0","1920x1080","","2714.699999988079","23.68","img/314/4/0.5/bw/001.png","","","relaxing"
"","","","","","animation","271","3872525","0.0-271.0","1920x1080","","3067.099999964237","0","img/314/2.5/0.66667/bw/001.png","","","relaxing"
"","","","","","animation","272","3876997","0.0-272.0","1920x1080","","4470.899999976158","38.23","img/314/3.5/1/bw/001.png","","","relaxing"
"","","","","","animation","273","3879430","0.0-273.0","1920x1080","","2430","2.25","img/314/2.5/1/bw/001.png","","","relaxing"
"","","","","","animation","274","3881906","0.0-274.0","1920x1080","","2475.400000035763","66.80","img/117/4/1.5/bw/001.png","","","relaxing"
"","","","","","animation","275","3883973","0.0-275.0","1920x1080","","2066.100000023842","30.95","img/238/4/1/bw/001.png","","","relaxing"
"","","","","","animation","276","3886190","0.0-276.0","1920x1080","","2215.699999988079","86.77","img/238/5.5/1/bw/001.png","","","relaxing"
"","","","","","animation","277","3888957","0.0-277.0","1920x1080","","2765.800000011921","16.80","img/238/3.5/1.5/bw/001.png","","","relaxing"
"","","","","","animation","278","3891290","0.0-278.0","1920x1080","","2332","55.42","img/117/4.5/0.5/bw/001.png","","","relaxing"
"","","","","","animation","279","3895874","0.0-279.0","1920x1080","","4582.100000023842","0","img/238/2.5/0.5/bw/001.png","","","relaxing"
"","","","","","animation","280","3899074","0.0-280.0","1920x1080","","3197.7000000476837","64.68","img/314/4/1.5/bw/001.png","","","relaxing"
"","","","","","animation","281","3900942","0.0-281.0","1920x1080","","1866.5","48.41","img/238/4/0.5/bw/001.png","","","relaxing"
"","","","","","animation","282","3903142","0.0-282.0","1920x1080","","2198.800000011921","77.91","img/117/4/1/bw/001.png","","","relaxing"
"","","","","","animation","283","3905230","0.0-283.0","1920x1080","","2087.199999988079","92.20","img/314/5.5/1.5/bw/001.png","","","relaxing"
"","","","","","animation","284","3907574","0.0-284.0","1920x1080","","2342.800000011921","98","img/117/5.5/1/bw/001.png","","","relaxing"
"","","","","","animation","285","3910332","0.0-285.0","1920x1080","","2756.300000011921","100","img/238/5.5/2/bw/001.png","","","relaxing"
"","","","","","animation","286","3912231","0.0-286.0","1920x1080","","1896.6000000238419","16.27","img/314/2.5/2/bw/001.png","","","relaxing"
"","","","","","animation","287","3914062","0.0-287.0","1920x1080","","1828.199999988079","61.24","img/117/5.5/1.5/bw/001.png","","","relaxing"
"","","","","","animation","288","3916814","0.0-288.0","1920x1080","","2751","79.37","img/314/3.5/1.5/bw/001.png","","","relaxing"
"","","","","","animation","289","3919258","0.0-289.0","1920x1080","","2442","92.06","img/314/4.5/1/bw/001.png","","","relaxing"
"","","","","","animation","290","3922297","0.0-290.0","1920x1080","","3038.300000011921","2.65","img/314/4.5/0.5/bw/001.png","","","relaxing"
"","","","","","animation","291","3924724","0.0-291.0","1920x1080","","2425.600000023842","2.91","img/238/2.5/1.5/bw/001.png","","","relaxing"
"","","","","","animation","292","3927094","0.0-292.0","1920x1080","","2368.400000035763","32.54","img/117/4.5/0.66667/bw/001.png","","","relaxing"
"","","","","","animation","293","3928862","0.0-293.0","1920x1080","","1767","64.68","img/314/4/0.66667/bw/001.png","","","relaxing"
"","","","","","animation","294","3934207","0.0-294.0","1920x1080","","5344","12.30","img/314/3.5/0.5/bw/001.png","","","relaxing"
"","","","","","animation","295","3936374","0.0-295.0","1920x1080","","2165.5","0","img/117/2.5/0.5/bw/001.png","","","relaxing"
"","","","","","animation","296","3938630","0.0-296.0","1920x1080","","2254.899999976158","0.79","img/314/2.5/1.5/bw/001.png","","","relaxing"
"","","","","","animation","297","3942809","0.0-297.0","1920x1080","","4177.099999964237","97","img/238/5.5/1.5/bw/001.png","","","relaxing"
"","","","","","animation","298","3945291","0.0-298.0","1920x1080","","2478.300000011921","49.47","img/314/4.5/0.66667/bw/001.png","","","relaxing"
"","","","","","animation","299","3947700","0.0-299.0","1920x1080","","2407.600000023842","35.32","img/314/3.5/2/bw/001.png","","","relaxing"
"","","","","","animation","300","3949791","0.0-300.0","1920x1080","","2089.600000023842","63.36","img/117/4/0.5/bw/001.png","","","relaxing"
"","","","","","animation","301","3952630","0.0-301.0","1920x1080","","2838.300000011921","0","img/314/2.5/0.5/bw/001.png","","","relaxing"
"","","","","","animation","302","3956594","0.0-302.0","1920x1080","","3960","78.97","img/117/5.5/0.66667/bw/001.png","","","relaxing"
"","","","","","animation","303","3959397","0.0-303.0","1920x1080","","2803.399999976158","85.32","img/117/3.5/2/bw/001.png","","","relaxing"
"","","","","","animation","304","3963213","0.0-304.0","1920x1080","","3814.5","92.86","img/117/3.5/0.5/bw/001.png","","","relaxing"
"","","","","","animation","305","3967829","0.0-305.0","1920x1080","","4613.900000035763","84","img/238/5.5/0.66667/bw/001.png","","","relaxing"
"","","","","","animation","306","3984407","0.0-306.0","1920x1080","","16575.80000001192","17.86","img/238/3.5/1/bw/001.png","","","relaxing"
"","","","","","animation","307","3988840","0.0-307.0","1920x1080","","4431.899999976158","70.63","img/117/4.5/1/bw/001.png","","","relaxing"
"","","","","","animation","308","3993857","0.0-308.0","1920x1080","","5016.300000011921","0","img/117/2.5/0.66667/bw/001.png","","","relaxing"
"","","","","","animation","309","3996109","0.0-309.0","1920x1080","","2251","0","img/238/2.5/1/bw/001.png","","","relaxing"
"","","","","","animation","310","3997845","0.0-310.0","1920x1080","","1734.1000000238419","32.01","img/238/4/1.5/bw/001.png","","","relaxing"
"","","","","","animation","311","4006323","0.0-311.0","1920x1080","","8476.700000047684","70.63","img/117/4/0.66667/bw/001.png","","","relaxing"
"","","","","","animation","312","4020157","0.0-312.0","1920x1080","","13829.300000011921","70.37","img/238/4.5/0.5/bw/001.png","","","relaxing"
"","","","","","html-button-response","313","4039440","0.0-313.0","1920x1080","","19281.100000023842","","<div class=""intro"">You are about to view a new series of animations.<br><br></div><div class=""intro"">You will evaluate them based on a different descriptor.<br><br></div><div class=""intro"">Move the slider to indicate how <strong style=""text-transform:capitalize"">APPEALING</strong> you find each animation.<br><br></div><div class=""intro"">0 = Least Appealing<br></div><div class=""intro"">1 = Most Appealing<br><br></div><div class=""intro"">Remember to use the <strong><em>entire range</em></strong> of the slider to make your ratings.<br></div><div class=""intro"">Please <strong><em>take your time</em></strong> and carefully consider each rating you make.<br><br></div>","0","",""
"","","","","","call-function","314","4039441","0.0-314.0","1920x1080","","","","","","",""
"","","","","","animation","315","4041740","0.0-315.0","1920x1080","","2298.600000023842","97","img/117/4.5/1/bw/001.png","","","appealing"
"","","","","","animation","316","4044109","0.0-316.0","1920x1080","","2367.800000011921","5.42","img/238/2.5/0.66667/bw/001.png","","","appealing"
"","","","","","animation","317","4045909","0.0-317.0","1920x1080","","1798.699999988079","27.25","img/117/3.5/1.5/bw/001.png","","","appealing"
"","","","","","animation","318","4047426","0.0-318.0","1920x1080","","1515.5999999642372","50.40","img/238/4/1.5/bw/001.png","","","appealing"
"","","","","","animation","319","4050407","0.0-319.0","1920x1080","","2979.699999988079","32","img/314/3.5/0.5/bw/001.png","","","appealing"
"","","","","","animation","320","4052483","0.0-320.0","1920x1080","","2074.599999964237","87.83","img/117/4.5/2/bw/001.png","","","appealing"
"","","","","","animation","321","4054890","0.0-321.0","1920x1080","","2405.2999999523163","99","img/314/5.5/0.5/bw/001.png","","","appealing"
"","","","","","animation","322","4056840","0.0-322.0","1920x1080","","1948.699999988079","1.32","img/238/2.5/1/bw/001.png","","","appealing"
"","","","","","animation","323","4058373","0.0-323.0","1920x1080","","1531.800000011921","1.19","img/314/2.5/2/bw/001.png","","","appealing"
"","","","","","animation","324","4061617","0.0-324.0","1920x1080","","3242.800000011921","65.48","img/117/3.5/2/bw/001.png","","","appealing"
"","","","","","animation","325","4063493","0.0-325.0","1920x1080","","1874.4000000357628","81.08","img/314/4/1.5/bw/001.png","","","appealing"
"","","","","","animation","326","4065229","0.0-326.0","1920x1080","","1735","6.61","img/314/2.5/0.66667/bw/001.png","","","appealing"
"","","","","","animation","327","4067245","0.0-327.0","1920x1080","","2014.3999999761581","30.56","img/117/3.5/1/bw/001.png","","","appealing"
"","","","","","animation","328","4070290","0.0-328.0","1920x1080","","3043.899999976158","89.55","img/314/4.5/1/bw/001.png","","","appealing"
"","","","","","animation","329","4072190","0.0-329.0","1920x1080","","1898","76.98","img/238/4/0.66667/bw/001.png","","","appealing"
"","","","","","animation","330","4075682","0.0-330.0","1920x1080","","3491","35.98","img/238/3.5/2/bw/001.png","","","appealing"
"","","","","","animation","331","4077374","0.0-331.0","1920x1080","","1690.199999988079","54.37","img/314/5.5/1.5/bw/001.png","","","appealing"
"","","","","","animation","332","4079423","0.0-332.0","1920x1080","","2046.5999999642372","52.38","img/238/4/1/bw/001.png","","","appealing"
"","","","","","animation","333","4081530","0.0-333.0","1920x1080","","2105.5","81.35","img/238/4.5/0.5/bw/001.png","","","appealing"
"","","","","","animation","334","4083807","0.0-334.0","1920x1080","","2275.899999976158","1.19","img/117/2.5/0.5/bw/001.png","","","appealing"
"","","","","","animation","335","4086727","0.0-335.0","1920x1080","","2918.699999988079","65.61","img/117/4/1.5/bw/001.png","","","appealing"
"","","","","","animation","336","4089141","0.0-336.0","1920x1080","","2412.399999976158","90.08","img/314/4/0.5/bw/001.png","","","appealing"
"","","","","","animation","337","4091133","0.0-337.0","1920x1080","","1990.300000011921","1.59","img/117/2.5/1.5/bw/001.png","","","appealing"
"","","","","","animation","338","4097024","0.0-338.0","1920x1080","","5889.700000047684","29","img/117/3.5/0.5/bw/001.png","","","appealing"
"","","","","","animation","339","4099293","0.0-339.0","1920x1080","","2268.300000011921","0.13","img/238/2.5/0.5/bw/001.png","","","appealing"
"","","","","","animation","340","4102208","0.0-340.0","1920x1080","","2913.400000035763","0","img/314/2.5/1.5/bw/001.png","","","appealing"
"","","","","","animation","341","4104974","0.0-341.0","1920x1080","","2764.800000011921","92.46","img/117/5.5/1.5/bw/001.png","","","appealing"
"","","","","","animation","342","4114177","0.0-342.0","1920x1080","","9201.199999988079","83.60","img/238/4.5/0.66667/bw/001.png","","","appealing"
"","","","","","animation","343","4116445","0.0-343.0","1920x1080","","2267.300000011921","98","img/238/5.5/2/bw/001.png","","","appealing"
"","","","","","animation","344","4121363","0.0-344.0","1920x1080","","4915.899999976158","59.52","img/117/5.5/0.5/bw/001.png","","","appealing"
"","","","","","animation","345","4123815","0.0-345.0","1920x1080","","2448.900000035763","35.19","img/238/3.5/0.5/bw/001.png","","","appealing"
"","","","","","animation","346","4125341","0.0-346.0","1920x1080","","1524.7999999523163","49","img/117/4/0.5/bw/001.png","","","appealing"
"","","","","","animation","347","4127877","0.0-347.0","1920x1080","","2535.100000023842","17.86","img/314/3.5/0.66667/bw/001.png","","","appealing"
"","","","","","animation","348","4131063","0.0-348.0","1920x1080","","3184.5","6.35","img/117/3.5/0.66667/bw/001.png","","","appealing"
"","","","","","animation","349","4134857","0.0-349.0","1920x1080","","3785.199999988079","85","img/117/5.5/2/bw/001.png","","","appealing"
"","","","","","animation","350","4138700","0.0-350.0","1920x1080","","3841.199999988079","97","img/314/4.5/0.5/bw/001.png","","","appealing"
"","","","","","animation","351","4143309","0.0-351.0","1920x1080","","4606.5","61.77","img/314/4/0.66667/bw/001.png","","","appealing"
"","","","","","animation","352","4146650","0.0-352.0","1920x1080","","3338.900000035763","90","img/238/5.5/1/bw/001.png","","","appealing"
"","","","","","animation","353","4148574","0.0-353.0","1920x1080","","1923","86.38","img/117/5.5/1/bw/001.png","","","appealing"
"","","","","","animation","354","4150677","0.0-354.0","1920x1080","","2102.2000000476837","25.40","img/238/3.5/1.5/bw/001.png","","","appealing"
"","","","","","animation","355","4155477","0.0-355.0","1920x1080","","4798.599999964237","3.31","img/117/2.5/2/bw/001.png","","","appealing"
"","","","","","animation","356","4157309","0.0-356.0","1920x1080","","1829.5999999642372","4.89","img/238/2.5/2/bw/001.png","","","appealing"
"","","","","","animation","357","4160717","0.0-357.0","1920x1080","","3406","35.19","img/238/3.5/1/bw/001.png","","","appealing"
"","","","","","animation","358","4163574","0.0-358.0","1920x1080","","2856.100000023842","37.30","img/238/4/2/bw/001.png","","","appealing"
"","","","","","animation","359","4166294","0.0-359.0","1920x1080","","2719","0.93","img/117/2.5/1/bw/001.png","","","appealing"
"","","","","","animation","360","4169207","0.0-360.0","1920x1080","","2908.599999964237","66.40","img/314/4/2/bw/001.png","","","appealing"
"","","","","","animation","361","4176273","0.0-361.0","1920x1080","","7064.100000023842","87.83","img/314/5.5/1/bw/001.png","","","appealing"
"","","","","","animation","362","4184607","0.0-362.0","1920x1080","","8333.399999976158","52","img/238/3.5/0.66667/bw/001.png","","","appealing"
"","","","","","animation","363","4186478","0.0-363.0","1920x1080","","1869","34.39","img/238/4.5/2/bw/001.png","","","appealing"
"","","","","","animation","364","4189310","0.0-364.0","1920x1080","","2831.100000023842","88.10","img/238/5.5/1.5/bw/001.png","","","appealing"
"","","","","","animation","365","4191825","0.0-365.0","1920x1080","","2512.199999988079","74.21","img/314/4.5/0.66667/bw/001.png","","","appealing"
"","","","","","animation","366","4194423","0.0-366.0","1920x1080","","2595.300000011921","95","img/117/4.5/1.5/bw/001.png","","","appealing"
"","","","","","animation","367","4197074","0.0-367.0","1920x1080","","2649.900000035763","2.51","img/314/2.5/0.5/bw/001.png","","","appealing"
"","","","","","animation","368","4201706","0.0-368.0","1920x1080","","4631.699999988079","26","img/314/3.5/2/bw/001.png","","","appealing"
"","","","","","animation","369","4204622","0.0-369.0","1920x1080","","2914.300000011921","14.81","img/314/3.5/1.5/bw/001.png","","","appealing"
"","","","","","animation","370","4209873","0.0-370.0","1920x1080","","5249.600000023842","76","img/314/5.5/2/bw/001.png","","","appealing"
"","","","","","animation","371","4212069","0.0-371.0","1920x1080","","2194.600000023842","0","img/314/2.5/1/bw/001.png","","","appealing"
"","","","","","animation","372","4218607","0.0-372.0","1920x1080","","6536","41","img/314/4/1/bw/001.png","","","appealing"
"","","","","","animation","373","4221023","0.0-373.0","1920x1080","","2415.399999976158","30.95","img/117/4.5/0.5/bw/001.png","","","appealing"
"","","","","","animation","374","4224740","0.0-374.0","1920x1080","","3715.400000035763","78.97","img/238/4.5/1.5/bw/001.png","","","appealing"
"","","","","","animation","375","4226772","0.0-375.0","1920x1080","","2030.8999999761581","65.48","img/314/3.5/1/bw/001.png","","","appealing"
"","","","","","animation","376","4232623","0.0-376.0","1920x1080","","5849.699999988079","14","img/314/4.5/1.5/bw/001.png","","","appealing"
"","","","","","animation","377","4235056","0.0-377.0","1920x1080","","2431.600000023842","8.20","img/238/2.5/1.5/bw/001.png","","","appealing"
"","","","","","animation","378","4237439","0.0-378.0","1920x1080","","2382.099999964237","29.76","img/238/4/0.5/bw/001.png","","","appealing"
"","","","","","animation","379","4239373","0.0-379.0","1920x1080","","1932.4000000357628","51.32","img/117/4/2/bw/001.png","","","appealing"
"","","","","","animation","380","4241492","0.0-380.0","1920x1080","","2118.099999964237","68.65","img/314/4.5/2/bw/001.png","","","appealing"
"","","","","","animation","381","4244140","0.0-381.0","1920x1080","","2646","88.36","img/117/5.5/0.66667/bw/001.png","","","appealing"
"","","","","","animation","382","4245823","0.0-382.0","1920x1080","","1682.1000000238419","30.42","img/117/4/0.66667/bw/001.png","","","appealing"
"","","","","","animation","383","4253723","0.0-383.0","1920x1080","","7898.599999964237","100","img/238/5.5/0.66667/bw/001.png","","","appealing"
"","","","","","animation","384","4256507","0.0-384.0","1920x1080","","2782.199999988079","52.38","img/117/4.5/0.66667/bw/001.png","","","appealing"
"","","","","","animation","385","4259455","0.0-385.0","1920x1080","","2947.800000011921","65.08","img/314/5.5/0.66667/bw/001.png","","","appealing"
"","","","","","animation","386","4263789","0.0-386.0","1920x1080","","4333","32.54","img/117/4/1/bw/001.png","","","appealing"
"","","","","","animation","387","4270616","0.0-387.0","1920x1080","","6825.699999988079","92","img/238/5.5/0.5/bw/001.png","","","appealing"
"","","","","","animation","388","4273705","0.0-388.0","1920x1080","","3087.699999988079","96","img/238/4.5/1/bw/001.png","","","appealing"
"","","","","","animation","389","4276140","0.0-389.0","1920x1080","","2432.599999964237","0.79","img/117/2.5/0.66667/bw/001.png","","","appealing"
"","","","","","html-button-response","390","4293656","0.0-390.0","1920x1080","","17514.899999976158","","<strong>Study Debriefing</strong><br><p class=""debrief""><strong>Background:</strong> The patterns you rated are called <em>fractals</em>. The term fractal describes a class of irregular curves or shapes for which any suitably chosen part is similar in shape to a given larger or smaller part when magnified or reduced to the same size. Fractal properties are found throughout the natural and manmade world. The series of animations you saw today displayed animated fractal patterns of a varying complexity.</p><p class=""debrief""><strong>Purpose of this study:</strong> We hope to better understand how the perception of static fractals differs from the perception of animated fractals, and how the speed of the animated patterns influences people&apos;s perception of them. Fractals allow us to study the perception of aesthetic properties (e.g. the perceived level of beauty in an image) without using recognizable content, which makes them an excellent tool for studying abstract aesthetic judgement.</p><p class=""debrief""><strong>Your part:</strong> Your participation has helped us to further understand how humans perceive these patterns across different levels of speed and complexity. This research with allow us to better understand how the visual system and brain process our ever-changing visual environments.<p class=""debrief""><strong>Feedback and Further information:</strong> If you have additional questions about this study, please feel free to ask the researcher, Nathan Gonzales-Hess at nhess @ uoregon.edu. If you have any questions concerning your rights as a research participant, please contact Research Compliance Services, 5237 University of Oregon, Eugene, OR 97403, 541-346-2510, or email researchCompliance @ uoregon.edu. You can also email the Human Subjects Coordinator for psychology and linguistics research at hscoord @ uoregon.edu. ","0","",""
"","","","","","html-button-response","391","4296568","0.0-391.0","1920x1080","","2906.800000011921","","Thank you for participating in this study. <br>Please click below to finish the experiment and submit your responses.<br><br>","0","",""
"true","","","","","fullscreen","392","4297571","0.0-392.0","1920x1080","10:46 16/5/2022","","","","","",""
