"success","timeout","failed_images","failed_audio","failed_video","trial_type","trial_index","time_elapsed","internal_node_id","resolution","timeStamp","rt","response","stimulus","button_pressed","value","descriptor"
"true","false","[]","[]","[]","preload","0","45336","0.0-0.0","1920x1080","","","","","","",""
"true","false","[]","[]","[]","preload","1","86026","0.0-1.0","1920x1080","","","","","","",""
"true","false","[]","[]","[]","preload","2","128653","0.0-2.0","1920x1080","","","","","","",""
"true","","","","","fullscreen","3","535886","0.0-3.0","1920x1080","9:7 24/10/2022","","","","","",""
"","","","","","survey-html-form","4","547848","0.0-4.0","1920x1080","","11958.5","{""age"":""18"",""gender"":""male""}","","","",""
"","","","","","html-button-response","5","614867","0.0-5.0","1920x1080","","66998.59999999998","","<div class=""complex"">You are going to see a series of animations.<br><br></div><div class=""complex"">Move the slider to indicate how <strong style=""text-transform:capitalize"">COMPLEX</strong> you find each animation.<br><br></div><div class=""complex"">0 = Least Complex<br></div><div class=""complex"">1 = Most Complex<br><br></div><div class=""complex"">Remember to use the <strong><em>entire range</em></strong> of the slider to make your ratings.<br></div><div class=""complex"">Please <strong><em>take your time</em></strong> and carefully consider each rating you make.<br><br></div><div class=""complex"">The study has five sections and will take about 45 minutes to complete.<br><br></div>","0","",""
"","","","","","call-function","6","614868","0.0-6.0","1920x1080","","","","","","",""
"","","","","","animation","7","644547","0.0-7.0","1920x1080","","29676.900000000023","20.24","img/314/5.5/1/bw/001.png","","","complex"
"","","","","","animation","8","657715","0.0-8.0","1920x1080","","13166.29999999993","62.83","img/314/2.5/0.5/bw/001.png","","","complex"
"","","","","","animation","9","669483","0.0-9.0","1920x1080","","11767.400000000023","34.66","img/117/4.5/1/bw/001.png","","","complex"
"","","","","","animation","10","675684","0.0-10.0","1920x1080","","6206.800000000047","52.25","img/314/3.5/0.66667/bw/001.png","","","complex"
"","","","","","animation","11","686116","0.0-11.0","1920x1080","","10430.600000000093","14.55","img/238/4.5/1.5/bw/001.png","","","complex"
"","","","","","animation","12","692436","0.0-12.0","1920x1080","","6319.199999999953","69.97","img/238/2.5/0.5/bw/001.png","","","complex"
"","","","","","animation","13","697445","0.0-13.0","1920x1080","","5007.29999999993","81.22","img/314/2.5/2/bw/001.png","","","complex"
"","","","","","animation","14","707597","0.0-14.0","1920x1080","","10151.400000000023","9.79","img/314/5.5/1.5/bw/001.png","","","complex"
"","","","","","animation","15","716156","0.0-15.0","1920x1080","","8557.900000000023","25.40","img/314/4/0.66667/bw/001.png","","","complex"
"","","","","","animation","16","721284","0.0-16.0","1920x1080","","5127.5","40.08","img/117/3.5/0.66667/bw/001.png","","","complex"
"","","","","","animation","17","726148","0.0-17.0","1920x1080","","4863","20.24","img/314/4.5/1.5/bw/001.png","","","complex"
"","","","","","animation","18","733563","0.0-18.0","1920x1080","","7407.79999999993","60","img/117/2.5/0.5/bw/001.png","","","complex"
"","","","","","animation","19","746154","0.0-19.0","1920x1080","","12590.599999999977","33.47","img/238/4/0.5/bw/001.png","","","complex"
"","","","","","animation","20","764642","0.0-20.0","1920x1080","","18487.599999999977","39","img/117/4/1.5/bw/001.png","","","complex"
"","","","","","animation","21","773138","0.0-21.0","1920x1080","","8495.199999999953","39.95","img/314/4/0.5/bw/001.png","","","complex"
"","","","","","animation","22","782106","0.0-22.0","1920x1080","","8966.79999999993","46.83","img/314/4/1/bw/001.png","","","complex"
"","","","","","animation","23","786755","0.0-23.0","1920x1080","","4647.800000000047","19.58","img/314/4.5/1/bw/001.png","","","complex"
"","","","","","animation","24","793616","0.0-24.0","1920x1080","","6863.100000000093","80.03","img/314/3.5/2/bw/001.png","","","complex"
"","","","","","animation","25","807176","0.0-25.0","1920x1080","","13559","52.91","img/117/4/1/bw/001.png","","","complex"
"","","","","","animation","26","815048","0.0-26.0","1920x1080","","7871.099999999977","5.16","img/238/5.5/1.5/bw/001.png","","","complex"
"","","","","","animation","27","822440","0.0-27.0","1920x1080","","7391.099999999977","26.85","img/314/4/2/bw/001.png","","","complex"
"","","","","","animation","28","842648","0.0-28.0","1920x1080","","20207.29999999993","25.00","img/238/4.5/2/bw/001.png","","","complex"
"","","","","","animation","29","865537","0.0-29.0","1920x1080","","22887.20000000007","15","img/117/5.5/1/bw/001.png","","","complex"
"","","","","","animation","30","881930","0.0-30.0","1920x1080","","16391.099999999977","86.51","img/117/2.5/1/bw/001.png","","","complex"
"","","","","","animation","31","887577","0.0-31.0","1920x1080","","5647.099999999977","54.89","img/238/3.5/1/bw/001.png","","","complex"
"","","","","","animation","32","897810","0.0-32.0","1920x1080","","10231.300000000047","84.13","img/314/2.5/1/bw/001.png","","","complex"
"","","","","","animation","33","913032","0.0-33.0","1920x1080","","15223.5","19","img/117/5.5/0.5/bw/001.png","","","complex"
"","","","","","animation","34","922601","0.0-34.0","1920x1080","","9567.600000000093","38.23","img/238/4/1/bw/001.png","","","complex"
"","","","","","animation","35","949968","0.0-35.0","1920x1080","","27366.300000000047","70.90","img/117/3.5/0.5/bw/001.png","","","complex"
"","","","","","animation","36","958585","0.0-36.0","1920x1080","","8616","71.56","img/314/3.5/1.5/bw/001.png","","","complex"
"","","","","","animation","37","972067","0.0-37.0","1920x1080","","13486.099999999977","11","img/117/5.5/2/bw/001.png","","","complex"
"","","","","","animation","38","987948","0.0-38.0","1920x1080","","15878.899999999907","54.23","img/117/3.5/1.5/bw/001.png","","","complex"
"","","","","","animation","39","992044","0.0-39.0","1920x1080","","4095.4000000001397","85.45","img/117/2.5/0.66667/bw/001.png","","","complex"
"","","","","","animation","40","997603","0.0-40.0","1920x1080","","5558.5","91.67","img/117/2.5/1.5/bw/001.png","","","complex"
"","","","","","animation","41","1001852","0.0-41.0","1920x1080","","4247.300000000047","45.50","img/117/4.5/1.5/bw/001.png","","","complex"
"","","","","","animation","42","1009883","0.0-42.0","1920x1080","","8030.899999999907","96","img/238/2.5/2/bw/001.png","","","complex"
"","","","","","animation","43","1016260","0.0-43.0","1920x1080","","6375","97","img/314/2.5/0.66667/bw/001.png","","","complex"
"","","","","","animation","44","1028419","0.0-44.0","1920x1080","","12158","10.45","img/117/5.5/1.5/bw/001.png","","","complex"
"","","","","","animation","45","1037585","0.0-45.0","1920x1080","","9159","42.06","img/238/3.5/0.5/bw/001.png","","","complex"
"","","","","","animation","46","1046852","0.0-46.0","1920x1080","","9265.5","50.13","img/314/4.5/0.66667/bw/001.png","","","complex"
"","","","","","animation","47","1053035","0.0-47.0","1920x1080","","6182.59999999986","58.33","img/117/4.5/2/bw/001.png","","","complex"
"","","","","","animation","48","1056836","0.0-48.0","1920x1080","","3799.3000000000466","73.15","img/117/3.5/1/bw/001.png","","","complex"
"","","","","","animation","49","1059852","0.0-49.0","1920x1080","","3015.4000000001397","92.59","img/117/2.5/2/bw/001.png","","","complex"
"","","","","","animation","50","1063426","0.0-50.0","1920x1080","","3572.9000000001397","80.03","img/238/3.5/0.66667/bw/001.png","","","complex"
"","","","","","animation","51","1067290","0.0-51.0","1920x1080","","3863.100000000093","85.19","img/238/3.5/2/bw/001.png","","","complex"
"","","","","","animation","52","1082746","0.0-52.0","1920x1080","","15455.199999999953","53.17","img/238/4.5/0.66667/bw/001.png","","","complex"
"","","","","","animation","53","1087137","0.0-53.0","1920x1080","","4391","56.75","img/117/4.5/0.5/bw/001.png","","","complex"
"","","","","","animation","54","1093103","0.0-54.0","1920x1080","","5966.899999999907","9.26","img/314/5.5/0.66667/bw/001.png","","","complex"
"","","","","","animation","55","1097863","0.0-55.0","1920x1080","","4759.300000000047","73.15","img/238/4/1.5/bw/001.png","","","complex"
"","","","","","animation","56","1101807","0.0-56.0","1920x1080","","3943","78.57","img/238/4/0.66667/bw/001.png","","","complex"
"","","","","","animation","57","1105017","0.0-57.0","1920x1080","","3208.8000000000466","76.72","img/238/4.5/1/bw/001.png","","","complex"
"","","","","","animation","58","1123511","0.0-58.0","1920x1080","","18493.800000000047","16.53","img/238/5.5/0.5/bw/001.png","","","complex"
"","","","","","animation","59","1132991","0.0-59.0","1920x1080","","9475.100000000093","80.16","img/117/4/2/bw/001.png","","","complex"
"","","","","","animation","60","1136423","0.0-60.0","1920x1080","","3431","84.52","img/314/2.5/1.5/bw/001.png","","","complex"
"","","","","","animation","61","1138775","0.0-61.0","1920x1080","","2351","89.68","img/238/2.5/1.5/bw/001.png","","","complex"
"","","","","","animation","62","1143983","0.0-62.0","1920x1080","","5206.90000000014","77.65","img/117/4/0.66667/bw/001.png","","","complex"
"","","","","","animation","63","1152485","0.0-63.0","1920x1080","","8503.199999999953","74.21","img/238/4/2/bw/001.png","","","complex"
"","","","","","animation","64","1158798","0.0-64.0","1920x1080","","6311.700000000186","80.16","img/238/3.5/1.5/bw/001.png","","","complex"
"","","","","","animation","65","1163270","0.0-65.0","1920x1080","","4470.600000000093","89.42","img/314/3.5/0.5/bw/001.png","","","complex"
"","","","","","animation","66","1173806","0.0-66.0","1920x1080","","10535","68.52","img/238/4.5/0.5/bw/001.png","","","complex"
"","","","","","animation","67","1186958","0.0-67.0","1920x1080","","13151.200000000186","70.11","img/314/4/1.5/bw/001.png","","","complex"
"","","","","","animation","68","1194358","0.0-68.0","1920x1080","","7399.100000000093","63","img/314/4.5/0.5/bw/001.png","","","complex"
"","","","","","animation","69","1208990","0.0-69.0","1920x1080","","14630.699999999953","19.97","img/314/5.5/2/bw/001.png","","","complex"
"","","","","","animation","70","1220523","0.0-70.0","1920x1080","","11534.100000000093","16.53","img/238/5.5/0.66667/bw/001.png","","","complex"
"","","","","","animation","71","1228579","0.0-71.0","1920x1080","","8055.300000000047","5.82","img/238/5.5/1/bw/001.png","","","complex"
"","","","","","animation","72","1234028","0.0-72.0","1920x1080","","5445.40000000014","6.61","img/238/5.5/2/bw/001.png","","","complex"
"","","","","","animation","73","1247203","0.0-73.0","1920x1080","","13174.299999999814","92","img/238/2.5/1/bw/001.png","","","complex"
"","","","","","animation","74","1265515","0.0-74.0","1920x1080","","18310.90000000014","84.66","img/314/3.5/1/bw/001.png","","","complex"
"","","","","","animation","75","1303919","0.0-75.0","1920x1080","","38407.59999999986","77.91","img/117/4/0.5/bw/001.png","","","complex"
"","","","","","animation","76","1310743","0.0-76.0","1920x1080","","6822.199999999953","89.02","img/117/3.5/2/bw/001.png","","","complex"
"","","","","","animation","77","1313895","0.0-77.0","1920x1080","","3151.3000000000466","92.46","img/238/2.5/0.66667/bw/001.png","","","complex"
"","","","","","animation","78","1318959","0.0-78.0","1920x1080","","5062.600000000093","68.52","img/117/4.5/0.66667/bw/001.png","","","complex"
"","","","","","animation","79","1325641","0.0-79.0","1920x1080","","6681.600000000093","26.85","img/314/5.5/0.5/bw/001.png","","","complex"
"","","","","","animation","80","1331297","0.0-80.0","1920x1080","","5647.899999999907","24.07","img/117/5.5/0.66667/bw/001.png","","","complex"
"","","","","","animation","81","1344014","0.0-81.0","1920x1080","","12715.299999999814","62.30","img/314/4.5/2/bw/001.png","","","complex"
"","","","","","html-button-response","82","1362942","0.0-82.0","1920x1080","","18927.300000000047","","<div class=""intro"">You are about to view a new series of animations.<br><br></div><div class=""intro"">You will evaluate them based on a different descriptor.<br><br></div><div class=""intro"">Move the slider to indicate how <strong style=""text-transform:capitalize"">INTERESTING</strong> you find each animation.<br><br></div><div class=""intro"">0 = Least Interesting<br></div><div class=""intro"">1 = Most Interesting<br><br></div><div class=""intro"">Remember to use the <strong><em>entire range</em></strong> of the slider to make your ratings.<br></div><div class=""intro"">Please <strong><em>take your time</em></strong> and carefully consider each rating you make.<br><br></div>","0","",""
"","","","","","call-function","83","1362943","0.0-83.0","1920x1080","","","","","","",""
"","","","","","animation","84","1372830","0.0-84.0","1920x1080","","9886.199999999953","10.19","img/238/4.5/1.5/bw/001.png","","","interesting"
"","","","","","animation","85","1386231","0.0-85.0","1920x1080","","13400.09999999986","17.33","img/117/2.5/0.5/bw/001.png","","","interesting"
"","","","","","animation","86","1401635","0.0-86.0","1920x1080","","15405.59999999986","35.71","img/238/5.5/1/bw/001.png","","","interesting"
"","","","","","animation","87","1415163","0.0-87.0","1920x1080","","13526.40000000014","43.92","img/117/4/1/bw/001.png","","","interesting"
"","","","","","animation","88","1424155","0.0-88.0","1920x1080","","8989.699999999953","39.81","img/238/2.5/1.5/bw/001.png","","","interesting"
"","","","","","animation","89","1430444","0.0-89.0","1920x1080","","6287.300000000047","50.00","img/117/5.5/0.66667/bw/001.png","","","interesting"
"","","","","","animation","90","1438067","0.0-90.0","1920x1080","","7622.899999999907","43.78","img/314/3.5/0.5/bw/001.png","","","interesting"
"","","","","","animation","91","1441111","0.0-91.0","1920x1080","","3042.9000000001397","26.46","img/238/3.5/0.5/bw/001.png","","","interesting"
"","","","","","animation","92","1447494","0.0-92.0","1920x1080","","6382","20.37","img/238/4.5/0.5/bw/001.png","","","interesting"
"","","","","","animation","93","1450867","0.0-93.0","1920x1080","","3371.899999999907","34.39","img/238/3.5/2/bw/001.png","","","interesting"
"","","","","","animation","94","1454983","0.0-94.0","1920x1080","","4118.899999999907","32.01","img/238/2.5/0.5/bw/001.png","","","interesting"
"","","","","","animation","95","1462360","0.0-95.0","1920x1080","","7375.600000000093","51.85","img/117/5.5/1.5/bw/001.png","","","interesting"
"","","","","","animation","96","1466719","0.0-96.0","1920x1080","","4358.399999999907","41.14","img/314/3.5/2/bw/001.png","","","interesting"
"","","","","","animation","97","1470359","0.0-97.0","1920x1080","","3638.399999999907","30.42","img/238/4/2/bw/001.png","","","interesting"
"","","","","","animation","98","1477007","0.0-98.0","1920x1080","","6647.09999999986","25.00","img/314/4.5/2/bw/001.png","","","interesting"
"","","","","","animation","99","1486343","0.0-99.0","1920x1080","","9335.100000000093","19.18","img/314/4/2/bw/001.png","","","interesting"
"","","","","","animation","100","1499625","0.0-100.0","1920x1080","","13279.100000000093","48.15","img/238/5.5/2/bw/001.png","","","interesting"
"","","","","","animation","101","1504231","0.0-101.0","1920x1080","","4605.800000000047","42.46","img/238/4/0.66667/bw/001.png","","","interesting"
"","","","","","animation","102","1517578","0.0-102.0","1920x1080","","13342.299999999814","27.51","img/314/4/1/bw/001.png","","","interesting"
"","","","","","animation","103","1525403","0.0-103.0","1920x1080","","7823.5","39.15","img/238/5.5/0.5/bw/001.png","","","interesting"
"","","","","","animation","104","1531461","0.0-104.0","1920x1080","","6057","31.61","img/314/2.5/0.66667/bw/001.png","","","interesting"
"","","","","","animation","105","1542110","0.0-105.0","1920x1080","","10648","50.13","img/314/5.5/0.5/bw/001.png","","","interesting"
"","","","","","animation","106","1550794","0.0-106.0","1920x1080","","8682.199999999953","34.13","img/117/2.5/2/bw/001.png","","","interesting"
"","","","","","animation","107","1554435","0.0-107.0","1920x1080","","3639.3000000000466","29","img/238/2.5/1/bw/001.png","","","interesting"
"","","","","","animation","108","1557260","0.0-108.0","1920x1080","","2823.8000000000466","25.93","img/117/4/0.5/bw/001.png","","","interesting"
"","","","","","animation","109","1561715","0.0-109.0","1920x1080","","4454.300000000047","25.13","img/117/3.5/1.5/bw/001.png","","","interesting"
"","","","","","animation","110","1566163","0.0-110.0","1920x1080","","4446.899999999907","26.46","img/238/4.5/0.66667/bw/001.png","","","interesting"
"","","","","","animation","111","1569394","0.0-111.0","1920x1080","","3230.7999999998137","28.70","img/314/4.5/0.66667/bw/001.png","","","interesting"
"","","","","","animation","112","1572993","0.0-112.0","1920x1080","","3599.1999999999534","26.98","img/314/4/0.5/bw/001.png","","","interesting"
"","","","","","animation","113","1577570","0.0-113.0","1920x1080","","4575.399999999907","33","img/117/4.5/1.5/bw/001.png","","","interesting"
"","","","","","animation","114","1581833","0.0-114.0","1920x1080","","4262.600000000093","33.86","img/314/2.5/2/bw/001.png","","","interesting"
"","","","","","animation","115","1586025","0.0-115.0","1920x1080","","4190.699999999953","36","img/238/2.5/2/bw/001.png","","","interesting"
"","","","","","animation","116","1589913","0.0-116.0","1920x1080","","3887.600000000093","31.75","img/238/4/1.5/bw/001.png","","","interesting"
"","","","","","animation","117","1592417","0.0-117.0","1920x1080","","2503.100000000093","34.52","img/117/2.5/1.5/bw/001.png","","","interesting"
"","","","","","animation","118","1599507","0.0-118.0","1920x1080","","7089.300000000047","39","img/314/4.5/0.5/bw/001.png","","","interesting"
"","","","","","animation","119","1603609","0.0-119.0","1920x1080","","4100.299999999814","36.64","img/117/4.5/0.5/bw/001.png","","","interesting"
"","","","","","animation","120","1611161","0.0-120.0","1920x1080","","7551","30.82","img/238/3.5/1/bw/001.png","","","interesting"
"","","","","","animation","121","1618577","0.0-121.0","1920x1080","","7415","50.13","img/117/5.5/2/bw/001.png","","","interesting"
"","","","","","animation","122","1622297","0.0-122.0","1920x1080","","3718.3000000000466","41.53","img/314/4.5/1/bw/001.png","","","interesting"
"","","","","","animation","123","1633700","0.0-123.0","1920x1080","","11398.699999999953","33","img/117/3.5/0.66667/bw/001.png","","","interesting"
"","","","","","animation","124","1659283","0.0-124.0","1920x1080","","25583","30.29","img/314/4/0.66667/bw/001.png","","","interesting"
"","","","","","animation","125","1668668","0.0-125.0","1920x1080","","9383.100000000093","22.88","img/314/2.5/0.5/bw/001.png","","","interesting"
"","","","","","animation","126","1675262","0.0-126.0","1920x1080","","6593.200000000186","39.81","img/117/4.5/2/bw/001.png","","","interesting"
"","","","","","animation","127","1679899","0.0-127.0","1920x1080","","4636.699999999953","36.38","img/117/4.5/1/bw/001.png","","","interesting"
"","","","","","animation","128","1682446","0.0-128.0","1920x1080","","2545.3000000000466","32.94","img/238/3.5/0.66667/bw/001.png","","","interesting"
"","","","","","animation","129","1684804","0.0-129.0","1920x1080","","2356.5","31.08","img/314/3.5/1.5/bw/001.png","","","interesting"
"","","","","","animation","130","1694993","0.0-130.0","1920x1080","","10190.59999999986","40.08","img/238/4.5/1/bw/001.png","","","interesting"
"","","","","","animation","131","1702291","0.0-131.0","1920x1080","","7297.200000000186","45.63","img/117/5.5/0.5/bw/001.png","","","interesting"
"","","","","","animation","132","1714586","0.0-132.0","1920x1080","","12293.299999999814","41.67","img/314/5.5/0.66667/bw/001.png","","","interesting"
"","","","","","animation","133","1725465","0.0-133.0","1920x1080","","10878.59999999986","45.63","img/238/5.5/0.66667/bw/001.png","","","interesting"
"","","","","","animation","134","1730865","0.0-134.0","1920x1080","","5398.899999999907","30.29","img/314/2.5/1.5/bw/001.png","","","interesting"
"","","","","","animation","135","1734761","0.0-135.0","1920x1080","","3895.0999999998603","35.05","img/117/4.5/0.66667/bw/001.png","","","interesting"
"","","","","","animation","136","1741876","0.0-136.0","1920x1080","","7113.100000000093","32","img/117/3.5/2/bw/001.png","","","interesting"
"","","","","","animation","137","1745817","0.0-137.0","1920x1080","","3941.100000000093","28.17","img/238/4/0.5/bw/001.png","","","interesting"
"","","","","","animation","138","1752169","0.0-138.0","1920x1080","","6355.399999999907","28.97","img/314/3.5/0.66667/bw/001.png","","","interesting"
"","","","","","animation","139","1755404","0.0-139.0","1920x1080","","3234.1999999999534","25.00","img/314/2.5/1/bw/001.png","","","interesting"
"","","","","","animation","140","1758220","0.0-140.0","1920x1080","","2814.9000000001397","27.51","img/117/3.5/0.5/bw/001.png","","","interesting"
"","","","","","animation","141","1773069","0.0-141.0","1920x1080","","14848.40000000014","42.99","img/314/5.5/1/bw/001.png","","","interesting"
"","","","","","animation","142","1782103","0.0-142.0","1920x1080","","9032.600000000093","32.54","img/117/3.5/1/bw/001.png","","","interesting"
"","","","","","animation","143","1793028","0.0-143.0","1920x1080","","10924.59999999986","48.94","img/238/5.5/1.5/bw/001.png","","","interesting"
"","","","","","animation","144","1797702","0.0-144.0","1920x1080","","4672.59999999986","31.48","img/117/4/2/bw/001.png","","","interesting"
"","","","","","animation","145","1802772","0.0-145.0","1920x1080","","5068.600000000093","26.32","img/117/4/1.5/bw/001.png","","","interesting"
"","","","","","animation","146","1812011","0.0-146.0","1920x1080","","9231","45.24","img/117/5.5/1/bw/001.png","","","interesting"
"","","","","","animation","147","1817867","0.0-147.0","1920x1080","","5855","33.47","img/314/4.5/1.5/bw/001.png","","","interesting"
"","","","","","animation","148","1826083","0.0-148.0","1920x1080","","8214.90000000014","43.65","img/314/5.5/2/bw/001.png","","","interesting"
"","","","","","animation","149","1829476","0.0-149.0","1920x1080","","3391.1999999999534","21.30","img/117/2.5/1/bw/001.png","","","interesting"
"","","","","","animation","150","1832509","0.0-150.0","1920x1080","","3032.899999999907","29.63","img/117/4/0.66667/bw/001.png","","","interesting"
"","","","","","animation","151","1835894","0.0-151.0","1920x1080","","3383.6999999999534","27.25","img/314/3.5/1/bw/001.png","","","interesting"
"","","","","","animation","152","1845179","0.0-152.0","1920x1080","","9284.09999999986","40.87","img/314/5.5/1.5/bw/001.png","","","interesting"
"","","","","","animation","153","1854776","0.0-153.0","1920x1080","","9594.300000000047","23","img/238/3.5/1.5/bw/001.png","","","interesting"
"","","","","","animation","154","1860859","0.0-154.0","1920x1080","","6081.800000000047","23.28","img/238/2.5/0.66667/bw/001.png","","","interesting"
"","","","","","animation","155","1870403","0.0-155.0","1920x1080","","9543.399999999907","27.78","img/238/4/1/bw/001.png","","","interesting"
"","","","","","animation","156","1874442","0.0-156.0","1920x1080","","4039","29.89","img/314/4/1.5/bw/001.png","","","interesting"
"","","","","","animation","157","1887974","0.0-157.0","1920x1080","","13531.09999999986","33","img/238/4.5/2/bw/001.png","","","interesting"
"","","","","","animation","158","1891146","0.0-158.0","1920x1080","","3170.9000000001397","23.81","img/117/2.5/0.66667/bw/001.png","","","interesting"
"","","","","","html-button-response","159","1915141","0.0-159.0","1920x1080","","23993.100000000093","","<div class=""intro"">You are about to view a new series of animations.<br><br></div><div class=""intro"">You will evaluate them based on a different descriptor.<br><br></div><div class=""intro"">Move the slider to indicate how <strong style=""text-transform:capitalize"">APPEALING</strong> you find each animation.<br><br></div><div class=""intro"">0 = Least Appealing<br></div><div class=""intro"">1 = Most Appealing<br><br></div><div class=""intro"">Remember to use the <strong><em>entire range</em></strong> of the slider to make your ratings.<br></div><div class=""intro"">Please <strong><em>take your time</em></strong> and carefully consider each rating you make.<br><br></div>","0","",""
"","","","","","call-function","160","1915143","0.0-160.0","1920x1080","","","","","","",""
"","","","","","animation","161","1929159","0.0-161.0","1920x1080","","14015.699999999953","69.97","img/314/5.5/1/bw/001.png","","","appealing"
"","","","","","animation","162","1935055","0.0-162.0","1920x1080","","5896.800000000047","19.71","img/238/2.5/1.5/bw/001.png","","","appealing"
"","","","","","animation","163","1941759","0.0-163.0","1920x1080","","6703.100000000093","30.29","img/238/4.5/0.5/bw/001.png","","","appealing"
"","","","","","animation","164","1954679","0.0-164.0","1920x1080","","12918.800000000047","75","img/238/5.5/1.5/bw/001.png","","","appealing"
"","","","","","animation","165","1960904","0.0-165.0","1920x1080","","6221.90000000014","24.34","img/117/3.5/0.5/bw/001.png","","","appealing"
"","","","","","animation","166","1964855","0.0-166.0","1920x1080","","3949.3000000000466","21.16","img/314/4/1/bw/001.png","","","appealing"
"","","","","","animation","167","1968623","0.0-167.0","1920x1080","","3766.6999999999534","15.74","img/238/2.5/2/bw/001.png","","","appealing"
"","","","","","animation","168","1978607","0.0-168.0","1920x1080","","9983","70","img/238/5.5/0.5/bw/001.png","","","appealing"
"","","","","","animation","169","1983788","0.0-169.0","1920x1080","","5177.199999999953","71.56","img/238/5.5/1/bw/001.png","","","appealing"
"","","","","","animation","170","1991156","0.0-170.0","1920x1080","","7367.5","29.63","img/314/3.5/1/bw/001.png","","","appealing"
"","","","","","animation","171","1996094","0.0-171.0","1920x1080","","4937.600000000093","30.56","img/117/3.5/1.5/bw/001.png","","","appealing"
"","","","","","animation","172","2003219","0.0-172.0","1920x1080","","7124.300000000047","73.02","img/117/5.5/0.66667/bw/001.png","","","appealing"
"","","","","","animation","173","2008958","0.0-173.0","1920x1080","","5737.5","23.15","img/314/3.5/0.5/bw/001.png","","","appealing"
"","","","","","animation","174","2013342","0.0-174.0","1920x1080","","4383","35.05","img/117/3.5/2/bw/001.png","","","appealing"
"","","","","","animation","175","2025469","0.0-175.0","1920x1080","","12126.500000000233","74.60","img/238/5.5/0.66667/bw/001.png","","","appealing"
"","","","","","animation","176","2032158","0.0-176.0","1920x1080","","6687.300000000279","74.34","img/314/5.5/0.66667/bw/001.png","","","appealing"
"","","","","","animation","177","2034937","0.0-177.0","1920x1080","","2777.6999999997206","19.31","img/238/2.5/1/bw/001.png","","","appealing"
"","","","","","animation","178","2039958","0.0-178.0","1920x1080","","5020.200000000186","30.82","img/238/4/2/bw/001.png","","","appealing"
"","","","","","animation","179","2049078","0.0-179.0","1920x1080","","9118.400000000373","53.97","img/238/4.5/2/bw/001.png","","","appealing"
"","","","","","animation","180","2053633","0.0-180.0","1920x1080","","4550.700000000186","42.72","img/314/4.5/1/bw/001.png","","","appealing"
"","","","","","animation","181","2057993","0.0-181.0","1920x1080","","4358.100000000093","17.99","img/314/2.5/1/bw/001.png","","","appealing"
"","","","","","animation","182","2061681","0.0-182.0","1920x1080","","3687.399999999907","20.37","img/117/4/0.5/bw/001.png","","","appealing"
"","","","","","animation","183","2063873","0.0-183.0","1920x1080","","2189.8000000002794","18.92","img/238/3.5/0.5/bw/001.png","","","appealing"
"","","","","","animation","184","2068189","0.0-184.0","1920x1080","","4315.700000000186","3","img/117/2.5/0.5/bw/001.png","","","appealing"
"","","","","","animation","185","2071065","0.0-185.0","1920x1080","","2874.5","8.33","img/314/2.5/1.5/bw/001.png","","","appealing"
"","","","","","animation","186","2077306","0.0-186.0","1920x1080","","6238.5","28","img/117/4/1/bw/001.png","","","appealing"
"","","","","","animation","187","2087060","0.0-187.0","1920x1080","","9752.69999999972","63.89","img/314/5.5/0.5/bw/001.png","","","appealing"
"","","","","","animation","188","2090240","0.0-188.0","1920x1080","","3176.8000000002794","32.94","img/238/3.5/1.5/bw/001.png","","","appealing"
"","","","","","animation","189","2093361","0.0-189.0","1920x1080","","3120.399999999907","31.08","img/117/4/1.5/bw/001.png","","","appealing"
"","","","","","animation","190","2095673","0.0-190.0","1920x1080","","2310.600000000093","14.81","img/238/2.5/0.66667/bw/001.png","","","appealing"
"","","","","","animation","191","2099593","0.0-191.0","1920x1080","","3918.999999999767","21","img/238/4/0.5/bw/001.png","","","appealing"
"","","","","","animation","192","2104793","0.0-192.0","1920x1080","","5198.700000000186","4.10","img/314/2.5/2/bw/001.png","","","appealing"
"","","","","","animation","193","2108161","0.0-193.0","1920x1080","","3367.100000000093","21.69","img/238/4/0.66667/bw/001.png","","","appealing"
"","","","","","animation","194","2110907","0.0-194.0","1920x1080","","2744.7000000001863","14.02","img/238/3.5/0.66667/bw/001.png","","","appealing"
"","","","","","animation","195","2114255","0.0-195.0","1920x1080","","3348.8000000002794","14.68","img/314/3.5/2/bw/001.png","","","appealing"
"","","","","","animation","196","2119359","0.0-196.0","1920x1080","","5103.5","26.19","img/314/4.5/1.5/bw/001.png","","","appealing"
"","","","","","animation","197","2122488","0.0-197.0","1920x1080","","3127.2000000001863","23.41","img/117/3.5/1/bw/001.png","","","appealing"
"","","","","","animation","198","2128138","0.0-198.0","1920x1080","","5649.0999999996275","19.84","img/314/4/0.66667/bw/001.png","","","appealing"
"","","","","","animation","199","2137239","0.0-199.0","1920x1080","","9100.69999999972","66.01","img/117/5.5/0.5/bw/001.png","","","appealing"
"","","","","","animation","200","2145922","0.0-200.0","1920x1080","","8681.5","30.16","img/238/3.5/2/bw/001.png","","","appealing"
"","","","","","animation","201","2152321","0.0-201.0","1920x1080","","6397.800000000279","76.32","img/117/5.5/1/bw/001.png","","","appealing"
"","","","","","animation","202","2156304","0.0-202.0","1920x1080","","3982.3000000002794","50.40","img/314/4.5/0.66667/bw/001.png","","","appealing"
"","","","","","animation","203","2160455","0.0-203.0","1920x1080","","4149.300000000279","38","img/117/4.5/0.66667/bw/001.png","","","appealing"
"","","","","","animation","204","2166837","0.0-204.0","1920x1080","","6381.200000000186","33.60","img/117/4/2/bw/001.png","","","appealing"
"","","","","","animation","205","2186273","0.0-205.0","1920x1080","","19430.899999999907","42","img/314/4.5/2/bw/001.png","","","appealing"
"","","","","","animation","206","2204256","0.0-206.0","1920x1080","","17980.100000000093","84.39","img/117/5.5/2/bw/001.png","","","appealing"
"","","","","","animation","207","2248759","0.0-207.0","1920x1080","","44501.60000000009","25.00","img/117/4/0.66667/bw/001.png","","","appealing"
"","","","","","animation","208","2252854","0.0-208.0","1920x1080","","4094.3000000002794","34.92","img/117/4.5/1.5/bw/001.png","","","appealing"
"","","","","","animation","209","2256855","0.0-209.0","1920x1080","","3998.7000000001863","32.28","img/117/4.5/1/bw/001.png","","","appealing"
"","","","","","animation","210","2261439","0.0-210.0","1920x1080","","4582.700000000186","28.70","img/314/4/1.5/bw/001.png","","","appealing"
"","","","","","animation","211","2266006","0.0-211.0","1920x1080","","4566.600000000093","13.76","img/314/2.5/0.66667/bw/001.png","","","appealing"
"","","","","","animation","212","2274154","0.0-212.0","1920x1080","","8146.399999999907","30.03","img/238/4.5/0.66667/bw/001.png","","","appealing"
"","","","","","animation","213","2279527","0.0-213.0","1920x1080","","5371.800000000279","28.17","img/314/4.5/0.5/bw/001.png","","","appealing"
"","","","","","animation","214","2282136","0.0-214.0","1920x1080","","2608.1999999997206","13.89","img/117/2.5/1.5/bw/001.png","","","appealing"
"","","","","","animation","215","2285959","0.0-215.0","1920x1080","","3821.5","3.44","img/314/2.5/0.5/bw/001.png","","","appealing"
"","","","","","animation","216","2297727","0.0-216.0","1920x1080","","11759.599999999627","85.32","img/314/5.5/1.5/bw/001.png","","","appealing"
"","","","","","animation","217","2315086","0.0-217.0","1920x1080","","17356.799999999814","36.77","img/238/4.5/1/bw/001.png","","","appealing"
"","","","","","animation","218","2323350","0.0-218.0","1920x1080","","8262.700000000186","80.16","img/117/5.5/1.5/bw/001.png","","","appealing"
"","","","","","animation","219","2328878","0.0-219.0","1920x1080","","5524.600000000093","36.64","img/314/3.5/0.66667/bw/001.png","","","appealing"
"","","","","","animation","220","2333861","0.0-220.0","1920x1080","","4981.799999999814","39.29","img/238/4.5/1.5/bw/001.png","","","appealing"
"","","","","","animation","221","2336846","0.0-221.0","1920x1080","","2983.899999999907","29.76","img/314/4/0.5/bw/001.png","","","appealing"
"","","","","","animation","222","2339846","0.0-222.0","1920x1080","","2999","29.23","img/117/4.5/0.5/bw/001.png","","","appealing"
"","","","","","animation","223","2342410","0.0-223.0","1920x1080","","2563.100000000093","27.78","img/314/3.5/1.5/bw/001.png","","","appealing"
"","","","","","animation","224","2346446","0.0-224.0","1920x1080","","4034.600000000093","26.85","img/117/3.5/0.66667/bw/001.png","","","appealing"
"","","","","","animation","225","2349230","0.0-225.0","1920x1080","","2782.600000000093","19.71","img/117/2.5/2/bw/001.png","","","appealing"
"","","","","","animation","226","2353879","0.0-226.0","1920x1080","","4655.5","26.98","img/314/4/2/bw/001.png","","","appealing"
"","","","","","animation","227","2357559","0.0-227.0","1920x1080","","3678.399999999907","7.41","img/238/2.5/0.5/bw/001.png","","","appealing"
"","","","","","animation","228","2364927","0.0-228.0","1920x1080","","7366.700000000186","22.49","img/238/3.5/1/bw/001.png","","","appealing"
"","","","","","animation","229","2370087","0.0-229.0","1920x1080","","5158.100000000093","37.30","img/117/4.5/2/bw/001.png","","","appealing"
"","","","","","animation","230","2377237","0.0-230.0","1920x1080","","7148.399999999907","83.73","img/314/5.5/2/bw/001.png","","","appealing"
"","","","","","animation","231","2384636","0.0-231.0","1920x1080","","7398.700000000186","35","img/238/4/1.5/bw/001.png","","","appealing"
"","","","","","animation","232","2388270","0.0-232.0","1920x1080","","3631.6999999997206","15.87","img/117/2.5/0.66667/bw/001.png","","","appealing"
"","","","","","animation","233","2391503","0.0-233.0","1920x1080","","3232.1999999997206","12.83","img/117/2.5/1/bw/001.png","","","appealing"
"","","","","","animation","234","2397223","0.0-234.0","1920x1080","","5718.700000000186","28.17","img/238/4/1/bw/001.png","","","appealing"
"","","","","","animation","235","2407087","0.0-235.0","1920x1080","","9862.399999999907","83.86","img/238/5.5/2/bw/001.png","","","appealing"
"","","","","","html-button-response","236","2427009","0.0-236.0","1920x1080","","19914","","<div class=""intro"">You are about to view a new series of animations.<br><br></div><div class=""intro"">You will evaluate them based on a different descriptor.<br><br></div><div class=""intro"">Move the slider to indicate how <strong style=""text-transform:capitalize"">RELAXING</strong> you find each animation.<br><br></div><div class=""intro"">0 = Least Relaxing<br></div><div class=""intro"">1 = Most Relaxing<br><br></div><div class=""intro"">Remember to use the <strong><em>entire range</em></strong> of the slider to make your ratings.<br></div><div class=""intro"">Please <strong><em>take your time</em></strong> and carefully consider each rating you make.<br><br></div>","0","",""
"","","","","","call-function","237","2427011","0.0-237.0","1920x1080","","","","","","",""
"","","","","","animation","238","2438293","0.0-238.0","1920x1080","","11281.899999999907","28.84","img/238/4.5/1/bw/001.png","","","relaxing"
"","","","","","animation","239","2440442","0.0-239.0","1920x1080","","2148","4.89","img/314/2.5/0.5/bw/001.png","","","relaxing"
"","","","","","animation","240","2442976","0.0-240.0","1920x1080","","2532.3000000002794","3.70","img/314/2.5/0.66667/bw/001.png","","","relaxing"
"","","","","","animation","241","2448776","0.0-241.0","1920x1080","","5798.899999999907","21.43","img/238/4/1.5/bw/001.png","","","relaxing"
"","","","","","animation","242","2451209","0.0-242.0","1920x1080","","2432.600000000093","5.03","img/238/2.5/0.66667/bw/001.png","","","relaxing"
"","","","","","animation","243","2454061","0.0-243.0","1920x1080","","2850.2999999998137","14.81","img/314/3.5/1/bw/001.png","","","relaxing"
"","","","","","animation","244","2456959","0.0-244.0","1920x1080","","2896.899999999907","10","img/117/4/0.5/bw/001.png","","","relaxing"
"","","","","","animation","245","2459463","0.0-245.0","1920x1080","","2502.7000000001863","9.13","img/314/3.5/0.66667/bw/001.png","","","relaxing"
"","","","","","animation","246","2462261","0.0-246.0","1920x1080","","2796","12.70","img/117/3.5/1/bw/001.png","","","relaxing"
"","","","","","animation","247","2471226","0.0-247.0","1920x1080","","8963.400000000373","12.96","img/117/4/1/bw/001.png","","","relaxing"
"","","","","","animation","248","2474416","0.0-248.0","1920x1080","","3198.7000000001863","4.23","img/117/2.5/1/bw/001.png","","","relaxing"
"","","","","","animation","249","2477172","0.0-249.0","1920x1080","","2754.5","16.14","img/117/4/0.66667/bw/001.png","","","relaxing"
"","","","","","animation","250","2481468","0.0-250.0","1920x1080","","4294.199999999721","19.84","img/314/4/1/bw/001.png","","","relaxing"
"","","","","","animation","251","2487620","0.0-251.0","1920x1080","","6151","62.30","img/117/5.5/0.5/bw/001.png","","","relaxing"
"","","","","","animation","252","2503636","0.0-252.0","1920x1080","","16014.299999999814","80.95","img/238/5.5/2/bw/001.png","","","relaxing"
"","","","","","animation","253","2508300","0.0-253.0","1920x1080","","4659.699999999721","80.29","img/117/5.5/2/bw/001.png","","","relaxing"
"","","","","","animation","254","2514836","0.0-254.0","1920x1080","","6534.799999999814","33.99","img/238/4.5/1.5/bw/001.png","","","relaxing"
"","","","","","animation","255","2519988","0.0-255.0","1920x1080","","5150.899999999907","29","img/238/3.5/2/bw/001.png","","","relaxing"
"","","","","","animation","256","2523716","0.0-256.0","1920x1080","","3726.399999999907","27.12","img/238/4.5/0.5/bw/001.png","","","relaxing"
"","","","","","animation","257","2527068","0.0-257.0","1920x1080","","3350.6999999997206","6.35","img/238/2.5/1.5/bw/001.png","","","relaxing"
"","","","","","animation","258","2532359","0.0-258.0","1920x1080","","5287.300000000279","0","img/117/2.5/0.5/bw/001.png","","","relaxing"
"","","","","","animation","259","2537286","0.0-259.0","1920x1080","","4925.899999999907","72.09","img/314/5.5/0.66667/bw/001.png","","","relaxing"
"","","","","","animation","260","2540069","0.0-260.0","1920x1080","","2780.899999999907","33.73","img/238/3.5/0.5/bw/001.png","","","relaxing"
"","","","","","animation","261","2544535","0.0-261.0","1920x1080","","4465.399999999907","29","img/314/3.5/1.5/bw/001.png","","","relaxing"
"","","","","","animation","262","2548927","0.0-262.0","1920x1080","","4390.0999999996275","30.42","img/314/4.5/0.5/bw/001.png","","","relaxing"
"","","","","","animation","263","2552219","0.0-263.0","1920x1080","","3290.7999999998137","8","img/314/2.5/2/bw/001.png","","","relaxing"
"","","","","","animation","264","2557286","0.0-264.0","1920x1080","","5065.799999999814","63.62","img/314/5.5/0.5/bw/001.png","","","relaxing"
"","","","","","animation","265","2565591","0.0-265.0","1920x1080","","8302.899999999907","18.39","img/117/4/2/bw/001.png","","","relaxing"
"","","","","","animation","266","2570952","0.0-266.0","1920x1080","","5360.299999999814","15.34","img/238/3.5/0.66667/bw/001.png","","","relaxing"
"","","","","","animation","267","2575857","0.0-267.0","1920x1080","","4904.100000000093","10.45","img/238/3.5/1/bw/001.png","","","relaxing"
"","","","","","animation","268","2578343","0.0-268.0","1920x1080","","2482","1.59","img/314/2.5/1/bw/001.png","","","relaxing"
"","","","","","animation","269","2582019","0.0-269.0","1920x1080","","3675.2999999998137","17.86","img/238/4/1/bw/001.png","","","relaxing"
"","","","","","animation","270","2590375","0.0-270.0","1920x1080","","8354.19999999972","67.59","img/238/5.5/0.5/bw/001.png","","","relaxing"
"","","","","","animation","271","2603441","0.0-271.0","1920x1080","","13059.899999999907","34","img/117/4.5/1.5/bw/001.png","","","relaxing"
"","","","","","animation","272","2608021","0.0-272.0","1920x1080","","4579.100000000093","81.61","img/238/5.5/1/bw/001.png","","","relaxing"
"","","","","","animation","273","2615071","0.0-273.0","1920x1080","","7048.199999999721","41","img/117/4/1.5/bw/001.png","","","relaxing"
"","","","","","animation","274","2622008","0.0-274.0","1920x1080","","6936.299999999814","32.41","img/238/4/0.66667/bw/001.png","","","relaxing"
"","","","","","animation","275","2628561","0.0-275.0","1920x1080","","6551.100000000093","80.03","img/238/5.5/0.66667/bw/001.png","","","relaxing"
"","","","","","animation","276","2635587","0.0-276.0","1920x1080","","7025.299999999814","83.20","img/117/5.5/1.5/bw/001.png","","","relaxing"
"","","","","","animation","277","2638187","0.0-277.0","1920x1080","","2598.6999999997206","5.03","img/238/2.5/0.5/bw/001.png","","","relaxing"
"","","","","","animation","278","2643754","0.0-278.0","1920x1080","","5565.399999999907","81.35","img/314/5.5/1.5/bw/001.png","","","relaxing"
"","","","","","animation","279","2650721","0.0-279.0","1920x1080","","6964.600000000093","15","img/314/4/0.66667/bw/001.png","","","relaxing"
"","","","","","animation","280","2655588","0.0-280.0","1920x1080","","4870.899999999907","11.77","img/238/4/0.5/bw/001.png","","","relaxing"
"","","","","","animation","281","2660572","0.0-281.0","1920x1080","","4982.899999999907","9.66","img/238/3.5/1.5/bw/001.png","","","relaxing"
"","","","","","animation","282","2663334","0.0-282.0","1920x1080","","2761.2999999998137","14.15","img/117/4.5/0.5/bw/001.png","","","relaxing"
"","","","","","animation","283","2667316","0.0-283.0","1920x1080","","3976.899999999907","34.13","img/314/4.5/2/bw/001.png","","","relaxing"
"","","","","","animation","284","2670204","0.0-284.0","1920x1080","","2887","3.17","img/117/2.5/0.66667/bw/001.png","","","relaxing"
"","","","","","animation","285","2672533","0.0-285.0","1920x1080","","2327.399999999907","2.78","img/314/2.5/1.5/bw/001.png","","","relaxing"
"","","","","","animation","286","2676749","0.0-286.0","1920x1080","","4215.5","32.14","img/238/4/2/bw/001.png","","","relaxing"
"","","","","","animation","287","2679220","0.0-287.0","1920x1080","","2469.399999999907","4.10","img/117/2.5/1.5/bw/001.png","","","relaxing"
"","","","","","animation","288","2682267","0.0-288.0","1920x1080","","3046.2999999998137","3.04","img/238/2.5/1/bw/001.png","","","relaxing"
"","","","","","animation","289","2686449","0.0-289.0","1920x1080","","4180.200000000186","21.30","img/117/3.5/1.5/bw/001.png","","","relaxing"
"","","","","","animation","290","2689467","0.0-290.0","1920x1080","","3017.2000000001863","18.39","img/117/3.5/0.66667/bw/001.png","","","relaxing"
"","","","","","animation","291","2694865","0.0-291.0","1920x1080","","5396.5","30.69","img/238/4.5/2/bw/001.png","","","relaxing"
"","","","","","animation","292","2705032","0.0-292.0","1920x1080","","10165.299999999814","75","img/117/5.5/1/bw/001.png","","","relaxing"
"","","","","","animation","293","2711915","0.0-293.0","1920x1080","","6881.299999999814","33.99","img/117/4.5/1/bw/001.png","","","relaxing"
"","","","","","animation","294","2718916","0.0-294.0","1920x1080","","6999.399999999907","82.67","img/314/5.5/2/bw/001.png","","","relaxing"
"","","","","","animation","295","2722651","0.0-295.0","1920x1080","","3733.5","85.19","img/238/5.5/1.5/bw/001.png","","","relaxing"
"","","","","","animation","296","2729232","0.0-296.0","1920x1080","","6579.5","31","img/314/4/2/bw/001.png","","","relaxing"
"","","","","","animation","297","2733782","0.0-297.0","1920x1080","","4548.399999999907","67.46","img/117/5.5/0.66667/bw/001.png","","","relaxing"
"","","","","","animation","298","2739632","0.0-298.0","1920x1080","","5849.100000000093","22.35","img/117/3.5/2/bw/001.png","","","relaxing"
"","","","","","animation","299","2743155","0.0-299.0","1920x1080","","3522.1999999997206","28.97","img/314/4.5/1.5/bw/001.png","","","relaxing"
"","","","","","animation","300","2747435","0.0-300.0","1920x1080","","4278.5","27.51","img/314/4.5/0.66667/bw/001.png","","","relaxing"
"","","","","","animation","301","2750099","0.0-301.0","1920x1080","","2661.7999999998137","7.14","img/117/2.5/2/bw/001.png","","","relaxing"
"","","","","","animation","302","2753665","0.0-302.0","1920x1080","","3565.2999999998137","27.12","img/314/4.5/1/bw/001.png","","","relaxing"
"","","","","","animation","303","2756632","0.0-303.0","1920x1080","","2965.5","4.10","img/238/2.5/2/bw/001.png","","","relaxing"
"","","","","","animation","304","2765087","0.0-304.0","1920x1080","","8453.700000000186","28.04","img/314/4/1.5/bw/001.png","","","relaxing"
"","","","","","animation","305","2772567","0.0-305.0","1920x1080","","7475.799999999814","80.95","img/314/5.5/1/bw/001.png","","","relaxing"
"","","","","","animation","306","2779805","0.0-306.0","1920x1080","","7234.600000000093","33.47","img/314/4/0.5/bw/001.png","","","relaxing"
"","","","","","animation","307","2788101","0.0-307.0","1920x1080","","8293.599999999627","50","img/117/4.5/2/bw/001.png","","","relaxing"
"","","","","","animation","308","2792821","0.0-308.0","1920x1080","","4719.100000000093","28","img/314/3.5/0.5/bw/001.png","","","relaxing"
"","","","","","animation","309","2795517","0.0-309.0","1920x1080","","2694.399999999907","37.96","img/238/4.5/0.66667/bw/001.png","","","relaxing"
"","","","","","animation","310","2798471","0.0-310.0","1920x1080","","2953.100000000093","36.11","img/117/4.5/0.66667/bw/001.png","","","relaxing"
"","","","","","animation","311","2801867","0.0-311.0","1920x1080","","3394.399999999907","26.06","img/314/3.5/2/bw/001.png","","","relaxing"
"","","","","","animation","312","2804269","0.0-312.0","1920x1080","","2400.6999999997206","23.28","img/117/3.5/0.5/bw/001.png","","","relaxing"
"","","","","","html-button-response","313","2826357","0.0-313.0","1920x1080","","22086.899999999907","","<div class=""intro"">You are about to view a new series of animations.<br><br></div><div class=""intro"">You will evaluate them based on a different descriptor.<br><br></div><div class=""intro"">Move the slider to indicate how <strong style=""text-transform:capitalize"">NATURAL</strong> you find each animation.<br><br></div><div class=""intro"">0 = Least Natural<br></div><div class=""intro"">1 = Most Natural<br><br></div><div class=""intro"">Remember to use the <strong><em>entire range</em></strong> of the slider to make your ratings.<br></div><div class=""intro"">Please <strong><em>take your time</em></strong> and carefully consider each rating you make.<br><br></div>","0","",""
"","","","","","call-function","314","2826360","0.0-314.0","1920x1080","","","","","","",""
"","","","","","animation","315","2871948","0.0-315.0","1920x1080","","45588.89999999991","20.11","img/314/3.5/0.66667/bw/001.png","","","natural"
"","","","","","animation","316","2878067","0.0-316.0","1920x1080","","6117.5","76.19","img/314/5.5/1/bw/001.png","","","natural"
"","","","","","animation","317","2886264","0.0-317.0","1920x1080","","8196","77.38","img/117/5.5/2/bw/001.png","","","natural"
"","","","","","animation","318","2890514","0.0-318.0","1920x1080","","4246.799999999814","36.24","img/117/4/0.5/bw/001.png","","","natural"
"","","","","","animation","319","2898044","0.0-319.0","1920x1080","","7519.299999999814","75.93","img/238/5.5/0.5/bw/001.png","","","natural"
"","","","","","animation","320","2903861","0.0-320.0","1920x1080","","5815.199999999721","15.08","img/238/2.5/0.66667/bw/001.png","","","natural"
"","","","","","animation","321","2917013","0.0-321.0","1920x1080","","13149.19999999972","21","img/314/4/0.66667/bw/001.png","","","natural"
"","","","","","animation","322","2922190","0.0-322.0","1920x1080","","5175.4000000003725","40.34","img/238/4.5/1.5/bw/001.png","","","natural"
"","","","","","animation","323","2926325","0.0-323.0","1920x1080","","4133.100000000093","18.39","img/314/2.5/0.5/bw/001.png","","","natural"
"","","","","","animation","324","2933190","0.0-324.0","1920x1080","","6864.699999999721","80.42","img/117/5.5/1/bw/001.png","","","natural"
"","","","","","animation","325","2936877","0.0-325.0","1920x1080","","3684.600000000093","54.23","img/238/4/1.5/bw/001.png","","","natural"
"","","","","","animation","326","2940774","0.0-326.0","1920x1080","","3895.1999999997206","64.55","img/238/4.5/0.66667/bw/001.png","","","natural"
"","","","","","animation","327","2944508","0.0-327.0","1920x1080","","3733.6999999997206","49.34","img/314/3.5/1/bw/001.png","","","natural"
"","","","","","animation","328","2947191","0.0-328.0","1920x1080","","2680.899999999907","44.05","img/117/3.5/0.66667/bw/001.png","","","natural"
"","","","","","animation","329","2949590","0.0-329.0","1920x1080","","2398.2000000001863","48.15","img/314/3.5/2/bw/001.png","","","natural"
"","","","","","animation","330","2952716","0.0-330.0","1920x1080","","3133","36.38","img/314/2.5/1.5/bw/001.png","","","natural"
"","","","","","animation","331","2956804","0.0-331.0","1920x1080","","4087.100000000093","44.97","img/117/3.5/1.5/bw/001.png","","","natural"
"","","","","","animation","332","2959167","0.0-332.0","1920x1080","","2361","47.88","img/117/4/2/bw/001.png","","","natural"
"","","","","","animation","333","2962265","0.0-333.0","1920x1080","","3096.7999999998137","59.92","img/314/4.5/2/bw/001.png","","","natural"
"","","","","","animation","334","2968468","0.0-334.0","1920x1080","","6201.799999999814","84.26","img/117/5.5/0.5/bw/001.png","","","natural"
"","","","","","animation","335","2972189","0.0-335.0","1920x1080","","3719.2999999998137","64.02","img/238/4.5/0.5/bw/001.png","","","natural"
"","","","","","animation","336","2974868","0.0-336.0","1920x1080","","2678.1999999997206","62.17","img/238/4/0.66667/bw/001.png","","","natural"
"","","","","","animation","337","2977599","0.0-337.0","1920x1080","","2729.399999999907","52.91","img/238/3.5/1.5/bw/001.png","","","natural"
"","","","","","animation","338","2981278","0.0-338.0","1920x1080","","3678.3000000002794","54.89","img/117/3.5/2/bw/001.png","","","natural"
"","","","","","animation","339","2984071","0.0-339.0","1920x1080","","2791.5","50.79","img/238/3.5/0.5/bw/001.png","","","natural"
"","","","","","animation","340","2991532","0.0-340.0","1920x1080","","7459.399999999907","77.38","img/238/5.5/1.5/bw/001.png","","","natural"
"","","","","","animation","341","2996036","0.0-341.0","1920x1080","","4500.5999999996275","80.42","img/314/5.5/0.66667/bw/001.png","","","natural"
"","","","","","animation","342","2998872","0.0-342.0","1920x1080","","2834.399999999907","64.42","img/314/4.5/0.66667/bw/001.png","","","natural"
"","","","","","animation","343","3002084","0.0-343.0","1920x1080","","3210.899999999907","43.12","img/117/3.5/1/bw/001.png","","","natural"
"","","","","","animation","344","3005592","0.0-344.0","1920x1080","","3506.8000000002794","25.13","img/314/2.5/2/bw/001.png","","","natural"
"","","","","","animation","345","3023783","0.0-345.0","1920x1080","","18181.299999999814","59","img/117/4.5/1/bw/001.png","","","natural"
"","","","","","animation","346","3027856","0.0-346.0","1920x1080","","4071.1999999997206","57.41","img/117/4.5/1.5/bw/001.png","","","natural"
"","","","","","animation","347","3035391","0.0-347.0","1920x1080","","7532.799999999814","44","img/238/4/0.5/bw/001.png","","","natural"
"","","","","","animation","348","3037010","0.0-348.0","1920x1080","","1617.8999999999069","39.95","img/314/3.5/0.5/bw/001.png","","","natural"
"","","","","","animation","349","3039493","0.0-349.0","1920x1080","","2481.2999999998137","20.90","img/314/2.5/1/bw/001.png","","","natural"
"","","","","","animation","350","3041624","0.0-350.0","1920x1080","","2129.899999999907","43.12","img/117/4/1/bw/001.png","","","natural"
"","","","","","animation","351","3044045","0.0-351.0","1920x1080","","2419.7000000001863","37.96","img/238/3.5/1/bw/001.png","","","natural"
"","","","","","animation","352","3046374","0.0-352.0","1920x1080","","2327.8000000002794","45.77","img/117/4.5/0.5/bw/001.png","","","natural"
"","","","","","animation","353","3048807","0.0-353.0","1920x1080","","2431.899999999907","19.05","img/314/2.5/0.66667/bw/001.png","","","natural"
"","","","","","animation","354","3057309","0.0-354.0","1920x1080","","8500.099999999627","45.63","img/314/4.5/0.5/bw/001.png","","","natural"
"","","","","","animation","355","3059757","0.0-355.0","1920x1080","","2446.7999999998137","46.43","img/117/4/0.66667/bw/001.png","","","natural"
"","","","","","animation","356","3062059","0.0-356.0","1920x1080","","2300.8000000002794","19.58","img/238/2.5/0.5/bw/001.png","","","natural"
"","","","","","animation","357","3064090","0.0-357.0","1920x1080","","2030.6000000000931","35.58","img/314/4/0.5/bw/001.png","","","natural"
"","","","","","animation","358","3067613","0.0-358.0","1920x1080","","3521.2999999998137","76.32","img/238/5.5/2/bw/001.png","","","natural"
"","","","","","animation","359","3070107","0.0-359.0","1920x1080","","2493","11.90","img/117/2.5/1.5/bw/001.png","","","natural"
"","","","","","animation","360","3072891","0.0-360.0","1920x1080","","2782.399999999907","30.82","img/238/4/1/bw/001.png","","","natural"
"","","","","","animation","361","3075124","0.0-361.0","1920x1080","","2229.5","35.98","img/314/4/2/bw/001.png","","","natural"
"","","","","","animation","362","3078528","0.0-362.0","1920x1080","","3402.899999999907","22.62","img/117/2.5/0.5/bw/001.png","","","natural"
"","","","","","animation","363","3081648","0.0-363.0","1920x1080","","3118.6999999997206","23.41","img/117/2.5/2/bw/001.png","","","natural"
"","","","","","animation","364","3088446","0.0-364.0","1920x1080","","6796.4000000003725","43.78","img/314/4.5/1.5/bw/001.png","","","natural"
"","","","","","animation","365","3091261","0.0-365.0","1920x1080","","2814.100000000093","25.79","img/238/2.5/1/bw/001.png","","","natural"
"","","","","","animation","366","3095078","0.0-366.0","1920x1080","","3815","75.93","img/238/5.5/1/bw/001.png","","","natural"
"","","","","","animation","367","3098278","0.0-367.0","1920x1080","","3199","83.33","img/314/5.5/0.5/bw/001.png","","","natural"
"","","","","","animation","368","3101867","0.0-368.0","1920x1080","","3586.399999999907","47.09","img/238/4/2/bw/001.png","","","natural"
"","","","","","animation","369","3105391","0.0-369.0","1920x1080","","3522.5","49.07","img/238/4.5/1/bw/001.png","","","natural"
"","","","","","animation","370","3107275","0.0-370.0","1920x1080","","1882","23.02","img/117/2.5/1/bw/001.png","","","natural"
"","","","","","animation","371","3110693","0.0-371.0","1920x1080","","3417","17","img/117/2.5/0.66667/bw/001.png","","","natural"
"","","","","","animation","372","3115291","0.0-372.0","1920x1080","","4595.699999999721","14.81","img/238/2.5/1.5/bw/001.png","","","natural"
"","","","","","animation","373","3117575","0.0-373.0","1920x1080","","2277.6999999997206","30.42","img/314/4/1/bw/001.png","","","natural"
"","","","","","animation","374","3120049","0.0-374.0","1920x1080","","2472.600000000093","33.99","img/238/3.5/0.66667/bw/001.png","","","natural"
"","","","","","animation","375","3122761","0.0-375.0","1920x1080","","2711.2000000001863","37.96","img/117/3.5/0.5/bw/001.png","","","natural"
"","","","","","animation","376","3126622","0.0-376.0","1920x1080","","3860.3000000002794","49.87","img/314/4/1.5/bw/001.png","","","natural"
"","","","","","animation","377","3129141","0.0-377.0","1920x1080","","2517","44.97","img/238/3.5/2/bw/001.png","","","natural"
"","","","","","animation","378","3132024","0.0-378.0","1920x1080","","2882.100000000093","25.79","img/238/2.5/2/bw/001.png","","","natural"
"","","","","","animation","379","3134606","0.0-379.0","1920x1080","","2581.100000000093","55.29","img/117/4.5/0.66667/bw/001.png","","","natural"
"","","","","","animation","380","3136590","0.0-380.0","1920x1080","","1982.1000000000931","52.91","img/117/4.5/2/bw/001.png","","","natural"
"","","","","","animation","381","3141690","0.0-381.0","1920x1080","","5098.899999999907","52","img/117/4/1.5/bw/001.png","","","natural"
"","","","","","animation","382","3148157","0.0-382.0","1920x1080","","6465.300000000279","77.51","img/314/5.5/1.5/bw/001.png","","","natural"
"","","","","","animation","383","3150503","0.0-383.0","1920x1080","","2344.3000000002794","80.03","img/117/5.5/0.66667/bw/001.png","","","natural"
"","","","","","animation","384","3153276","0.0-384.0","1920x1080","","2771.5999999996275","55.56","img/314/4.5/1/bw/001.png","","","natural"
"","","","","","animation","385","3156379","0.0-385.0","1920x1080","","3101.7999999998137","79.23","img/238/5.5/0.66667/bw/001.png","","","natural"
"","","","","","animation","386","3161647","0.0-386.0","1920x1080","","5265.399999999907","41.67","img/238/4.5/2/bw/001.png","","","natural"
"","","","","","animation","387","3167518","0.0-387.0","1920x1080","","5869.899999999907","73.41","img/314/5.5/2/bw/001.png","","","natural"
"","","","","","animation","388","3171229","0.0-388.0","1920x1080","","3708.8000000002794","75.00","img/117/5.5/1.5/bw/001.png","","","natural"
"","","","","","animation","389","3174865","0.0-389.0","1920x1080","","3634.899999999907","35.98","img/314/3.5/1.5/bw/001.png","","","natural"
"","","","","","html-button-response","390","3217780","0.0-390.0","1920x1080","","42914.10000000009","","<strong>Study Debriefing</strong><br><p class=""debrief""><strong>Background:</strong> The patterns you rated are called <em>fractals</em>. The term fractal describes a class of irregular curves or shapes for which any suitably chosen part is similar in shape to a given larger or smaller part when magnified or reduced to the same size. Fractal properties are found throughout the natural and manmade world. The series of animations you saw today displayed animated fractal patterns of a varying complexity.</p><p class=""debrief""><strong>Purpose of this study:</strong> We hope to better understand how the perception of static fractals differs from the perception of animated fractals, and how the speed of the animated patterns influences people&apos;s perception of them. Fractals allow us to study the perception of aesthetic properties (e.g. the perceived level of beauty in an image) without using recognizable content, which makes them an excellent tool for studying abstract aesthetic judgement.</p><p class=""debrief""><strong>Your part:</strong> Your participation has helped us to further understand how humans perceive these patterns across different levels of speed and complexity. This research with allow us to better understand how the visual system and brain process our ever-changing visual environments.<p class=""debrief""><strong>Feedback and Further information:</strong> If you have additional questions about this study, please feel free to ask the researcher, Nathan Gonzales-Hess at nhess @ uoregon.edu. If you have any questions concerning your rights as a research participant, please contact Research Compliance Services, 5237 University of Oregon, Eugene, OR 97403, 541-346-2510, or email researchCompliance @ uoregon.edu. You can also email the Human Subjects Coordinator for psychology and linguistics research at hscoord @ uoregon.edu. ","0","",""
"","","","","","html-button-response","391","3223022","0.0-391.0","1920x1080","","5238.199999999721","","Thank you for participating in this study. <br>Please click below to finish the experiment and submit your responses.<br><br>","0","",""
"true","","","","","fullscreen","392","3224033","0.0-392.0","1920x1080","9:58 24/10/2022","","","","","",""
