"success","timeout","failed_images","failed_audio","failed_video","trial_type","trial_index","time_elapsed","internal_node_id","resolution","timeStamp","rt","response","stimulus","button_pressed","value","descriptor"
"true","false","[]","[]","[]","preload","0","21903","0.0-0.0","1920x1080","","","","","","",""
"true","false","[]","[]","[]","preload","1","42396","0.0-1.0","1920x1080","","","","","","",""
"true","false","[]","[]","[]","preload","2","63790","0.0-2.0","1920x1080","","","","","","",""
"true","","","","","fullscreen","3","68522","0.0-3.0","1920x1080","13:0 20/5/2022","","","","","",""
"","","","","","survey-html-form","4","77465","0.0-4.0","1920x1080","","8939.5","{""age"":""20"",""gender"":""female""}","","","",""
"","","","","","html-button-response","5","87440","0.0-5.0","1920x1080","","9974.799999999988","","<div class=""complex"">You are going to see a series of animations.<br><br></div><div class=""complex"">Move the slider to indicate how <strong style=""text-transform:capitalize"">COMPLEX</strong> you find each animation.<br><br></div><div class=""complex"">0 = Least Complex<br></div><div class=""complex"">1 = Most Complex<br><br></div><div class=""complex"">Remember to use the <strong><em>entire range</em></strong> of the slider to make your ratings.<br></div><div class=""complex"">Please <strong><em>take your time</em></strong> and carefully consider each rating you make.<br><br></div><div class=""complex"">The study has five sections and will take about 45 minutes to complete.<br><br></div>","0","",""
"","","","","","call-function","6","87441","0.0-6.0","1920x1080","","","","","","",""
"","","","","","animation","7","104904","0.0-7.0","1920x1080","","17461.70000000001","23.28","img/238/3.5/0.5/bw/001.png","","","complex"
"","","","","","animation","8","108784","0.0-8.0","1920x1080","","3878.5","7.01","img/314/4.5/1/bw/001.png","","","complex"
"","","","","","animation","9","113248","0.0-9.0","1920x1080","","4462.900000000023","44.97","img/314/4/0.5/bw/001.png","","","complex"
"","","","","","animation","10","116633","0.0-10.0","1920x1080","","3423.2000000000116","73","img/314/3.5/1.5/bw/001.png","","","complex"
"","","","","","animation","11","122321","0.0-11.0","1920x1080","","5687.100000000035","50.40","img/238/4/0.66667/bw/001.png","","","complex"
"","","","","","animation","12","125497","0.0-12.0","1920x1080","","3175.2000000000116","9.52","img/314/4.5/1.5/bw/001.png","","","complex"
"","","","","","animation","13","130257","0.0-13.0","1920x1080","","4758.899999999965","62.57","img/117/3.5/1/bw/001.png","","","complex"
"","","","","","animation","14","133745","0.0-14.0","1920x1080","","3487","92.59","img/238/2.5/1/bw/001.png","","","complex"
"","","","","","animation","15","136473","0.0-15.0","1920x1080","","2727.4000000000233","15","img/117/4.5/0.5/bw/001.png","","","complex"
"","","","","","animation","16","139041","0.0-16.0","1920x1080","","2567.4000000000233","1.98","img/314/5.5/1/bw/001.png","","","complex"
"","","","","","animation","17","143377","0.0-17.0","1920x1080","","4335","24.34","img/238/4/1.5/bw/001.png","","","complex"
"","","","","","animation","18","147145","0.0-18.0","1920x1080","","3767.1999999999534","96","img/117/2.5/1/bw/001.png","","","complex"
"","","","","","animation","19","152009","0.0-19.0","1920x1080","","4863.200000000012","15","img/314/5.5/0.66667/bw/001.png","","","complex"
"","","","","","animation","20","154849","0.0-20.0","1920x1080","","2839.2999999999884","32.80","img/117/4/1.5/bw/001.png","","","complex"
"","","","","","animation","21","158177","0.0-21.0","1920x1080","","3327.2999999999884","65.61","img/238/3.5/1/bw/001.png","","","complex"
"","","","","","animation","22","168785","0.0-22.0","1920x1080","","10607.299999999988","80.29","img/117/2.5/0.5/bw/001.png","","","complex"
"","","","","","animation","23","170769","0.0-23.0","1920x1080","","1983","23.28","img/314/4/0.66667/bw/001.png","","","complex"
"","","","","","animation","24","173121","0.0-24.0","1920x1080","","2351.0999999999767","82","img/238/2.5/1.5/bw/001.png","","","complex"
"","","","","","animation","25","175745","0.0-25.0","1920x1080","","2623.1999999999534","6.35","img/238/5.5/1/bw/001.png","","","complex"
"","","","","","animation","26","177946","0.0-26.0","1920x1080","","2319.5999999999767","0.79","img/238/5.5/2/bw/001.png","","","complex"
"","","","","","animation","27","180098","0.0-27.0","1920x1080","","2151.100000000035","5.29","img/117/5.5/1.5/bw/001.png","","","complex"
"","","","","","animation","28","183019","0.0-28.0","1920x1080","","2919.7000000000116","28.97","img/314/3.5/0.66667/bw/001.png","","","complex"
"","","","","","animation","29","186203","0.0-29.0","1920x1080","","3183.3000000000466","54.89","img/117/4/0.66667/bw/001.png","","","complex"
"","","","","","animation","30","188946","0.0-30.0","1920x1080","","2742.2999999999884","73.41","img/238/2.5/2/bw/001.png","","","complex"
"","","","","","animation","31","192058","0.0-31.0","1920x1080","","3111.0999999999767","60.45","img/117/3.5/1.5/bw/001.png","","","complex"
"","","","","","animation","32","195922","0.0-32.0","1920x1080","","3863","35.32","img/117/4/2/bw/001.png","","","complex"
"","","","","","animation","33","198970","0.0-33.0","1920x1080","","3047.0999999999767","36.77","img/314/4/1.5/bw/001.png","","","complex"
"","","","","","animation","34","203098","0.0-34.0","1920x1080","","4127.600000000035","57.14","img/238/3.5/1.5/bw/001.png","","","complex"
"","","","","","animation","35","206962","0.0-35.0","1920x1080","","3863","23.68","img/238/4/2/bw/001.png","","","complex"
"","","","","","animation","36","209074","0.0-36.0","1920x1080","","2110.7000000000116","10.98","img/117/4.5/1.5/bw/001.png","","","complex"
"","","","","","animation","37","213746","0.0-37.0","1920x1080","","4671","25.40","img/238/4.5/0.66667/bw/001.png","","","complex"
"","","","","","animation","38","216226","0.0-38.0","1920x1080","","2479","19.44","img/238/4.5/1/bw/001.png","","","complex"
"","","","","","animation","39","218722","0.0-39.0","1920x1080","","2495.0999999999767","84.79","img/314/2.5/1.5/bw/001.png","","","complex"
"","","","","","animation","40","222090","0.0-40.0","1920x1080","","3367.0999999999767","5","img/238/5.5/1.5/bw/001.png","","","complex"
"","","","","","animation","41","224419","0.0-41.0","1920x1080","","2328.7999999999884","2.91","img/314/5.5/0.5/bw/001.png","","","complex"
"","","","","","animation","42","229194","0.0-42.0","1920x1080","","4774","41","img/117/4.5/0.66667/bw/001.png","","","complex"
"","","","","","animation","43","231706","0.0-43.0","1920x1080","","2510.7999999999884","87.17","img/238/3.5/2/bw/001.png","","","complex"
"","","","","","animation","44","233858","0.0-44.0","1920x1080","","2151.1999999999534","86.77","img/117/2.5/0.66667/bw/001.png","","","complex"
"","","","","","animation","45","236322","0.0-45.0","1920x1080","","2463","26.98","img/117/4/1/bw/001.png","","","complex"
"","","","","","animation","46","239011","0.0-46.0","1920x1080","","2807.7000000000116","81.75","img/117/2.5/1.5/bw/001.png","","","complex"
"","","","","","animation","47","242884","0.0-47.0","1920x1080","","3871.9000000000233","20.24","img/314/4/1/bw/001.png","","","complex"
"","","","","","animation","48","245659","0.0-48.0","1920x1080","","2774.100000000035","4.10","img/117/5.5/0.66667/bw/001.png","","","complex"
"","","","","","animation","49","249418","0.0-49.0","1920x1080","","3758.5999999999767","85.85","img/314/3.5/2/bw/001.png","","","complex"
"","","","","","animation","50","251733","0.0-50.0","1920x1080","","2314.100000000035","4.10","img/238/5.5/0.5/bw/001.png","","","complex"
"","","","","","animation","51","255101","0.0-51.0","1920x1080","","3366.399999999965","21.83","img/314/4.5/2/bw/001.png","","","complex"
"","","","","","animation","52","257134","0.0-52.0","1920x1080","","2032.1999999999534","81.08","img/117/3.5/0.66667/bw/001.png","","","complex"
"","","","","","animation","53","260363","0.0-53.0","1920x1080","","3228.5999999999767","28","img/238/4/1/bw/001.png","","","complex"
"","","","","","animation","54","263917","0.0-54.0","1920x1080","","3553.2000000000116","98","img/238/2.5/0.5/bw/001.png","","","complex"
"","","","","","animation","55","268317","0.0-55.0","1920x1080","","4398.899999999965","69.44","img/314/4/2/bw/001.png","","","complex"
"","","","","","animation","56","272563","0.0-56.0","1920x1080","","4245.299999999988","91.53","img/238/2.5/0.66667/bw/001.png","","","complex"
"","","","","","animation","57","276301","0.0-57.0","1920x1080","","3736.899999999965","27.78","img/238/5.5/0.66667/bw/001.png","","","complex"
"","","","","","animation","58","279795","0.0-58.0","1920x1080","","3493.0999999999767","47.09","img/117/3.5/0.5/bw/001.png","","","complex"
"","","","","","animation","59","282003","0.0-59.0","1920x1080","","2207","73.54","img/314/2.5/1/bw/001.png","","","complex"
"","","","","","animation","60","284523","0.0-60.0","1920x1080","","2519.1999999999534","79","img/314/2.5/0.66667/bw/001.png","","","complex"
"","","","","","animation","61","287411","0.0-61.0","1920x1080","","2887.5","36","img/117/4/0.5/bw/001.png","","","complex"
"","","","","","animation","62","289459","0.0-62.0","1920x1080","","2047.0999999999767","35.32","img/117/4.5/1/bw/001.png","","","complex"
"","","","","","animation","63","292651","0.0-63.0","1920x1080","","3191","34.92","img/314/4.5/0.5/bw/001.png","","","complex"
"","","","","","animation","64","295547","0.0-64.0","1920x1080","","2895.0999999999767","86.51","img/117/2.5/2/bw/001.png","","","complex"
"","","","","","animation","65","298068","0.0-65.0","1920x1080","","2638.5","8.60","img/314/5.5/1.5/bw/001.png","","","complex"
"","","","","","animation","66","300677","0.0-66.0","1920x1080","","2607.5999999999767","19.71","img/314/3.5/1/bw/001.png","","","complex"
"","","","","","animation","67","303029","0.0-67.0","1920x1080","","2351.1999999999534","10.58","img/117/5.5/1/bw/001.png","","","complex"
"","","","","","animation","68","305949","0.0-68.0","1920x1080","","2919.1999999999534","88.89","img/314/2.5/0.5/bw/001.png","","","complex"
"","","","","","animation","69","308631","0.0-69.0","1920x1080","","2681.20000000007","95","img/314/2.5/2/bw/001.png","","","complex"
"","","","","","animation","70","311484","0.0-70.0","1920x1080","","2852.5999999999767","88.49","img/117/3.5/2/bw/001.png","","","complex"
"","","","","","animation","71","314766","0.0-71.0","1920x1080","","3280.1999999999534","22.22","img/117/4.5/2/bw/001.png","","","complex"
"","","","","","animation","72","317116","0.0-72.0","1920x1080","","2349.3000000000466","4.50","img/117/5.5/2/bw/001.png","","","complex"
"","","","","","animation","73","319516","0.0-73.0","1920x1080","","2399.3000000000466","88.10","img/238/4/0.5/bw/001.png","","","complex"
"","","","","","animation","74","322005","0.0-74.0","1920x1080","","2487.5999999999767","83.07","img/314/3.5/0.5/bw/001.png","","","complex"
"","","","","","animation","75","325221","0.0-75.0","1920x1080","","3215.3000000000466","32","img/314/4.5/0.66667/bw/001.png","","","complex"
"","","","","","animation","76","327893","0.0-76.0","1920x1080","","2671.1999999999534","30","img/238/4.5/0.5/bw/001.png","","","complex"
"","","","","","animation","77","331031","0.0-77.0","1920x1080","","3137.8000000000466","8","img/117/5.5/0.5/bw/001.png","","","complex"
"","","","","","animation","78","335869","0.0-78.0","1920x1080","","4836.400000000023","32","img/238/3.5/0.66667/bw/001.png","","","complex"
"","","","","","animation","79","337893","0.0-79.0","1920x1080","","2023.1999999999534","3.17","img/314/5.5/2/bw/001.png","","","complex"
"","","","","","animation","80","340789","0.0-80.0","1920x1080","","2895","12.17","img/238/4.5/2/bw/001.png","","","complex"
"","","","","","animation","81","343399","0.0-81.0","1920x1080","","2609.8000000000466","19.05","img/238/4.5/1.5/bw/001.png","","","complex"
"","","","","","html-button-response","82","362030","0.0-82.0","1920x1080","","18749.20000000007","","<div class=""intro"">You are about to view a new series of animations.<br><br></div><div class=""intro"">You will evaluate them based on a different descriptor.<br><br></div><div class=""intro"">Move the slider to indicate how <strong style=""text-transform:capitalize"">APPEALING</strong> you find each animation.<br><br></div><div class=""intro"">0 = Least Appealing<br></div><div class=""intro"">1 = Most Appealing<br><br></div><div class=""intro"">Remember to use the <strong><em>entire range</em></strong> of the slider to make your ratings.<br></div><div class=""intro"">Please <strong><em>take your time</em></strong> and carefully consider each rating you make.<br><br></div>","0","",""
"","","","","","call-function","83","362031","0.0-83.0","1920x1080","","","","","","",""
"","","","","","animation","84","367925","0.0-84.0","1920x1080","","5893.400000000023","73","img/314/4/1.5/bw/001.png","","","appealing"
"","","","","","animation","85","371180","0.0-85.0","1920x1080","","3254.899999999907","58.73","img/314/4/0.5/bw/001.png","","","appealing"
"","","","","","animation","86","374580","0.0-86.0","1920x1080","","3399.0999999999767","75","img/117/4/2/bw/001.png","","","appealing"
"","","","","","animation","87","377132","0.0-87.0","1920x1080","","2551.1999999999534","70.50","img/238/4.5/1/bw/001.png","","","appealing"
"","","","","","animation","88","379541","0.0-88.0","1920x1080","","2407.3000000000466","87.83","img/314/4/2/bw/001.png","","","appealing"
"","","","","","animation","89","381741","0.0-89.0","1920x1080","","2199.29999999993","3.44","img/117/2.5/0.5/bw/001.png","","","appealing"
"","","","","","animation","90","384757","0.0-90.0","1920x1080","","3014.6999999999534","98","img/117/5.5/1.5/bw/001.png","","","appealing"
"","","","","","animation","91","387469","0.0-91.0","1920x1080","","2711.0999999999767","3","img/117/2.5/2/bw/001.png","","","appealing"
"","","","","","animation","92","389964","0.0-92.0","1920x1080","","2494.6999999999534","1.32","img/314/2.5/0.66667/bw/001.png","","","appealing"
"","","","","","animation","93","391912","0.0-93.0","1920x1080","","1947.1999999999534","5.16","img/238/2.5/1/bw/001.png","","","appealing"
"","","","","","animation","94","395132","0.0-94.0","1920x1080","","3219.0999999999767","99","img/314/5.5/2/bw/001.png","","","appealing"
"","","","","","animation","95","398773","0.0-95.0","1920x1080","","3639.29999999993","52","img/238/4.5/1.5/bw/001.png","","","appealing"
"","","","","","animation","96","400711","0.0-96.0","1920x1080","","1937.9000000000233","21.43","img/238/2.5/2/bw/001.png","","","appealing"
"","","","","","animation","97","402829","0.0-97.0","1920x1080","","2117.0999999999767","3.57","img/314/2.5/0.5/bw/001.png","","","appealing"
"","","","","","animation","98","405373","0.0-98.0","1920x1080","","2542.4000000000233","20.11","img/117/3.5/1/bw/001.png","","","appealing"
"","","","","","animation","99","407501","0.0-99.0","1920x1080","","2127.0999999999767","93.78","img/314/5.5/0.66667/bw/001.png","","","appealing"
"","","","","","animation","100","410284","0.0-100.0","1920x1080","","2783","42.72","img/314/3.5/1.5/bw/001.png","","","appealing"
"","","","","","animation","101","412645","0.0-101.0","1920x1080","","2359.8000000000466","29.10","img/314/3.5/1/bw/001.png","","","appealing"
"","","","","","animation","102","414796","0.0-102.0","1920x1080","","2150.1999999999534","46.69","img/238/4.5/0.66667/bw/001.png","","","appealing"
"","","","","","animation","103","418253","0.0-103.0","1920x1080","","3535.29999999993","5.03","img/314/2.5/1/bw/001.png","","","appealing"
"","","","","","animation","104","420449","0.0-104.0","1920x1080","","2195.0999999999767","35.85","img/314/4.5/1.5/bw/001.png","","","appealing"
"","","","","","animation","105","423590","0.0-105.0","1920x1080","","3139.5","11.51","img/238/4/0.5/bw/001.png","","","appealing"
"","","","","","animation","106","426541","0.0-106.0","1920x1080","","2950.79999999993","82.41","img/238/5.5/1.5/bw/001.png","","","appealing"
"","","","","","animation","107","430352","0.0-107.0","1920x1080","","3809.5","10","img/117/2.5/1.5/bw/001.png","","","appealing"
"","","","","","animation","108","433821","0.0-108.0","1920x1080","","3468.9000000000233","4.76","img/117/2.5/0.66667/bw/001.png","","","appealing"
"","","","","","animation","109","439006","0.0-109.0","1920x1080","","5183.099999999977","56.22","img/314/4.5/0.5/bw/001.png","","","appealing"
"","","","","","animation","110","441600","0.0-110.0","1920x1080","","2593.6999999999534","83.47","img/314/5.5/1.5/bw/001.png","","","appealing"
"","","","","","animation","111","444567","0.0-111.0","1920x1080","","2965.9000000000233","83.07","img/238/5.5/0.5/bw/001.png","","","appealing"
"","","","","","animation","112","447357","0.0-112.0","1920x1080","","2789.5999999999767","12.57","img/238/4/0.66667/bw/001.png","","","appealing"
"","","","","","animation","113","449389","0.0-113.0","1920x1080","","2030.9000000000233","25.00","img/238/3.5/2/bw/001.png","","","appealing"
"","","","","","animation","114","452182","0.0-114.0","1920x1080","","2792.0999999999767","90.87","img/238/5.5/1/bw/001.png","","","appealing"
"","","","","","animation","115","454433","0.0-115.0","1920x1080","","2249.5999999999767","12.43","img/117/4.5/1.5/bw/001.png","","","appealing"
"","","","","","animation","116","456768","0.0-116.0","1920x1080","","2333.899999999907","6.48","img/238/4.5/0.5/bw/001.png","","","appealing"
"","","","","","animation","117","459190","0.0-117.0","1920x1080","","2420.79999999993","5.42","img/314/3.5/2/bw/001.png","","","appealing"
"","","","","","animation","118","462894","0.0-118.0","1920x1080","","3703.1999999999534","39.02","img/314/4.5/0.66667/bw/001.png","","","appealing"
"","","","","","animation","119","465766","0.0-119.0","1920x1080","","2871.4000000000233","6.22","img/314/2.5/2/bw/001.png","","","appealing"
"","","","","","animation","120","468990","0.0-120.0","1920x1080","","3222.79999999993","41.40","img/117/3.5/2/bw/001.png","","","appealing"
"","","","","","animation","121","472310","0.0-121.0","1920x1080","","3319.0999999999767","48.41","img/238/3.5/1.5/bw/001.png","","","appealing"
"","","","","","animation","122","474574","0.0-122.0","1920x1080","","2263.1999999999534","90","img/314/5.5/1/bw/001.png","","","appealing"
"","","","","","animation","123","476461","0.0-123.0","1920x1080","","1887.1999999999534","8.86","img/238/2.5/1.5/bw/001.png","","","appealing"
"","","","","","animation","124","478934","0.0-124.0","1920x1080","","2471.5999999999767","30.56","img/314/4.5/2/bw/001.png","","","appealing"
"","","","","","animation","125","481200","0.0-125.0","1920x1080","","2264.70000000007","11.64","img/117/2.5/1/bw/001.png","","","appealing"
"","","","","","animation","126","483437","0.0-126.0","1920x1080","","2236.9000000000233","39.42","img/238/4.5/2/bw/001.png","","","appealing"
"","","","","","animation","127","485967","0.0-127.0","1920x1080","","2528.6999999999534","41.14","img/238/4/2/bw/001.png","","","appealing"
"","","","","","animation","128","490066","0.0-128.0","1920x1080","","4098.099999999977","20.24","img/314/4/0.66667/bw/001.png","","","appealing"
"","","","","","animation","129","492501","0.0-129.0","1920x1080","","2434.4000000000233","5.69","img/238/3.5/0.66667/bw/001.png","","","appealing"
"","","","","","animation","130","494350","0.0-130.0","1920x1080","","1847.6000000000931","85.58","img/117/5.5/0.66667/bw/001.png","","","appealing"
"","","","","","animation","131","498477","0.0-131.0","1920x1080","","4127","13.89","img/314/3.5/0.5/bw/001.png","","","appealing"
"","","","","","animation","132","500709","0.0-132.0","1920x1080","","2230.70000000007","6.61","img/117/4/1.5/bw/001.png","","","appealing"
"","","","","","animation","133","503217","0.0-133.0","1920x1080","","2506.4000000000233","8.47","img/314/4.5/1/bw/001.png","","","appealing"
"","","","","","animation","134","505600","0.0-134.0","1920x1080","","2382.1999999999534","3.57","img/238/2.5/0.5/bw/001.png","","","appealing"
"","","","","","animation","135","507566","0.0-135.0","1920x1080","","1965.2000000000698","5.16","img/117/3.5/0.66667/bw/001.png","","","appealing"
"","","","","","animation","136","509605","0.0-136.0","1920x1080","","2038.4000000000233","10.05","img/314/3.5/0.66667/bw/001.png","","","appealing"
"","","","","","animation","137","511117","0.0-137.0","1920x1080","","1510.8000000000466","20.37","img/117/4.5/0.5/bw/001.png","","","appealing"
"","","","","","animation","138","513493","0.0-138.0","1920x1080","","2375.399999999907","81.48","img/238/5.5/0.66667/bw/001.png","","","appealing"
"","","","","","animation","139","516266","0.0-139.0","1920x1080","","2772","92.20","img/117/5.5/0.5/bw/001.png","","","appealing"
"","","","","","animation","140","518467","0.0-140.0","1920x1080","","2199.5999999999767","32.54","img/238/4/1.5/bw/001.png","","","appealing"
"","","","","","animation","141","521053","0.0-141.0","1920x1080","","2585.3000000000466","13.36","img/117/3.5/0.5/bw/001.png","","","appealing"
"","","","","","animation","142","524093","0.0-142.0","1920x1080","","3038.7999999999884","39.55","img/117/3.5/1.5/bw/001.png","","","appealing"
"","","","","","animation","143","526317","0.0-143.0","1920x1080","","2221.8000000000466","11","img/117/4/0.5/bw/001.png","","","appealing"
"","","","","","animation","144","528389","0.0-144.0","1920x1080","","2071.2000000001863","3.17","img/238/2.5/0.66667/bw/001.png","","","appealing"
"","","","","","animation","145","531854","0.0-145.0","1920x1080","","3463.5","60.32","img/117/4.5/1/bw/001.png","","","appealing"
"","","","","","animation","146","540109","0.0-146.0","1920x1080","","8255","90.74","img/238/5.5/2/bw/001.png","","","appealing"
"","","","","","animation","147","544533","0.0-147.0","1920x1080","","4422.699999999953","11.51","img/238/3.5/1/bw/001.png","","","appealing"
"","","","","","animation","148","547717","0.0-148.0","1920x1080","","3182.600000000093","29.63","img/117/4.5/2/bw/001.png","","","appealing"
"","","","","","animation","149","551050","0.0-149.0","1920x1080","","3331.899999999907","74.34","img/314/5.5/0.5/bw/001.png","","","appealing"
"","","","","","animation","150","553199","0.0-150.0","1920x1080","","2148.7999999998137","12.96","img/314/2.5/1.5/bw/001.png","","","appealing"
"","","","","","animation","151","555341","0.0-151.0","1920x1080","","2141.0999999998603","7.67","img/117/4/1/bw/001.png","","","appealing"
"","","","","","animation","152","558085","0.0-152.0","1920x1080","","2742.8000000000466","13","img/238/4/1/bw/001.png","","","appealing"
"","","","","","animation","153","561189","0.0-153.0","1920x1080","","3103.5","5.56","img/117/4/0.66667/bw/001.png","","","appealing"
"","","","","","animation","154","564341","0.0-154.0","1920x1080","","3151","83.33","img/117/5.5/2/bw/001.png","","","appealing"
"","","","","","animation","155","566350","0.0-155.0","1920x1080","","2007.6999999999534","22.49","img/238/3.5/0.5/bw/001.png","","","appealing"
"","","","","","animation","156","569067","0.0-156.0","1920x1080","","2715.8000000000466","9","img/314/4/1/bw/001.png","","","appealing"
"","","","","","animation","157","571373","0.0-157.0","1920x1080","","2306","89.55","img/117/5.5/1/bw/001.png","","","appealing"
"","","","","","animation","158","575567","0.0-158.0","1920x1080","","4192.199999999953","14.55","img/117/4.5/0.66667/bw/001.png","","","appealing"
"","","","","","html-button-response","159","594574","0.0-159.0","1920x1080","","19005.699999999953","","<div class=""intro"">You are about to view a new series of animations.<br><br></div><div class=""intro"">You will evaluate them based on a different descriptor.<br><br></div><div class=""intro"">Move the slider to indicate how <strong style=""text-transform:capitalize"">RELAXING</strong> you find each animation.<br><br></div><div class=""intro"">0 = Least Relaxing<br></div><div class=""intro"">1 = Most Relaxing<br><br></div><div class=""intro"">Remember to use the <strong><em>entire range</em></strong> of the slider to make your ratings.<br></div><div class=""intro"">Please <strong><em>take your time</em></strong> and carefully consider each rating you make.<br><br></div>","0","",""
"","","","","","call-function","160","594574","0.0-160.0","1920x1080","","","","","","",""
"","","","","","animation","161","600485","0.0-161.0","1920x1080","","5910.200000000186","28.57","img/314/4.5/0.66667/bw/001.png","","","relaxing"
"","","","","","animation","162","603021","0.0-162.0","1920x1080","","2535","98","img/314/5.5/1.5/bw/001.png","","","relaxing"
"","","","","","animation","163","605433","0.0-163.0","1920x1080","","2410.6999999999534","5.69","img/238/2.5/1.5/bw/001.png","","","relaxing"
"","","","","","animation","164","607605","0.0-164.0","1920x1080","","2171.399999999907","6.88","img/117/2.5/1/bw/001.png","","","relaxing"
"","","","","","animation","165","609989","0.0-165.0","1920x1080","","2383","6.61","img/238/3.5/0.5/bw/001.png","","","relaxing"
"","","","","","animation","166","612485","0.0-166.0","1920x1080","","2494.5","3","img/238/3.5/0.66667/bw/001.png","","","relaxing"
"","","","","","animation","167","614525","0.0-167.0","1920x1080","","2039.5","15","img/117/3.5/1/bw/001.png","","","relaxing"
"","","","","","animation","168","617050","0.0-168.0","1920x1080","","2523.5","23.28","img/314/3.5/1.5/bw/001.png","","","relaxing"
"","","","","","animation","169","619421","0.0-169.0","1920x1080","","2370.399999999907","28.57","img/238/4.5/0.5/bw/001.png","","","relaxing"
"","","","","","animation","170","621800","0.0-170.0","1920x1080","","2377.4000000001397","37.57","img/238/4.5/1/bw/001.png","","","relaxing"
"","","","","","animation","171","624067","0.0-171.0","1920x1080","","2266.5999999998603","4.10","img/314/2.5/1.5/bw/001.png","","","relaxing"
"","","","","","animation","172","626869","0.0-172.0","1920x1080","","2801.0999999998603","30.95","img/238/4/0.66667/bw/001.png","","","relaxing"
"","","","","","animation","173","628951","0.0-173.0","1920x1080","","2080.5","33.20","img/117/4.5/0.5/bw/001.png","","","relaxing"
"","","","","","animation","174","631238","0.0-174.0","1920x1080","","2286.1999999999534","5.16","img/314/2.5/1/bw/001.png","","","relaxing"
"","","","","","animation","175","632741","0.0-175.0","1920x1080","","1503","14","img/238/3.5/1.5/bw/001.png","","","relaxing"
"","","","","","animation","176","635283","0.0-176.0","1920x1080","","2540.8000000000466","4","img/238/2.5/0.5/bw/001.png","","","relaxing"
"","","","","","animation","177","637005","0.0-177.0","1920x1080","","1721","5.03","img/238/2.5/1/bw/001.png","","","relaxing"
"","","","","","animation","178","639567","0.0-178.0","1920x1080","","2560.3000000000466","14.29","img/117/4.5/1/bw/001.png","","","relaxing"
"","","","","","animation","179","644033","0.0-179.0","1920x1080","","4465.899999999907","15","img/117/3.5/0.5/bw/001.png","","","relaxing"
"","","","","","animation","180","648573","0.0-180.0","1920x1080","","4537.799999999814","84.26","img/238/5.5/0.5/bw/001.png","","","relaxing"
"","","","","","animation","181","651000","0.0-181.0","1920x1080","","2425.399999999907","96","img/117/5.5/1/bw/001.png","","","relaxing"
"","","","","","animation","182","653301","0.0-182.0","1920x1080","","2300","74.74","img/314/5.5/0.66667/bw/001.png","","","relaxing"
"","","","","","animation","183","655434","0.0-183.0","1920x1080","","2131.5","26.98","img/314/3.5/0.5/bw/001.png","","","relaxing"
"","","","","","animation","184","657694","0.0-184.0","1920x1080","","2259.1999999999534","13","img/314/4/0.5/bw/001.png","","","relaxing"
"","","","","","animation","185","659901","0.0-185.0","1920x1080","","2206.5","13.89","img/314/3.5/0.66667/bw/001.png","","","relaxing"
"","","","","","animation","186","662250","0.0-186.0","1920x1080","","2347.9000000001397","61.24","img/117/5.5/2/bw/001.png","","","relaxing"
"","","","","","animation","187","664294","0.0-187.0","1920x1080","","2042.5","2","img/314/2.5/0.66667/bw/001.png","","","relaxing"
"","","","","","animation","188","666590","0.0-188.0","1920x1080","","2294.9000000001397","24.60","img/238/4.5/0.66667/bw/001.png","","","relaxing"
"","","","","","animation","189","668751","0.0-189.0","1920x1080","","2160","81.22","img/238/5.5/1/bw/001.png","","","relaxing"
"","","","","","animation","190","672008","0.0-190.0","1920x1080","","3256.2999999998137","99","img/238/5.5/2/bw/001.png","","","relaxing"
"","","","","","animation","191","675166","0.0-191.0","1920x1080","","3156.899999999907","10.32","img/238/3.5/1/bw/001.png","","","relaxing"
"","","","","","animation","192","678067","0.0-192.0","1920x1080","","2899.3000000000466","12","img/117/2.5/2/bw/001.png","","","relaxing"
"","","","","","animation","193","680653","0.0-193.0","1920x1080","","2585.8000000000466","75.26","img/117/5.5/0.5/bw/001.png","","","relaxing"
"","","","","","animation","194","683653","0.0-194.0","1920x1080","","2998.5999999998603","34.39","img/314/4.5/2/bw/001.png","","","relaxing"
"","","","","","animation","195","686416","0.0-195.0","1920x1080","","2762.1999999999534","93.78","img/238/5.5/1.5/bw/001.png","","","relaxing"
"","","","","","animation","196","689285","0.0-196.0","1920x1080","","2867.899999999907","17.86","img/117/4/1/bw/001.png","","","relaxing"
"","","","","","animation","197","691584","0.0-197.0","1920x1080","","2297.8000000000466","2.65","img/117/2.5/0.66667/bw/001.png","","","relaxing"
"","","","","","animation","198","695142","0.0-198.0","1920x1080","","3556.8000000000466","18.52","img/314/4/2/bw/001.png","","","relaxing"
"","","","","","animation","199","697558","0.0-199.0","1920x1080","","2415","5.29","img/117/2.5/0.5/bw/001.png","","","relaxing"
"","","","","","animation","200","699974","0.0-200.0","1920x1080","","2415","37.04","img/314/4.5/1.5/bw/001.png","","","relaxing"
"","","","","","animation","201","703485","0.0-201.0","1920x1080","","3510.5999999998603","42","img/117/3.5/1.5/bw/001.png","","","relaxing"
"","","","","","animation","202","705667","0.0-202.0","1920x1080","","2181.1999999999534","46.43","img/117/4/0.66667/bw/001.png","","","relaxing"
"","","","","","animation","203","708085","0.0-203.0","1920x1080","","2416.8000000000466","87.04","img/314/5.5/2/bw/001.png","","","relaxing"
"","","","","","animation","204","710434","0.0-204.0","1920x1080","","2347.5999999998603","50.93","img/314/4/0.66667/bw/001.png","","","relaxing"
"","","","","","animation","205","713484","0.0-205.0","1920x1080","","3049.4000000001397","72.75","img/117/5.5/0.66667/bw/001.png","","","relaxing"
"","","","","","animation","206","716206","0.0-206.0","1920x1080","","2720.600000000093","25.00","img/314/4/1.5/bw/001.png","","","relaxing"
"","","","","","animation","207","719974","0.0-207.0","1920x1080","","3766.9000000001397","15.61","img/117/3.5/2/bw/001.png","","","relaxing"
"","","","","","animation","208","722967","0.0-208.0","1920x1080","","2992.4000000001397","17.86","img/314/2.5/2/bw/001.png","","","relaxing"
"","","","","","animation","209","726253","0.0-209.0","1920x1080","","3285.0999999998603","79.50","img/238/5.5/0.66667/bw/001.png","","","relaxing"
"","","","","","animation","210","728451","0.0-210.0","1920x1080","","2196.0999999998603","53.70","img/117/4.5/2/bw/001.png","","","relaxing"
"","","","","","animation","211","731151","0.0-211.0","1920x1080","","2699.100000000093","64.42","img/314/5.5/0.5/bw/001.png","","","relaxing"
"","","","","","animation","212","733918","0.0-212.0","1920x1080","","2765.8000000000466","13.10","img/117/4/0.5/bw/001.png","","","relaxing"
"","","","","","animation","213","736534","0.0-213.0","1920x1080","","2615.600000000093","15.34","img/314/4.5/1/bw/001.png","","","relaxing"
"","","","","","animation","214","739967","0.0-214.0","1920x1080","","3431.899999999907","18.39","img/314/4/1/bw/001.png","","","relaxing"
"","","","","","animation","215","742101","0.0-215.0","1920x1080","","2132","18.52","img/117/4.5/0.66667/bw/001.png","","","relaxing"
"","","","","","animation","216","744368","0.0-216.0","1920x1080","","2266.2000000001863","17.72","img/117/4/1.5/bw/001.png","","","relaxing"
"","","","","","animation","217","749070","0.0-217.0","1920x1080","","4700.699999999953","22.09","img/314/4.5/0.5/bw/001.png","","","relaxing"
"","","","","","animation","218","751406","0.0-218.0","1920x1080","","2334.399999999907","10.45","img/238/4/2/bw/001.png","","","relaxing"
"","","","","","animation","219","753358","0.0-219.0","1920x1080","","1950.8000000000466","9.13","img/238/2.5/0.66667/bw/001.png","","","relaxing"
"","","","","","animation","220","755401","0.0-220.0","1920x1080","","2042.1999999999534","18.12","img/117/4.5/1.5/bw/001.png","","","relaxing"
"","","","","","animation","221","759206","0.0-221.0","1920x1080","","3803.5999999998603","16.40","img/238/4/1/bw/001.png","","","relaxing"
"","","","","","animation","222","764374","0.0-222.0","1920x1080","","5166.5","23.54","img/314/3.5/2/bw/001.png","","","relaxing"
"","","","","","animation","223","766710","0.0-223.0","1920x1080","","2334.899999999907","16.01","img/238/4/1.5/bw/001.png","","","relaxing"
"","","","","","animation","224","769038","0.0-224.0","1920x1080","","2326.399999999907","7.41","img/117/2.5/1.5/bw/001.png","","","relaxing"
"","","","","","animation","225","772254","0.0-225.0","1920x1080","","3215","12.04","img/238/3.5/2/bw/001.png","","","relaxing"
"","","","","","animation","226","774901","0.0-226.0","1920x1080","","2646.399999999907","3.57","img/314/2.5/0.5/bw/001.png","","","relaxing"
"","","","","","animation","227","776974","0.0-227.0","1920x1080","","2071.8000000000466","85.98","img/314/5.5/1/bw/001.png","","","relaxing"
"","","","","","animation","228","779022","0.0-228.0","1920x1080","","2046.7000000001863","10.98","img/238/4/0.5/bw/001.png","","","relaxing"
"","","","","","animation","229","783037","0.0-229.0","1920x1080","","4014.5999999998603","87.30","img/117/5.5/1.5/bw/001.png","","","relaxing"
"","","","","","animation","230","785709","0.0-230.0","1920x1080","","2670.9000000001397","4.89","img/238/2.5/2/bw/001.png","","","relaxing"
"","","","","","animation","231","787801","0.0-231.0","1920x1080","","2090.2000000001863","8.60","img/117/4/2/bw/001.png","","","relaxing"
"","","","","","animation","232","790301","0.0-232.0","1920x1080","","2499","5.95","img/117/3.5/0.66667/bw/001.png","","","relaxing"
"","","","","","animation","233","793901","0.0-233.0","1920x1080","","3599","54","img/238/4.5/1.5/bw/001.png","","","relaxing"
"","","","","","animation","234","797390","0.0-234.0","1920x1080","","3487.5","62.70","img/238/4.5/2/bw/001.png","","","relaxing"
"","","","","","animation","235","799469","0.0-235.0","1920x1080","","2077.8000000000466","4.23","img/314/3.5/1/bw/001.png","","","relaxing"
"","","","","","html-button-response","236","836601","0.0-236.0","1920x1080","","37130.39999999991","","<div class=""intro"">You are about to view a new series of animations.<br><br></div><div class=""intro"">You will evaluate them based on a different descriptor.<br><br></div><div class=""intro"">Move the slider to indicate how <strong style=""text-transform:capitalize"">INTERESTING</strong> you find each animation.<br><br></div><div class=""intro"">0 = Least Interesting<br></div><div class=""intro"">1 = Most Interesting<br><br></div><div class=""intro"">Remember to use the <strong><em>entire range</em></strong> of the slider to make your ratings.<br></div><div class=""intro"">Please <strong><em>take your time</em></strong> and carefully consider each rating you make.<br><br></div>","0","",""
"","","","","","call-function","237","836605","0.0-237.0","1920x1080","","","","","","",""
"","","","","","animation","238","841485","0.0-238.0","1920x1080","","4879.5","50.53","img/117/3.5/0.66667/bw/001.png","","","interesting"
"","","","","","animation","239","845517","0.0-239.0","1920x1080","","4030.600000000093","69.31","img/238/4/1.5/bw/001.png","","","interesting"
"","","","","","animation","240","848572","0.0-240.0","1920x1080","","3054.1999999999534","65.34","img/117/4/0.66667/bw/001.png","","","interesting"
"","","","","","animation","241","854437","0.0-241.0","1920x1080","","5863.300000000047","14","img/238/5.5/1/bw/001.png","","","interesting"
"","","","","","animation","242","857134","0.0-242.0","1920x1080","","2694.0999999998603","65.48","img/238/4.5/2/bw/001.png","","","interesting"
"","","","","","animation","243","860285","0.0-243.0","1920x1080","","3150.9000000001397","74.07","img/238/4.5/0.66667/bw/001.png","","","interesting"
"","","","","","animation","244","862501","0.0-244.0","1920x1080","","2212.8000000000466","54.76","img/117/5.5/0.5/bw/001.png","","","interesting"
"","","","","","animation","245","865600","0.0-245.0","1920x1080","","3098.8000000000466","72.88","img/314/3.5/1.5/bw/001.png","","","interesting"
"","","","","","animation","246","868600","0.0-246.0","1920x1080","","2998.9000000001397","58.99","img/238/3.5/1/bw/001.png","","","interesting"
"","","","","","animation","247","872051","0.0-247.0","1920x1080","","3449.1999999999534","41.67","img/117/5.5/1/bw/001.png","","","interesting"
"","","","","","animation","248","875069","0.0-248.0","1920x1080","","3017.100000000093","10.58","img/238/2.5/2/bw/001.png","","","interesting"
"","","","","","animation","249","877325","0.0-249.0","1920x1080","","2254.600000000093","55.95","img/117/4.5/2/bw/001.png","","","interesting"
"","","","","","animation","250","880051","0.0-250.0","1920x1080","","2724.1999999999534","67.86","img/117/4.5/1.5/bw/001.png","","","interesting"
"","","","","","animation","251","883217","0.0-251.0","1920x1080","","3165","10.32","img/117/2.5/0.5/bw/001.png","","","interesting"
"","","","","","animation","252","886401","0.0-252.0","1920x1080","","3182.100000000093","16.14","img/314/2.5/1.5/bw/001.png","","","interesting"
"","","","","","animation","253","889451","0.0-253.0","1920x1080","","3048.8000000000466","81.75","img/314/4.5/1.5/bw/001.png","","","interesting"
"","","","","","animation","254","892401","0.0-254.0","1920x1080","","2948.4000000001397","26.72","img/238/5.5/1.5/bw/001.png","","","interesting"
"","","","","","animation","255","894734","0.0-255.0","1920x1080","","2331.7000000001863","26.06","img/117/5.5/0.66667/bw/001.png","","","interesting"
"","","","","","animation","256","896937","0.0-256.0","1920x1080","","2206.100000000093","74.74","img/314/4/1.5/bw/001.png","","","interesting"
"","","","","","animation","257","899930","0.0-257.0","1920x1080","","2991.100000000093","9.52","img/314/2.5/1/bw/001.png","","","interesting"
"","","","","","animation","258","902338","0.0-258.0","1920x1080","","2406.5","17.06","img/117/2.5/1.5/bw/001.png","","","interesting"
"","","","","","animation","259","906530","0.0-259.0","1920x1080","","4191.199999999953","37","img/117/3.5/2/bw/001.png","","","interesting"
"","","","","","animation","260","908697","0.0-260.0","1920x1080","","2165.8000000000466","47.88","img/238/3.5/2/bw/001.png","","","interesting"
"","","","","","animation","261","911164","0.0-261.0","1920x1080","","2465.5999999998603","55.03","img/314/4/0.5/bw/001.png","","","interesting"
"","","","","","animation","262","913363","0.0-262.0","1920x1080","","2197.3000000000466","62.30","img/117/4.5/0.66667/bw/001.png","","","interesting"
"","","","","","animation","263","915880","0.0-263.0","1920x1080","","2516","65.08","img/117/4.5/1/bw/001.png","","","interesting"
"","","","","","animation","264","917731","0.0-264.0","1920x1080","","1849.0999999998603","50.66","img/238/4/0.66667/bw/001.png","","","interesting"
"","","","","","animation","265","920881","0.0-265.0","1920x1080","","3148.6999999999534","21.83","img/314/2.5/0.66667/bw/001.png","","","interesting"
"","","","","","animation","266","922914","0.0-266.0","1920x1080","","2031.1999999999534","38.76","img/238/3.5/0.5/bw/001.png","","","interesting"
"","","","","","animation","267","925797","0.0-267.0","1920x1080","","2881.6999999999534","67.99","img/238/4.5/1.5/bw/001.png","","","interesting"
"","","","","","animation","268","928081","0.0-268.0","1920x1080","","2281.899999999907","25.66","img/238/5.5/2/bw/001.png","","","interesting"
"","","","","","animation","269","931233","0.0-269.0","1920x1080","","3151.399999999907","57.01","img/117/3.5/1/bw/001.png","","","interesting"
"","","","","","animation","270","935364","0.0-270.0","1920x1080","","4129.399999999907","15","img/238/5.5/0.66667/bw/001.png","","","interesting"
"","","","","","animation","271","937481","0.0-271.0","1920x1080","","2116.3000000000466","24.07","img/314/5.5/1.5/bw/001.png","","","interesting"
"","","","","","animation","272","940153","0.0-272.0","1920x1080","","2671.100000000093","66","img/117/3.5/0.5/bw/001.png","","","interesting"
"","","","","","animation","273","943297","0.0-273.0","1920x1080","","3141.3000000000466","14.55","img/238/2.5/1.5/bw/001.png","","","interesting"
"","","","","","animation","274","945697","0.0-274.0","1920x1080","","2398.6999999999534","16.93","img/314/2.5/2/bw/001.png","","","interesting"
"","","","","","animation","275","948114","0.0-275.0","1920x1080","","2415.2999999998137","55","img/238/3.5/0.66667/bw/001.png","","","interesting"
"","","","","","animation","276","950531","0.0-276.0","1920x1080","","2415.899999999907","34.92","img/238/4/0.5/bw/001.png","","","interesting"
"","","","","","animation","277","953497","0.0-277.0","1920x1080","","2964.6999999999534","40.48","img/314/3.5/0.66667/bw/001.png","","","interesting"
"","","","","","animation","278","956277","0.0-278.0","1920x1080","","2782.7000000001863","59.13","img/314/3.5/1/bw/001.png","","","interesting"
"","","","","","animation","279","959501","0.0-279.0","1920x1080","","3223","62.17","img/238/4/2/bw/001.png","","","interesting"
"","","","","","animation","280","962213","0.0-280.0","1920x1080","","2710.8000000000466","21","img/117/2.5/0.66667/bw/001.png","","","interesting"
"","","","","","animation","281","965777","0.0-281.0","1920x1080","","3561.5","54.10","img/314/4.5/1/bw/001.png","","","interesting"
"","","","","","animation","282","968510","0.0-282.0","1920x1080","","2732.3000000000466","12.17","img/314/2.5/0.5/bw/001.png","","","interesting"
"","","","","","animation","283","971376","0.0-283.0","1920x1080","","2865.1999999999534","12.17","img/238/2.5/0.66667/bw/001.png","","","interesting"
"","","","","","animation","284","978402","0.0-284.0","1920x1080","","7024.300000000047","57.14","img/314/5.5/0.66667/bw/001.png","","","interesting"
"","","","","","animation","285","998966","0.0-285.0","1920x1080","","20561.40000000014","40.74","img/117/5.5/2/bw/001.png","","","interesting"
"","","","","","animation","286","1002982","0.0-286.0","1920x1080","","4015","40","img/238/4.5/1/bw/001.png","","","interesting"
"","","","","","animation","287","1010381","0.0-287.0","1920x1080","","7395.899999999907","42.33","img/314/5.5/1/bw/001.png","","","interesting"
"","","","","","animation","288","1017589","0.0-288.0","1920x1080","","7209.699999999953","30.16","img/117/5.5/1.5/bw/001.png","","","interesting"
"","","","","","animation","289","1019806","0.0-289.0","1920x1080","","2215.5999999998603","47.35","img/314/4.5/0.5/bw/001.png","","","interesting"
"","","","","","animation","290","1022658","0.0-290.0","1920x1080","","2850.399999999907","36.38","img/117/4/2/bw/001.png","","","interesting"
"","","","","","animation","291","1026778","0.0-291.0","1920x1080","","4119.09999999986","77.91","img/238/5.5/0.5/bw/001.png","","","interesting"
"","","","","","animation","292","1029042","0.0-292.0","1920x1080","","2262.399999999907","34.39","img/314/4/0.66667/bw/001.png","","","interesting"
"","","","","","animation","293","1031806","0.0-293.0","1920x1080","","2763.3000000000466","13.10","img/117/3.5/1.5/bw/001.png","","","interesting"
"","","","","","animation","294","1033969","0.0-294.0","1920x1080","","2161.3000000000466","14.68","img/117/2.5/2/bw/001.png","","","interesting"
"","","","","","animation","295","1036539","0.0-295.0","1920x1080","","2568.8000000000466","75.93","img/314/4.5/0.66667/bw/001.png","","","interesting"
"","","","","","animation","296","1038905","0.0-296.0","1920x1080","","2365","13.10","img/238/2.5/1/bw/001.png","","","interesting"
"","","","","","animation","297","1040869","0.0-297.0","1920x1080","","1962.1000000000931","78.97","img/314/5.5/2/bw/001.png","","","interesting"
"","","","","","animation","298","1043610","0.0-298.0","1920x1080","","2740.1999999999534","15.87","img/314/4/1/bw/001.png","","","interesting"
"","","","","","animation","299","1046130","0.0-299.0","1920x1080","","2518.600000000093","21.30","img/238/2.5/0.5/bw/001.png","","","interesting"
"","","","","","animation","300","1048090","0.0-300.0","1920x1080","","1958.6999999999534","56","img/117/4/0.5/bw/001.png","","","interesting"
"","","","","","animation","301","1050223","0.0-301.0","1920x1080","","2132.5","24.34","img/117/2.5/1/bw/001.png","","","interesting"
"","","","","","animation","302","1052640","0.0-302.0","1920x1080","","2415.5","21.30","img/314/3.5/0.5/bw/001.png","","","interesting"
"","","","","","animation","303","1059122","0.0-303.0","1920x1080","","6481.100000000093","72","img/238/4/1/bw/001.png","","","interesting"
"","","","","","animation","304","1061404","0.0-304.0","1920x1080","","2280.399999999907","21.56","img/314/3.5/2/bw/001.png","","","interesting"
"","","","","","animation","305","1063324","0.0-305.0","1920x1080","","1918.2000000001863","13.10","img/238/3.5/1.5/bw/001.png","","","interesting"
"","","","","","animation","306","1066962","0.0-306.0","1920x1080","","3637.399999999907","79.89","img/238/4.5/0.5/bw/001.png","","","interesting"
"","","","","","animation","307","1069340","0.0-307.0","1920x1080","","2376.100000000093","67.86","img/314/4.5/2/bw/001.png","","","interesting"
"","","","","","animation","308","1072330","0.0-308.0","1920x1080","","2989.600000000093","46.69","img/314/5.5/0.5/bw/001.png","","","interesting"
"","","","","","animation","309","1077087","0.0-309.0","1920x1080","","4757","69.71","img/117/4/1/bw/001.png","","","interesting"
"","","","","","animation","310","1085887","0.0-310.0","1920x1080","","8798.09999999986","36.51","img/314/4/2/bw/001.png","","","interesting"
"","","","","","animation","311","1088239","0.0-311.0","1920x1080","","2350.600000000093","52.38","img/117/4.5/0.5/bw/001.png","","","interesting"
"","","","","","animation","312","1091104","0.0-312.0","1920x1080","","2863.4000000001397","55.69","img/117/4/1.5/bw/001.png","","","interesting"
"","","","","","html-button-response","313","1110272","0.0-313.0","1920x1080","","19165.899999999907","","<div class=""intro"">You are about to view a new series of animations.<br><br></div><div class=""intro"">You will evaluate them based on a different descriptor.<br><br></div><div class=""intro"">Move the slider to indicate how <strong style=""text-transform:capitalize"">NATURAL</strong> you find each animation.<br><br></div><div class=""intro"">0 = Least Natural<br></div><div class=""intro"">1 = Most Natural<br><br></div><div class=""intro"">Remember to use the <strong><em>entire range</em></strong> of the slider to make your ratings.<br></div><div class=""intro"">Please <strong><em>take your time</em></strong> and carefully consider each rating you make.<br><br></div>","0","",""
"","","","","","call-function","314","1110273","0.0-314.0","1920x1080","","","","","","",""
"","","","","","animation","315","1113871","0.0-315.0","1920x1080","","3597.5","10.58","img/117/2.5/2/bw/001.png","","","natural"
"","","","","","animation","316","1116186","0.0-316.0","1920x1080","","2313.899999999907","39.42","img/238/4.5/2/bw/001.png","","","natural"
"","","","","","animation","317","1118410","0.0-317.0","1920x1080","","2222.3000000000466","89.02","img/117/5.5/2/bw/001.png","","","natural"
"","","","","","animation","318","1120271","0.0-318.0","1920x1080","","1859.6999999999534","25.13","img/238/2.5/1.5/bw/001.png","","","natural"
"","","","","","animation","319","1122670","0.0-319.0","1920x1080","","2397.8000000000466","60.98","img/238/4/0.5/bw/001.png","","","natural"
"","","","","","animation","320","1124623","0.0-320.0","1920x1080","","1952","47.62","img/238/3.5/1/bw/001.png","","","natural"
"","","","","","animation","321","1126504","0.0-321.0","1920x1080","","1879.5","81.61","img/238/5.5/1/bw/001.png","","","natural"
"","","","","","animation","322","1129121","0.0-322.0","1920x1080","","2615.1999999999534","82.14","img/117/5.5/1/bw/001.png","","","natural"
"","","","","","animation","323","1130904","0.0-323.0","1920x1080","","1782","38.36","img/117/3.5/0.5/bw/001.png","","","natural"
"","","","","","animation","324","1133171","0.0-324.0","1920x1080","","2265.8000000000466","48.81","img/238/3.5/2/bw/001.png","","","natural"
"","","","","","animation","325","1134838","0.0-325.0","1920x1080","","1665.5","38.10","img/117/3.5/1/bw/001.png","","","natural"
"","","","","","animation","326","1136893","0.0-326.0","1920x1080","","2057.100000000093","64.15","img/314/4.5/1.5/bw/001.png","","","natural"
"","","","","","animation","327","1138951","0.0-327.0","1920x1080","","2056.8000000000466","64.95","img/314/4.5/1/bw/001.png","","","natural"
"","","","","","animation","328","1142302","0.0-328.0","1920x1080","","3349.3000000000466","73.81","img/238/4.5/1.5/bw/001.png","","","natural"
"","","","","","animation","329","1144735","0.0-329.0","1920x1080","","2432","56.08","img/314/4.5/0.5/bw/001.png","","","natural"
"","","","","","animation","330","1146869","0.0-330.0","1920x1080","","2132.600000000093","22","img/117/2.5/0.66667/bw/001.png","","","natural"
"","","","","","animation","331","1149918","0.0-331.0","1920x1080","","3048.399999999907","60.85","img/238/4.5/1/bw/001.png","","","natural"
"","","","","","animation","332","1152152","0.0-332.0","1920x1080","","2231.7999999998137","22.88","img/314/2.5/2/bw/001.png","","","natural"
"","","","","","animation","333","1154910","0.0-333.0","1920x1080","","2756.6999999999534","68.39","img/117/4.5/0.5/bw/001.png","","","natural"
"","","","","","animation","334","1157576","0.0-334.0","1920x1080","","2664.600000000093","77","img/117/5.5/0.66667/bw/001.png","","","natural"
"","","","","","animation","335","1162437","0.0-335.0","1920x1080","","4859.300000000047","83.99","img/117/4.5/2/bw/001.png","","","natural"
"","","","","","animation","336","1181135","0.0-336.0","1920x1080","","18697","82.41","img/314/5.5/1/bw/001.png","","","natural"
"","","","","","animation","337","1210693","0.0-337.0","1920x1080","","29557.300000000047","61.64","img/238/4/0.66667/bw/001.png","","","natural"
"","","","","","animation","338","1213493","0.0-338.0","1920x1080","","2798.5","29.50","img/314/3.5/1.5/bw/001.png","","","natural"
"","","","","","animation","339","1216101","0.0-339.0","1920x1080","","2606.0999999998603","45.37","img/117/4/0.66667/bw/001.png","","","natural"
"","","","","","animation","340","1218784","0.0-340.0","1920x1080","","2681.6999999999534","88.89","img/117/5.5/0.5/bw/001.png","","","natural"
"","","","","","animation","341","1221068","0.0-341.0","1920x1080","","2283.0999999998603","19.18","img/238/3.5/0.5/bw/001.png","","","natural"
"","","","","","animation","342","1223027","0.0-342.0","1920x1080","","1957.6999999999534","25.00","img/117/4/1/bw/001.png","","","natural"
"","","","","","animation","343","1225350","0.0-343.0","1920x1080","","2304.1999999999534","11.38","img/238/2.5/2/bw/001.png","","","natural"
"","","","","","animation","344","1227384","0.0-344.0","1920x1080","","2032.4000000001397","45.50","img/117/4.5/1/bw/001.png","","","natural"
"","","","","","animation","345","1229921","0.0-345.0","1920x1080","","2536","78.97","img/314/5.5/2/bw/001.png","","","natural"
"","","","","","animation","346","1232957","0.0-346.0","1920x1080","","3034.399999999907","48.28","img/238/4.5/0.5/bw/001.png","","","natural"
"","","","","","animation","347","1235388","0.0-347.0","1920x1080","","2430.399999999907","33.73","img/238/4/2/bw/001.png","","","natural"
"","","","","","animation","348","1237310","0.0-348.0","1920x1080","","1919.5999999998603","68.78","img/117/5.5/1.5/bw/001.png","","","natural"
"","","","","","animation","349","1240068","0.0-349.0","1920x1080","","2756.4000000001397","23.54","img/238/4.5/0.66667/bw/001.png","","","natural"
"","","","","","animation","350","1242074","0.0-350.0","1920x1080","","2004.8999999999069","81.61","img/314/5.5/0.5/bw/001.png","","","natural"
"","","","","","animation","351","1244452","0.0-351.0","1920x1080","","2377","27.78","img/314/3.5/0.66667/bw/001.png","","","natural"
"","","","","","animation","352","1246978","0.0-352.0","1920x1080","","2524.3000000000466","6.08","img/314/2.5/1/bw/001.png","","","natural"
"","","","","","animation","353","1249319","0.0-353.0","1920x1080","","2339.5","8.33","img/314/2.5/0.66667/bw/001.png","","","natural"
"","","","","","animation","354","1252604","0.0-354.0","1920x1080","","3281.5","33.73","img/314/4/0.5/bw/001.png","","","natural"
"","","","","","animation","355","1255118","0.0-355.0","1920x1080","","2511.7000000001863","63.89","img/314/4/2/bw/001.png","","","natural"
"","","","","","animation","356","1257317","0.0-356.0","1920x1080","","2198.600000000093","8.73","img/238/2.5/1/bw/001.png","","","natural"
"","","","","","animation","357","1261461","0.0-357.0","1920x1080","","4141.899999999907","78.17","img/238/5.5/0.5/bw/001.png","","","natural"
"","","","","","animation","358","1263818","0.0-358.0","1920x1080","","2355.1999999999534","6.08","img/117/2.5/0.5/bw/001.png","","","natural"
"","","","","","animation","359","1266202","0.0-359.0","1920x1080","","2382.6999999999534","24.47","img/314/3.5/1/bw/001.png","","","natural"
"","","","","","animation","360","1268542","0.0-360.0","1920x1080","","2337.6999999999534","7.41","img/117/2.5/1.5/bw/001.png","","","natural"
"","","","","","animation","361","1271693","0.0-361.0","1920x1080","","3149.8000000000466","13.62","img/238/3.5/0.66667/bw/001.png","","","natural"
"","","","","","animation","362","1273668","0.0-362.0","1920x1080","","1973.3000000000466","18.12","img/238/4/1.5/bw/001.png","","","natural"
"","","","","","animation","363","1277064","0.0-363.0","1920x1080","","3394.0999999998603","12","img/314/3.5/0.5/bw/001.png","","","natural"
"","","","","","animation","364","1280983","0.0-364.0","1920x1080","","3917.399999999907","68","img/117/4/1.5/bw/001.png","","","natural"
"","","","","","animation","365","1283293","0.0-365.0","1920x1080","","2308","30.82","img/117/4/0.5/bw/001.png","","","natural"
"","","","","","animation","366","1285588","0.0-366.0","1920x1080","","2294.399999999907","89.81","img/314/5.5/0.66667/bw/001.png","","","natural"
"","","","","","animation","367","1287734","0.0-367.0","1920x1080","","2143.8000000000466","80.95","img/238/5.5/0.66667/bw/001.png","","","natural"
"","","","","","animation","368","1290468","0.0-368.0","1920x1080","","2733.1999999999534","81.61","img/238/5.5/2/bw/001.png","","","natural"
"","","","","","animation","369","1293636","0.0-369.0","1920x1080","","3166.600000000093","71.96","img/314/4.5/2/bw/001.png","","","natural"
"","","","","","animation","370","1295901","0.0-370.0","1920x1080","","2263.1999999999534","46.56","img/314/4/1/bw/001.png","","","natural"
"","","","","","animation","371","1298004","0.0-371.0","1920x1080","","2101.5","74.47","img/117/4.5/1.5/bw/001.png","","","natural"
"","","","","","animation","372","1300302","0.0-372.0","1920x1080","","2296.600000000093","31.22","img/117/3.5/1.5/bw/001.png","","","natural"
"","","","","","animation","373","1302668","0.0-373.0","1920x1080","","2361.600000000093","15.74","img/314/2.5/1.5/bw/001.png","","","natural"
"","","","","","animation","374","1304785","0.0-374.0","1920x1080","","2115.5","72.49","img/117/4/2/bw/001.png","","","natural"
"","","","","","animation","375","1307234","0.0-375.0","1920x1080","","2447.600000000093","54.23","img/314/3.5/2/bw/001.png","","","natural"
"","","","","","animation","376","1310436","0.0-376.0","1920x1080","","3200.899999999907","24.87","img/238/2.5/0.5/bw/001.png","","","natural"
"","","","","","animation","377","1313201","0.0-377.0","1920x1080","","2763.5999999998603","69.58","img/314/4.5/0.66667/bw/001.png","","","natural"
"","","","","","animation","378","1315436","0.0-378.0","1920x1080","","2233.600000000093","12.96","img/314/2.5/0.5/bw/001.png","","","natural"
"","","","","","animation","379","1317469","0.0-379.0","1920x1080","","2030.3999999999069","85.98","img/238/5.5/1.5/bw/001.png","","","natural"
"","","","","","animation","380","1322252","0.0-380.0","1920x1080","","4781.600000000093","45.90","img/314/4/1.5/bw/001.png","","","natural"
"","","","","","animation","381","1328544","0.0-381.0","1920x1080","","6291.300000000047","22.09","img/238/3.5/1.5/bw/001.png","","","natural"
"","","","","","animation","382","1330735","0.0-382.0","1920x1080","","2188.1999999999534","11.24","img/238/2.5/0.66667/bw/001.png","","","natural"
"","","","","","animation","383","1333835","0.0-383.0","1920x1080","","3098.5","11.64","img/117/2.5/1/bw/001.png","","","natural"
"","","","","","animation","384","1336784","0.0-384.0","1920x1080","","2947.3000000000466","72.35","img/117/4.5/0.66667/bw/001.png","","","natural"
"","","","","","animation","385","1339585","0.0-385.0","1920x1080","","2799.3000000000466","52.38","img/117/3.5/2/bw/001.png","","","natural"
"","","","","","animation","386","1342522","0.0-386.0","1920x1080","","2936.1999999999534","55.69","img/238/4/1/bw/001.png","","","natural"
"","","","","","animation","387","1344752","0.0-387.0","1920x1080","","2228","82.94","img/314/5.5/1.5/bw/001.png","","","natural"
"","","","","","animation","388","1347405","0.0-388.0","1920x1080","","2651.6999999999534","29.10","img/314/4/0.66667/bw/001.png","","","natural"
"","","","","","animation","389","1350351","0.0-389.0","1920x1080","","2945.0999999998603","18.12","img/117/3.5/0.66667/bw/001.png","","","natural"
"","","","","","html-button-response","390","1403939","0.0-390.0","1920x1080","","53586.30000000005","","<strong>Study Debriefing</strong><br><p class=""debrief""><strong>Background:</strong> The patterns you rated are called <em>fractals</em>. The term fractal describes a class of irregular curves or shapes for which any suitably chosen part is similar in shape to a given larger or smaller part when magnified or reduced to the same size. Fractal properties are found throughout the natural and manmade world. The series of animations you saw today displayed animated fractal patterns of a varying complexity.</p><p class=""debrief""><strong>Purpose of this study:</strong> We hope to better understand how the perception of static fractals differs from the perception of animated fractals, and how the speed of the animated patterns influences people&apos;s perception of them. Fractals allow us to study the perception of aesthetic properties (e.g. the perceived level of beauty in an image) without using recognizable content, which makes them an excellent tool for studying abstract aesthetic judgement.</p><p class=""debrief""><strong>Your part:</strong> Your participation has helped us to further understand how humans perceive these patterns across different levels of speed and complexity. This research with allow us to better understand how the visual system and brain process our ever-changing visual environments.<p class=""debrief""><strong>Feedback and Further information:</strong> If you have additional questions about this study, please feel free to ask the researcher, Nathan Gonzales-Hess at nhess @ uoregon.edu. If you have any questions concerning your rights as a research participant, please contact Research Compliance Services, 5237 University of Oregon, Eugene, OR 97403, 541-346-2510, or email researchCompliance @ uoregon.edu. You can also email the Human Subjects Coordinator for psychology and linguistics research at hscoord @ uoregon.edu. ","0","",""
"","","","","","html-button-response","391","1998585","0.0-391.0","1920x1080","","594637","","Thank you for participating in this study. <br>Please click below to finish the experiment and submit your responses.<br><br>","0","",""
"true","","","","","fullscreen","392","1999593","0.0-392.0","1920x1080","13:33 20/5/2022","","","","","",""
