"success","timeout","failed_images","failed_audio","failed_video","trial_type","trial_index","time_elapsed","internal_node_id","resolution","timeStamp","rt","response","stimulus","button_pressed","value","descriptor"
"true","false","[]","[]","[]","preload","0","6008","0.0-0.0","1920x1080","","","","","","",""
"true","false","[]","[]","[]","preload","1","12202","0.0-1.0","1920x1080","","","","","","",""
"true","false","[]","[]","[]","preload","2","18293","0.0-2.0","1920x1080","","","","","","",""
"true","","","","","fullscreen","3","353222","0.0-3.0","1920x1080","11:47 28/10/2022","","","","","",""
"","","","","","survey-html-form","4","366804","0.0-4.0","1920x1080","","13579","{""age"":""20"",""gender"":""Female""}","","","",""
"","","","","","html-button-response","5","430100","0.0-5.0","1920x1080","","63294.800000000745","","<div class=""complex"">You are going to see a series of animations.<br><br></div><div class=""complex"">Move the slider to indicate how <strong style=""text-transform:capitalize"">COMPLEX</strong> you find each animation.<br><br></div><div class=""complex"">0 = Least Complex<br></div><div class=""complex"">1 = Most Complex<br><br></div><div class=""complex"">Remember to use the <strong><em>entire range</em></strong> of the slider to make your ratings.<br></div><div class=""complex"">Please <strong><em>take your time</em></strong> and carefully consider each rating you make.<br><br></div><div class=""complex"">The study has five sections and will take about 45 minutes to complete.<br><br></div>","0","",""
"","","","","","call-function","6","430101","0.0-6.0","1920x1080","","","","","","",""
"","","","","","animation","7","441164","0.0-7.0","1920x1080","","11061.799999999814","8.20","img/314/5.5/0.5/bw/001.png","","","complex"
"","","","","","animation","8","452084","0.0-8.0","1920x1080","","10918.700000000186","0.53","img/314/5.5/2/bw/001.png","","","complex"
"","","","","","animation","9","457908","0.0-9.0","1920x1080","","5823.799999999814","55.69","img/117/4/1.5/bw/001.png","","","complex"
"","","","","","animation","10","461700","0.0-10.0","1920x1080","","3790.7999999998137","91.14","img/314/3.5/0.5/bw/001.png","","","complex"
"","","","","","animation","11","468596","0.0-11.0","1920x1080","","6895","55.16","img/117/4.5/0.5/bw/001.png","","","complex"
"","","","","","animation","12","471877","0.0-12.0","1920x1080","","3280.4000000003725","100","img/238/2.5/0.66667/bw/001.png","","","complex"
"","","","","","animation","13","476300","0.0-13.0","1920x1080","","4422.4000000003725","5.69","img/117/4/2/bw/001.png","","","complex"
"","","","","","animation","14","479204","0.0-14.0","1920x1080","","2902.899999999441","73.15","img/117/3.5/0.5/bw/001.png","","","complex"
"","","","","","animation","15","485261","0.0-15.0","1920x1080","","6055.899999999441","0.13","img/117/5.5/0.5/bw/001.png","","","complex"
"","","","","","animation","16","491332","0.0-16.0","1920x1080","","6070.5","75.66","img/314/3.5/0.66667/bw/001.png","","","complex"
"","","","","","animation","17","495300","0.0-17.0","1920x1080","","3967.600000000559","50.66","img/117/4/1/bw/001.png","","","complex"
"","","","","","animation","18","499812","0.0-18.0","1920x1080","","4510.799999999814","91.53","img/314/3.5/1.5/bw/001.png","","","complex"
"","","","","","animation","19","502604","0.0-19.0","1920x1080","","2791.5","99","img/117/2.5/0.5/bw/001.png","","","complex"
"","","","","","animation","20","506668","0.0-20.0","1920x1080","","4062.600000000559","99","img/238/2.5/2/bw/001.png","","","complex"
"","","","","","animation","21","509796","0.0-21.0","1920x1080","","3127.5","87.30","img/238/3.5/0.5/bw/001.png","","","complex"
"","","","","","animation","22","512940","0.0-22.0","1920x1080","","3143.7999999998137","21.83","img/117/4.5/0.66667/bw/001.png","","","complex"
"","","","","","animation","23","519196","0.0-23.0","1920x1080","","6255","99","img/314/2.5/0.5/bw/001.png","","","complex"
"","","","","","animation","24","526068","0.0-24.0","1920x1080","","6871.5999999996275","100","img/117/2.5/0.66667/bw/001.png","","","complex"
"","","","","","animation","25","530868","0.0-25.0","1920x1080","","4798.600000000559","23.41","img/314/3.5/2/bw/001.png","","","complex"
"","","","","","animation","26","533678","0.0-26.0","1920x1080","","2809.2000000001863","96","img/238/2.5/1/bw/001.png","","","complex"
"","","","","","animation","27","536180","0.0-27.0","1920x1080","","2501.7000000001863","75.79","img/117/3.5/1.5/bw/001.png","","","complex"
"","","","","","animation","28","539523","0.0-28.0","1920x1080","","3343.100000000559","99","img/314/2.5/0.66667/bw/001.png","","","complex"
"","","","","","animation","29","545643","0.0-29.0","1920x1080","","6119.5999999996275","20.24","img/117/4/0.66667/bw/001.png","","","complex"
"","","","","","animation","30","549051","0.0-30.0","1920x1080","","3406.2999999998137","2.65","img/314/4/2/bw/001.png","","","complex"
"","","","","","animation","31","552171","0.0-31.0","1920x1080","","3119.300000000745","0.40","img/314/4/0.66667/bw/001.png","","","complex"
"","","","","","animation","32","555819","0.0-32.0","1920x1080","","3646.5999999996275","0.53","img/238/5.5/1.5/bw/001.png","","","complex"
"","","","","","animation","33","558467","0.0-33.0","1920x1080","","2647.7999999998137","97","img/238/2.5/1.5/bw/001.png","","","complex"
"","","","","","animation","34","561077","0.0-34.0","1920x1080","","2608.9000000003725","62.17","img/238/3.5/0.66667/bw/001.png","","","complex"
"","","","","","animation","35","565683","0.0-35.0","1920x1080","","4605.200000000186","6.61","img/238/4/1/bw/001.png","","","complex"
"","","","","","animation","36","570763","0.0-36.0","1920x1080","","5079","22.49","img/117/3.5/0.66667/bw/001.png","","","complex"
"","","","","","animation","37","573499","0.0-37.0","1920x1080","","2735.5","23.68","img/238/3.5/2/bw/001.png","","","complex"
"","","","","","animation","38","575947","0.0-38.0","1920x1080","","2446.899999999441","0.93","img/117/5.5/1/bw/001.png","","","complex"
"","","","","","animation","39","583547","0.0-39.0","1920x1080","","7599.200000000186","96","img/314/2.5/1/bw/001.png","","","complex"
"","","","","","animation","40","588603","0.0-40.0","1920x1080","","5055.200000000186","77.12","img/314/3.5/1/bw/001.png","","","complex"
"","","","","","animation","41","591555","0.0-41.0","1920x1080","","2951.5","100","img/117/2.5/1.5/bw/001.png","","","complex"
"","","","","","animation","42","593995","0.0-42.0","1920x1080","","2438.5","5.82","img/117/4.5/2/bw/001.png","","","complex"
"","","","","","animation","43","596331","0.0-43.0","1920x1080","","2335.2000000001863","12.57","img/238/3.5/1/bw/001.png","","","complex"
"","","","","","animation","44","598647","0.0-44.0","1920x1080","","2318.2999999998137","7.80","img/238/3.5/1.5/bw/001.png","","","complex"
"","","","","","animation","45","602432","0.0-45.0","1920x1080","","3784","1.72","img/238/4.5/0.66667/bw/001.png","","","complex"
"","","","","","animation","46","607439","0.0-46.0","1920x1080","","5006.4000000003725","72.35","img/314/4/1/bw/001.png","","","complex"
"","","","","","animation","47","610496","0.0-47.0","1920x1080","","3055.7999999998137","0","img/238/5.5/0.66667/bw/001.png","","","complex"
"","","","","","animation","48","613407","0.0-48.0","1920x1080","","2910.7000000001863","22.75","img/117/3.5/1/bw/001.png","","","complex"
"","","","","","animation","49","616191","0.0-49.0","1920x1080","","2783.2000000001863","15.74","img/117/4.5/1.5/bw/001.png","","","complex"
"","","","","","animation","50","618591","0.0-50.0","1920x1080","","2398.800000000745","53.57","img/117/3.5/2/bw/001.png","","","complex"
"","","","","","animation","51","622743","0.0-51.0","1920x1080","","4151.100000000559","97","img/314/2.5/1.5/bw/001.png","","","complex"
"","","","","","animation","52","625184","0.0-52.0","1920x1080","","2439.4000000003725","7.67","img/314/4.5/1.5/bw/001.png","","","complex"
"","","","","","animation","53","627456","0.0-53.0","1920x1080","","2271.7999999998137","18.52","img/314/4/1.5/bw/001.png","","","complex"
"","","","","","animation","54","630143","0.0-54.0","1920x1080","","2686.2000000001863","99","img/117/2.5/2/bw/001.png","","","complex"
"","","","","","animation","55","634327","0.0-55.0","1920x1080","","4182.899999999441","1.32","img/238/5.5/2/bw/001.png","","","complex"
"","","","","","animation","56","638290","0.0-56.0","1920x1080","","3961.7999999998137","14.55","img/314/4.5/1/bw/001.png","","","complex"
"","","","","","animation","57","642168","0.0-57.0","1920x1080","","3876.699999999255","50.00","img/117/4/0.5/bw/001.png","","","complex"
"","","","","","animation","58","644657","0.0-58.0","1920x1080","","2488.5","14.68","img/238/4.5/2/bw/001.png","","","complex"
"","","","","","animation","59","647096","0.0-59.0","1920x1080","","2437.5999999996275","29.23","img/238/4.5/0.5/bw/001.png","","","complex"
"","","","","","animation","60","649647","0.0-60.0","1920x1080","","2551","16.27","img/314/4.5/2/bw/001.png","","","complex"
"","","","","","animation","61","652823","0.0-61.0","1920x1080","","3175","32.67","img/238/4.5/1/bw/001.png","","","complex"
"","","","","","animation","62","655258","0.0-62.0","1920x1080","","2433.600000000559","2.25","img/117/5.5/1.5/bw/001.png","","","complex"
"","","","","","animation","63","658320","0.0-63.0","1920x1080","","3061.2000000001863","10.98","img/238/4.5/1.5/bw/001.png","","","complex"
"","","","","","animation","64","662898","0.0-64.0","1920x1080","","4574.799999999814","41.80","img/314/4.5/0.5/bw/001.png","","","complex"
"","","","","","animation","65","667562","0.0-65.0","1920x1080","","4663.0999999996275","0.40","img/238/5.5/1/bw/001.png","","","complex"
"","","","","","animation","66","670970","0.0-66.0","1920x1080","","3407.2000000001863","16.40","img/238/4/2/bw/001.png","","","complex"
"","","","","","animation","67","677618","0.0-67.0","1920x1080","","6647.100000000559","1","img/238/5.5/0.5/bw/001.png","","","complex"
"","","","","","animation","68","681361","0.0-68.0","1920x1080","","3741.9000000003725","0","img/314/5.5/1.5/bw/001.png","","","complex"
"","","","","","animation","69","686034","0.0-69.0","1920x1080","","4671.399999999441","0.00","img/314/5.5/1/bw/001.png","","","complex"
"","","","","","animation","70","688241","0.0-70.0","1920x1080","","2206.9000000003725","23.28","img/238/4/1.5/bw/001.png","","","complex"
"","","","","","animation","71","690834","0.0-71.0","1920x1080","","2591.5","32.54","img/117/4.5/1/bw/001.png","","","complex"
"","","","","","animation","72","693627","0.0-72.0","1920x1080","","2792.5","0","img/117/5.5/0.66667/bw/001.png","","","complex"
"","","","","","animation","73","696418","0.0-73.0","1920x1080","","2789.600000000559","0","img/314/5.5/0.66667/bw/001.png","","","complex"
"","","","","","animation","74","698777","0.0-74.0","1920x1080","","2358.399999999441","95","img/238/2.5/0.5/bw/001.png","","","complex"
"","","","","","animation","75","700714","0.0-75.0","1920x1080","","1935.5999999996275","66.40","img/314/4/0.5/bw/001.png","","","complex"
"","","","","","animation","76","703109","0.0-76.0","1920x1080","","2394.2999999998137","3.31","img/117/5.5/2/bw/001.png","","","complex"
"","","","","","animation","77","706161","0.0-77.0","1920x1080","","3051.5","30.16","img/238/4/0.5/bw/001.png","","","complex"
"","","","","","animation","78","709218","0.0-78.0","1920x1080","","3055.2000000001863","95","img/314/2.5/2/bw/001.png","","","complex"
"","","","","","animation","79","711909","0.0-79.0","1920x1080","","2690.9000000003725","96","img/117/2.5/1/bw/001.png","","","complex"
"","","","","","animation","80","714627","0.0-80.0","1920x1080","","2716.5","17.06","img/314/4.5/0.66667/bw/001.png","","","complex"
"","","","","","animation","81","716892","0.0-81.0","1920x1080","","2264.199999999255","37.30","img/238/4/0.66667/bw/001.png","","","complex"
"","","","","","html-button-response","82","735925","0.0-82.0","1920x1080","","19028.799999999814","","<div class=""intro"">You are about to view a new series of animations.<br><br></div><div class=""intro"">You will evaluate them based on a different descriptor.<br><br></div><div class=""intro"">Move the slider to indicate how <strong style=""text-transform:capitalize"">NATURAL</strong> you find each animation.<br><br></div><div class=""intro"">0 = Least Natural<br></div><div class=""intro"">1 = Most Natural<br><br></div><div class=""intro"">Remember to use the <strong><em>entire range</em></strong> of the slider to make your ratings.<br></div><div class=""intro"">Please <strong><em>take your time</em></strong> and carefully consider each rating you make.<br><br></div>","0","",""
"","","","","","call-function","83","735925","0.0-83.0","1920x1080","","","","","","",""
"","","","","","animation","84","747604","0.0-84.0","1920x1080","","11678","47.75","img/314/4.5/0.66667/bw/001.png","","","natural"
"","","","","","animation","85","756916","0.0-85.0","1920x1080","","9311","49.87","img/117/5.5/1.5/bw/001.png","","","natural"
"","","","","","animation","86","761180","0.0-86.0","1920x1080","","4262.799999999814","0.00","img/117/2.5/0.66667/bw/001.png","","","natural"
"","","","","","animation","87","766548","0.0-87.0","1920x1080","","5367","62.30","img/238/5.5/1/bw/001.png","","","natural"
"","","","","","animation","88","769044","0.0-88.0","1920x1080","","2495.2999999998137","75.26","img/314/5.5/1/bw/001.png","","","natural"
"","","","","","animation","89","774772","0.0-89.0","1920x1080","","5726.700000000186","91.01","img/314/5.5/2/bw/001.png","","","natural"
"","","","","","animation","90","779222","0.0-90.0","1920x1080","","4456.5999999996275","34.66","img/238/4.5/0.66667/bw/001.png","","","natural"
"","","","","","animation","91","784309","0.0-91.0","1920x1080","","5085.4000000003725","65.21","img/117/5.5/0.66667/bw/001.png","","","natural"
"","","","","","animation","92","787965","0.0-92.0","1920x1080","","3655","5.95","img/238/2.5/1.5/bw/001.png","","","natural"
"","","","","","animation","93","790333","0.0-93.0","1920x1080","","2366.4000000003725","25.00","img/238/3.5/0.5/bw/001.png","","","natural"
"","","","","","animation","94","792909","0.0-94.0","1920x1080","","2574.7999999998137","20.24","img/238/4/2/bw/001.png","","","natural"
"","","","","","animation","95","796508","0.0-95.0","1920x1080","","3598.7999999998137","23.02","img/117/4/1/bw/001.png","","","natural"
"","","","","","animation","96","800197","0.0-96.0","1920x1080","","3687.5999999996275","15.61","img/238/4/1/bw/001.png","","","natural"
"","","","","","animation","97","802756","0.0-97.0","1920x1080","","2558.7999999998137","34.79","img/117/3.5/0.66667/bw/001.png","","","natural"
"","","","","","animation","98","806749","0.0-98.0","1920x1080","","3991.7999999998137","4.50","img/314/2.5/0.5/bw/001.png","","","natural"
"","","","","","animation","99","811541","0.0-99.0","1920x1080","","4790.700000000186","54","img/238/4.5/1/bw/001.png","","","natural"
"","","","","","animation","100","814013","0.0-100.0","1920x1080","","2471","43.12","img/117/3.5/2/bw/001.png","","","natural"
"","","","","","animation","101","816645","0.0-101.0","1920x1080","","2630.5999999996275","59.39","img/117/4.5/1/bw/001.png","","","natural"
"","","","","","animation","102","819887","0.0-102.0","1920x1080","","3241.600000000559","39.42","img/314/3.5/0.66667/bw/001.png","","","natural"
"","","","","","animation","103","823637","0.0-103.0","1920x1080","","3748.9000000003725","21.30","img/314/4/0.5/bw/001.png","","","natural"
"","","","","","animation","104","826088","0.0-104.0","1920x1080","","2450.5999999996275","88.89","img/238/5.5/0.5/bw/001.png","","","natural"
"","","","","","animation","105","828149","0.0-105.0","1920x1080","","2059.7000000001863","32.01","img/117/4/0.66667/bw/001.png","","","natural"
"","","","","","animation","106","831037","0.0-106.0","1920x1080","","2887","3.97","img/238/2.5/0.5/bw/001.png","","","natural"
"","","","","","animation","107","833509","0.0-107.0","1920x1080","","2470.800000000745","80.42","img/314/4.5/2/bw/001.png","","","natural"
"","","","","","animation","108","836309","0.0-108.0","1920x1080","","2798.7000000001863","92.20","img/117/4.5/2/bw/001.png","","","natural"
"","","","","","animation","109","839529","0.0-109.0","1920x1080","","3215.2000000001863","51.98","img/314/3.5/2/bw/001.png","","","natural"
"","","","","","animation","110","841908","0.0-110.0","1920x1080","","2378.4000000003725","99","img/238/5.5/1.5/bw/001.png","","","natural"
"","","","","","animation","111","844697","0.0-111.0","1920x1080","","2788","47.75","img/117/4.5/0.5/bw/001.png","","","natural"
"","","","","","animation","112","847697","0.0-112.0","1920x1080","","2999.2999999998137","86.64","img/314/5.5/1.5/bw/001.png","","","natural"
"","","","","","animation","113","850033","0.0-113.0","1920x1080","","2334.800000000745","9.26","img/314/2.5/2/bw/001.png","","","natural"
"","","","","","animation","114","852408","0.0-114.0","1920x1080","","2374.5","36.11","img/238/3.5/2/bw/001.png","","","natural"
"","","","","","animation","115","855108","0.0-115.0","1920x1080","","2699.300000000745","49.74","img/117/3.5/1.5/bw/001.png","","","natural"
"","","","","","animation","116","857865","0.0-116.0","1920x1080","","2754.7999999998137","33.33","img/117/4/2/bw/001.png","","","natural"
"","","","","","animation","117","860512","0.0-117.0","1920x1080","","2646.899999999441","7.01","img/238/2.5/0.66667/bw/001.png","","","natural"
"","","","","","animation","118","864960","0.0-118.0","1920x1080","","4447.0999999996275","42.59","img/238/4.5/0.5/bw/001.png","","","natural"
"","","","","","animation","119","867026","0.0-119.0","1920x1080","","2064.4000000003725","36.11","img/314/3.5/1/bw/001.png","","","natural"
"","","","","","animation","120","870353","0.0-120.0","1920x1080","","3325.800000000745","99","img/117/5.5/1/bw/001.png","","","natural"
"","","","","","animation","121","876592","0.0-121.0","1920x1080","","6238.4000000003725","20.63","img/314/4/0.66667/bw/001.png","","","natural"
"","","","","","animation","122","880385","0.0-122.0","1920x1080","","3791.600000000559","3.44","img/314/2.5/1/bw/001.png","","","natural"
"","","","","","animation","123","885465","0.0-123.0","1920x1080","","5079.200000000186","88.10","img/117/4.5/1.5/bw/001.png","","","natural"
"","","","","","animation","124","891176","0.0-124.0","1920x1080","","5710.5","22.62","img/117/3.5/0.5/bw/001.png","","","natural"
"","","","","","animation","125","895560","0.0-125.0","1920x1080","","4382.600000000559","50.26","img/314/4.5/1.5/bw/001.png","","","natural"
"","","","","","animation","126","899231","0.0-126.0","1920x1080","","3671.5999999996275","51.19","img/314/4.5/1/bw/001.png","","","natural"
"","","","","","animation","127","903015","0.0-127.0","1920x1080","","3783.0999999996275","9.26","img/238/2.5/1/bw/001.png","","","natural"
"","","","","","animation","128","906552","0.0-128.0","1920x1080","","3535.2999999998137","13.49","img/238/4/0.5/bw/001.png","","","natural"
"","","","","","animation","129","909847","0.0-129.0","1920x1080","","3294.5","97","img/117/5.5/2/bw/001.png","","","natural"
"","","","","","animation","130","912295","0.0-130.0","1920x1080","","2446.5999999996275","2.91","img/314/2.5/1.5/bw/001.png","","","natural"
"","","","","","animation","131","914524","0.0-131.0","1920x1080","","2227.399999999441","49.21","img/117/4.5/0.66667/bw/001.png","","","natural"
"","","","","","animation","132","916511","0.0-132.0","1920x1080","","1986.8999999994412","26.32","img/238/4/0.66667/bw/001.png","","","natural"
"","","","","","animation","133","919799","0.0-133.0","1920x1080","","3287.0999999996275","3.17","img/117/2.5/2/bw/001.png","","","natural"
"","","","","","animation","134","922479","0.0-134.0","1920x1080","","2679","0","img/314/2.5/0.66667/bw/001.png","","","natural"
"","","","","","animation","135","925743","0.0-135.0","1920x1080","","3262.5999999996275","28.57","img/238/3.5/0.66667/bw/001.png","","","natural"
"","","","","","animation","136","928159","0.0-136.0","1920x1080","","2415","8.07","img/314/4/1/bw/001.png","","","natural"
"","","","","","animation","137","933311","0.0-137.0","1920x1080","","5151.200000000186","100","img/238/5.5/0.66667/bw/001.png","","","natural"
"","","","","","animation","138","936223","0.0-138.0","1920x1080","","2910.800000000745","1.59","img/117/2.5/1/bw/001.png","","","natural"
"","","","","","animation","139","938416","0.0-139.0","1920x1080","","2191.300000000745","28.17","img/238/3.5/1.5/bw/001.png","","","natural"
"","","","","","animation","140","941807","0.0-140.0","1920x1080","","3390.7000000001863","52.12","img/314/4.5/0.5/bw/001.png","","","natural"
"","","","","","animation","141","944507","0.0-141.0","1920x1080","","2698.0999999996275","5.03","img/117/2.5/0.5/bw/001.png","","","natural"
"","","","","","animation","142","947031","0.0-142.0","1920x1080","","2523.5999999996275","29.23","img/238/3.5/1/bw/001.png","","","natural"
"","","","","","animation","143","950391","0.0-143.0","1920x1080","","3359.2000000001863","92.59","img/238/4.5/2/bw/001.png","","","natural"
"","","","","","animation","144","953295","0.0-144.0","1920x1080","","2902.7999999998137","49.87","img/314/4/2/bw/001.png","","","natural"
"","","","","","animation","145","956615","0.0-145.0","1920x1080","","3318.5999999996275","36.11","img/238/4.5/1.5/bw/001.png","","","natural"
"","","","","","animation","146","959046","0.0-146.0","1920x1080","","2430.399999999441","11.11","img/314/3.5/1.5/bw/001.png","","","natural"
"","","","","","animation","147","961846","0.0-147.0","1920x1080","","2798.600000000559","100","img/238/5.5/2/bw/001.png","","","natural"
"","","","","","animation","148","965382","0.0-148.0","1920x1080","","3534.7999999998137","7.94","img/117/4/1.5/bw/001.png","","","natural"
"","","","","","animation","149","967773","0.0-149.0","1920x1080","","2390.300000000745","8.60","img/314/3.5/0.5/bw/001.png","","","natural"
"","","","","","animation","150","972646","0.0-150.0","1920x1080","","4871.399999999441","15.48","img/117/3.5/1/bw/001.png","","","natural"
"","","","","","animation","151","974673","0.0-151.0","1920x1080","","2026.7000000001863","29.50","img/238/4/1.5/bw/001.png","","","natural"
"","","","","","animation","152","976982","0.0-152.0","1920x1080","","2307.2999999998137","14.55","img/117/4/0.5/bw/001.png","","","natural"
"","","","","","animation","153","979973","0.0-153.0","1920x1080","","2990.7000000001863","99","img/314/5.5/0.5/bw/001.png","","","natural"
"","","","","","animation","154","982997","0.0-154.0","1920x1080","","3023.2999999998137","5.95","img/238/2.5/2/bw/001.png","","","natural"
"","","","","","animation","155","985214","0.0-155.0","1920x1080","","2213.7000000001863","98","img/117/5.5/0.5/bw/001.png","","","natural"
"","","","","","animation","156","987357","0.0-156.0","1920x1080","","2142.7000000001863","10.05","img/117/2.5/1.5/bw/001.png","","","natural"
"","","","","","animation","157","991089","0.0-157.0","1920x1080","","3730.600000000559","69.97","img/314/5.5/0.66667/bw/001.png","","","natural"
"","","","","","animation","158","993925","0.0-158.0","1920x1080","","2835.600000000559","50.00","img/314/4/1.5/bw/001.png","","","natural"
"","","","","","html-button-response","159","1014214","0.0-159.0","1920x1080","","20287.200000000186","","<div class=""intro"">You are about to view a new series of animations.<br><br></div><div class=""intro"">You will evaluate them based on a different descriptor.<br><br></div><div class=""intro"">Move the slider to indicate how <strong style=""text-transform:capitalize"">APPEALING</strong> you find each animation.<br><br></div><div class=""intro"">0 = Least Appealing<br></div><div class=""intro"">1 = Most Appealing<br><br></div><div class=""intro"">Remember to use the <strong><em>entire range</em></strong> of the slider to make your ratings.<br></div><div class=""intro"">Please <strong><em>take your time</em></strong> and carefully consider each rating you make.<br><br></div>","0","",""
"","","","","","call-function","160","1014215","0.0-160.0","1920x1080","","","","","","",""
"","","","","","animation","161","1019111","0.0-161.0","1920x1080","","4888.800000000745","1.72","img/117/2.5/1/bw/001.png","","","appealing"
"","","","","","animation","162","1024495","0.0-162.0","1920x1080","","5383.100000000559","23.68","img/238/4.5/0.5/bw/001.png","","","appealing"
"","","","","","animation","163","1026978","0.0-163.0","1920x1080","","2482","11.64","img/117/4.5/1.5/bw/001.png","","","appealing"
"","","","","","animation","164","1028945","0.0-164.0","1920x1080","","1966.2000000001863","16.80","img/238/3.5/0.5/bw/001.png","","","appealing"
"","","","","","animation","165","1031861","0.0-165.0","1920x1080","","2915.100000000559","97","img/314/5.5/0.66667/bw/001.png","","","appealing"
"","","","","","animation","166","1034221","0.0-166.0","1920x1080","","2358.4000000003725","41.53","img/117/4.5/0.66667/bw/001.png","","","appealing"
"","","","","","animation","167","1037188","0.0-167.0","1920x1080","","2966.9000000003725","18.52","img/238/4/0.5/bw/001.png","","","appealing"
"","","","","","animation","168","1041117","0.0-168.0","1920x1080","","3927.0999999996275","20.63","img/314/4/0.66667/bw/001.png","","","appealing"
"","","","","","animation","169","1043621","0.0-169.0","1920x1080","","2502.7999999998137","2.25","img/238/3.5/1/bw/001.png","","","appealing"
"","","","","","animation","170","1045469","0.0-170.0","1920x1080","","1846.699999999255","20.37","img/238/3.5/1.5/bw/001.png","","","appealing"
"","","","","","animation","171","1048021","0.0-171.0","1920x1080","","2551","99","img/314/5.5/0.5/bw/001.png","","","appealing"
"","","","","","animation","172","1051485","0.0-172.0","1920x1080","","3463","0","img/314/2.5/1/bw/001.png","","","appealing"
"","","","","","animation","173","1054596","0.0-173.0","1920x1080","","3110.2000000001863","50.00","img/238/4.5/2/bw/001.png","","","appealing"
"","","","","","animation","174","1057348","0.0-174.0","1920x1080","","2751","53.57","img/117/4.5/0.5/bw/001.png","","","appealing"
"","","","","","animation","175","1064717","0.0-175.0","1920x1080","","7367.199999999255","41.40","img/238/4/2/bw/001.png","","","appealing"
"","","","","","animation","176","1068132","0.0-176.0","1920x1080","","3415","23.81","img/238/4/1.5/bw/001.png","","","appealing"
"","","","","","animation","177","1072101","0.0-177.0","1920x1080","","3966.9000000003725","53.04","img/314/4.5/0.66667/bw/001.png","","","appealing"
"","","","","","animation","178","1075780","0.0-178.0","1920x1080","","3678.600000000559","31.48","img/314/4/1/bw/001.png","","","appealing"
"","","","","","animation","179","1078863","0.0-179.0","1920x1080","","3087.5","100","img/238/5.5/1.5/bw/001.png","","","appealing"
"","","","","","animation","180","1081296","0.0-180.0","1920x1080","","2431","13.49","img/117/4/0.66667/bw/001.png","","","appealing"
"","","","","","animation","181","1083495","0.0-181.0","1920x1080","","2198.800000000745","96","img/238/5.5/1/bw/001.png","","","appealing"
"","","","","","animation","182","1087257","0.0-182.0","1920x1080","","3760.2000000001863","95","img/314/5.5/2/bw/001.png","","","appealing"
"","","","","","animation","183","1089340","0.0-183.0","1920x1080","","2082.2000000001863","81.48","img/117/5.5/1.5/bw/001.png","","","appealing"
"","","","","","animation","184","1091647","0.0-184.0","1920x1080","","2306.199999999255","93.78","img/238/5.5/0.5/bw/001.png","","","appealing"
"","","","","","animation","185","1094120","0.0-185.0","1920x1080","","2471.4000000003725","50.13","img/117/3.5/2/bw/001.png","","","appealing"
"","","","","","animation","186","1096831","0.0-186.0","1920x1080","","2710.5","0.79","img/238/2.5/0.66667/bw/001.png","","","appealing"
"","","","","","animation","187","1102074","0.0-187.0","1920x1080","","5241.5999999996275","7.94","img/314/4/0.5/bw/001.png","","","appealing"
"","","","","","animation","188","1105323","0.0-188.0","1920x1080","","3247.9000000003725","1.72","img/238/2.5/1/bw/001.png","","","appealing"
"","","","","","animation","189","1111359","0.0-189.0","1920x1080","","6034.5999999996275","47.88","img/314/4/2/bw/001.png","","","appealing"
"","","","","","animation","190","1114023","0.0-190.0","1920x1080","","2662.7999999998137","2.25","img/314/2.5/0.5/bw/001.png","","","appealing"
"","","","","","animation","191","1117879","0.0-191.0","1920x1080","","3855.199999999255","29.23","img/314/3.5/2/bw/001.png","","","appealing"
"","","","","","animation","192","1121107","0.0-192.0","1920x1080","","3226.2000000001863","23.28","img/238/4/1/bw/001.png","","","appealing"
"","","","","","animation","193","1124816","0.0-193.0","1920x1080","","3707.600000000559","21.96","img/117/4/2/bw/001.png","","","appealing"
"","","","","","animation","194","1130999","0.0-194.0","1920x1080","","6182.5999999996275","95","img/314/5.5/1/bw/001.png","","","appealing"
"","","","","","animation","195","1133743","0.0-195.0","1920x1080","","2742.5","22.22","img/314/3.5/1/bw/001.png","","","appealing"
"","","","","","animation","196","1136727","0.0-196.0","1920x1080","","2983.2000000001863","1.32","img/238/2.5/2/bw/001.png","","","appealing"
"","","","","","animation","197","1138999","0.0-197.0","1920x1080","","2270.7999999998137","97","img/238/5.5/0.66667/bw/001.png","","","appealing"
"","","","","","animation","198","1141199","0.0-198.0","1920x1080","","2199","10.19","img/314/3.5/1.5/bw/001.png","","","appealing"
"","","","","","animation","199","1144472","0.0-199.0","1920x1080","","3272.2999999998137","0","img/117/2.5/1.5/bw/001.png","","","appealing"
"","","","","","animation","200","1147215","0.0-200.0","1920x1080","","2741.699999999255","3.04","img/117/4/0.5/bw/001.png","","","appealing"
"","","","","","animation","201","1153095","0.0-201.0","1920x1080","","5878.9000000003725","20.37","img/117/4/1/bw/001.png","","","appealing"
"","","","","","animation","202","1155288","0.0-202.0","1920x1080","","2192.4000000003725","0","img/314/2.5/0.66667/bw/001.png","","","appealing"
"","","","","","animation","203","1158247","0.0-203.0","1920x1080","","2957.199999999255","51.85","img/314/4.5/1/bw/001.png","","","appealing"
"","","","","","animation","204","1160727","0.0-204.0","1920x1080","","2478.5999999996275","93.39","img/117/5.5/1/bw/001.png","","","appealing"
"","","","","","animation","205","1164856","0.0-205.0","1920x1080","","4127.799999999814","8.60","img/117/3.5/1.5/bw/001.png","","","appealing"
"","","","","","animation","206","1166942","0.0-206.0","1920x1080","","2085.2999999998137","13.10","img/117/3.5/1/bw/001.png","","","appealing"
"","","","","","animation","207","1171415","0.0-207.0","1920x1080","","4471.299999999814","100","img/314/5.5/1.5/bw/001.png","","","appealing"
"","","","","","animation","208","1174340","0.0-208.0","1920x1080","","2923.5","51.46","img/238/4.5/1.5/bw/001.png","","","appealing"
"","","","","","animation","209","1177791","0.0-209.0","1920x1080","","3449.899999999441","39.29","img/314/4/1.5/bw/001.png","","","appealing"
"","","","","","animation","210","1180143","0.0-210.0","1920x1080","","2351.2999999998137","74.74","img/238/4.5/1/bw/001.png","","","appealing"
"","","","","","animation","211","1182322","0.0-211.0","1920x1080","","2178.7999999998137","91.01","img/117/5.5/2/bw/001.png","","","appealing"
"","","","","","animation","212","1184722","0.0-212.0","1920x1080","","2399","1.19","img/117/2.5/0.5/bw/001.png","","","appealing"
"","","","","","animation","213","1188210","0.0-213.0","1920x1080","","3486.2000000001863","37.96","img/238/4.5/0.66667/bw/001.png","","","appealing"
"","","","","","animation","214","1190679","0.0-214.0","1920x1080","","2467.9000000003725","0","img/314/2.5/2/bw/001.png","","","appealing"
"","","","","","animation","215","1193415","0.0-215.0","1920x1080","","2734.899999999441","100","img/238/5.5/2/bw/001.png","","","appealing"
"","","","","","animation","216","1196990","0.0-216.0","1920x1080","","3573.899999999441","69.84","img/117/5.5/0.5/bw/001.png","","","appealing"
"","","","","","animation","217","1200855","0.0-217.0","1920x1080","","3864.600000000559","51.06","img/314/4.5/1.5/bw/001.png","","","appealing"
"","","","","","animation","218","1204288","0.0-218.0","1920x1080","","3432.0999999996275","0","img/314/2.5/1.5/bw/001.png","","","appealing"
"","","","","","animation","219","1206541","0.0-219.0","1920x1080","","2251.899999999441","25.79","img/117/4.5/2/bw/001.png","","","appealing"
"","","","","","animation","220","1209888","0.0-220.0","1920x1080","","3345.5","17.20","img/238/3.5/2/bw/001.png","","","appealing"
"","","","","","animation","221","1212893","0.0-221.0","1920x1080","","3004.5","11.11","img/117/4.5/1/bw/001.png","","","appealing"
"","","","","","animation","222","1216173","0.0-222.0","1920x1080","","3278.399999999441","11.64","img/314/3.5/0.66667/bw/001.png","","","appealing"
"","","","","","animation","223","1219138","0.0-223.0","1920x1080","","2964.4000000003725","0.40","img/238/2.5/0.5/bw/001.png","","","appealing"
"","","","","","animation","224","1222838","0.0-224.0","1920x1080","","3698.399999999441","40.08","img/117/4/1.5/bw/001.png","","","appealing"
"","","","","","animation","225","1225013","0.0-225.0","1920x1080","","2174.2000000001863","51.72","img/314/4.5/2/bw/001.png","","","appealing"
"","","","","","animation","226","1227305","0.0-226.0","1920x1080","","2290.2000000001863","89.95","img/117/5.5/0.66667/bw/001.png","","","appealing"
"","","","","","animation","227","1230357","0.0-227.0","1920x1080","","3051.7000000001863","38.49","img/117/3.5/0.66667/bw/001.png","","","appealing"
"","","","","","animation","228","1233757","0.0-228.0","1920x1080","","3398.7999999998137","0.00","img/238/2.5/1.5/bw/001.png","","","appealing"
"","","","","","animation","229","1235989","0.0-229.0","1920x1080","","2229.2999999998137","9.92","img/117/3.5/0.5/bw/001.png","","","appealing"
"","","","","","animation","230","1238788","0.0-230.0","1920x1080","","2797.899999999441","30.69","img/238/4/0.66667/bw/001.png","","","appealing"
"","","","","","animation","231","1241613","0.0-231.0","1920x1080","","2824","0.40","img/117/2.5/2/bw/001.png","","","appealing"
"","","","","","animation","232","1244125","0.0-232.0","1920x1080","","2510.7000000001863","32.80","img/314/3.5/0.5/bw/001.png","","","appealing"
"","","","","","animation","233","1247061","0.0-233.0","1920x1080","","2934.9000000003725","39.81","img/238/3.5/0.66667/bw/001.png","","","appealing"
"","","","","","animation","234","1249557","0.0-234.0","1920x1080","","2494.2999999998137","1.98","img/117/2.5/0.66667/bw/001.png","","","appealing"
"","","","","","animation","235","1252621","0.0-235.0","1920x1080","","3063.2999999998137","22.75","img/314/4.5/0.5/bw/001.png","","","appealing"
"","","","","","html-button-response","236","1270878","0.0-236.0","1920x1080","","18248.5","","<div class=""intro"">You are about to view a new series of animations.<br><br></div><div class=""intro"">You will evaluate them based on a different descriptor.<br><br></div><div class=""intro"">Move the slider to indicate how <strong style=""text-transform:capitalize"">INTERESTING</strong> you find each animation.<br><br></div><div class=""intro"">0 = Least Interesting<br></div><div class=""intro"">1 = Most Interesting<br><br></div><div class=""intro"">Remember to use the <strong><em>entire range</em></strong> of the slider to make your ratings.<br></div><div class=""intro"">Please <strong><em>take your time</em></strong> and carefully consider each rating you make.<br><br></div>","0","",""
"","","","","","call-function","237","1270880","0.0-237.0","1920x1080","","","","","","",""
"","","","","","animation","238","1277094","0.0-238.0","1920x1080","","6214","68.52","img/238/4.5/1.5/bw/001.png","","","interesting"
"","","","","","animation","239","1280036","0.0-239.0","1920x1080","","2940.5","82.14","img/238/3.5/0.5/bw/001.png","","","interesting"
"","","","","","animation","240","1283995","0.0-240.0","1920x1080","","3958.2000000001863","23.41","img/238/4.5/0.5/bw/001.png","","","interesting"
"","","","","","animation","241","1287994","0.0-241.0","1920x1080","","3997.7000000001863","50.93","img/314/5.5/0.5/bw/001.png","","","interesting"
"","","","","","animation","242","1291132","0.0-242.0","1920x1080","","3136.300000000745","16.93","img/314/5.5/0.66667/bw/001.png","","","interesting"
"","","","","","animation","243","1296345","0.0-243.0","1920x1080","","5211.700000000186","60.85","img/314/4.5/2/bw/001.png","","","interesting"
"","","","","","animation","244","1298811","0.0-244.0","1920x1080","","2465.2000000001863","17.06","img/314/5.5/2/bw/001.png","","","interesting"
"","","","","","animation","245","1302300","0.0-245.0","1920x1080","","3487.5","74.34","img/117/4/0.66667/bw/001.png","","","interesting"
"","","","","","animation","246","1308331","0.0-246.0","1920x1080","","6030.4000000003725","61.64","img/117/4.5/1/bw/001.png","","","interesting"
"","","","","","animation","247","1312611","0.0-247.0","1920x1080","","4278.0999999996275","52.51","img/238/3.5/1.5/bw/001.png","","","interesting"
"","","","","","animation","248","1316252","0.0-248.0","1920x1080","","3639.300000000745","60.05","img/117/5.5/0.5/bw/001.png","","","interesting"
"","","","","","animation","249","1318787","0.0-249.0","1920x1080","","2541.2999999998137","33.73","img/314/4.5/1/bw/001.png","","","interesting"
"","","","","","animation","250","1324554","0.0-250.0","1920x1080","","5765.5","34","img/314/5.5/1/bw/001.png","","","interesting"
"","","","","","animation","251","1326871","0.0-251.0","1920x1080","","2315.600000000559","35.71","img/238/5.5/1.5/bw/001.png","","","interesting"
"","","","","","animation","252","1329429","0.0-252.0","1920x1080","","2557.100000000559","66.27","img/117/4.5/1.5/bw/001.png","","","interesting"
"","","","","","animation","253","1332380","0.0-253.0","1920x1080","","2949.9000000003725","73.41","img/238/3.5/1/bw/001.png","","","interesting"
"","","","","","animation","254","1334420","0.0-254.0","1920x1080","","2038.6000000005588","95","img/238/2.5/1.5/bw/001.png","","","interesting"
"","","","","","animation","255","1336972","0.0-255.0","1920x1080","","2551.2000000001863","41.01","img/238/5.5/0.66667/bw/001.png","","","interesting"
"","","","","","animation","256","1342037","0.0-256.0","1920x1080","","5063.0999999996275","36.77","img/238/5.5/0.5/bw/001.png","","","interesting"
"","","","","","animation","257","1344654","0.0-257.0","1920x1080","","2616.2999999998137","64.95","img/238/4.5/0.66667/bw/001.png","","","interesting"
"","","","","","animation","258","1348429","0.0-258.0","1920x1080","","3773.7000000001863","97","img/238/2.5/0.5/bw/001.png","","","interesting"
"","","","","","animation","259","1351554","0.0-259.0","1920x1080","","3123.5999999996275","64.55","img/117/5.5/2/bw/001.png","","","interesting"
"","","","","","animation","260","1354054","0.0-260.0","1920x1080","","2498.7000000001863","67.99","img/238/4.5/1/bw/001.png","","","interesting"
"","","","","","animation","261","1356622","0.0-261.0","1920x1080","","2566.7000000001863","52.38","img/314/4.5/0.5/bw/001.png","","","interesting"
"","","","","","animation","262","1359220","0.0-262.0","1920x1080","","2597.5","51.72","img/314/4/2/bw/001.png","","","interesting"
"","","","","","animation","263","1362071","0.0-263.0","1920x1080","","2849.0999999996275","74.74","img/117/2.5/1/bw/001.png","","","interesting"
"","","","","","animation","264","1364525","0.0-264.0","1920x1080","","2453","75.13","img/117/3.5/1/bw/001.png","","","interesting"
"","","","","","animation","265","1368942","0.0-265.0","1920x1080","","4416.4000000003725","49.74","img/117/4.5/2/bw/001.png","","","interesting"
"","","","","","animation","266","1373740","0.0-266.0","1920x1080","","4796.699999999255","31.35","img/238/5.5/2/bw/001.png","","","interesting"
"","","","","","animation","267","1375988","0.0-267.0","1920x1080","","2246.5999999996275","78.70","img/314/2.5/1/bw/001.png","","","interesting"
"","","","","","animation","268","1381291","0.0-268.0","1920x1080","","5303.200000000186","51.98","img/117/5.5/0.66667/bw/001.png","","","interesting"
"","","","","","animation","269","1383485","0.0-269.0","1920x1080","","2193.4000000003725","82.28","img/117/2.5/0.5/bw/001.png","","","interesting"
"","","","","","animation","270","1385842","0.0-270.0","1920x1080","","2356.0999999996275","80.29","img/117/2.5/0.66667/bw/001.png","","","interesting"
"","","","","","animation","271","1387922","0.0-271.0","1920x1080","","2078.600000000559","64.81","img/117/3.5/0.5/bw/001.png","","","interesting"
"","","","","","animation","272","1390235","0.0-272.0","1920x1080","","2311.2999999998137","42.20","img/117/4.5/0.66667/bw/001.png","","","interesting"
"","","","","","animation","273","1394074","0.0-273.0","1920x1080","","3838.2999999998137","65.74","img/314/3.5/0.66667/bw/001.png","","","interesting"
"","","","","","animation","274","1396285","0.0-274.0","1920x1080","","2209.5999999996275","77.65","img/117/4/0.5/bw/001.png","","","interesting"
"","","","","","animation","275","1398690","0.0-275.0","1920x1080","","2404","64.29","img/117/3.5/0.66667/bw/001.png","","","interesting"
"","","","","","animation","276","1401602","0.0-276.0","1920x1080","","2910.300000000745","60.45","img/238/2.5/0.66667/bw/001.png","","","interesting"
"","","","","","animation","277","1404338","0.0-277.0","1920x1080","","2735.0999999996275","75.79","img/117/2.5/1.5/bw/001.png","","","interesting"
"","","","","","animation","278","1406106","0.0-278.0","1920x1080","","1767.1000000005588","68.92","img/314/4/0.5/bw/001.png","","","interesting"
"","","","","","animation","279","1412858","0.0-279.0","1920x1080","","6751.0999999996275","45.11","img/314/4/0.66667/bw/001.png","","","interesting"
"","","","","","animation","280","1419402","0.0-280.0","1920x1080","","6540.4000000003725","60.32","img/117/2.5/2/bw/001.png","","","interesting"
"","","","","","animation","281","1421427","0.0-281.0","1920x1080","","2023.8999999994412","61.11","img/117/3.5/1.5/bw/001.png","","","interesting"
"","","","","","animation","282","1423162","0.0-282.0","1920x1080","","1733","65.21","img/314/4/1.5/bw/001.png","","","interesting"
"","","","","","animation","283","1425601","0.0-283.0","1920x1080","","2438","70.90","img/314/2.5/0.66667/bw/001.png","","","interesting"
"","","","","","animation","284","1429074","0.0-284.0","1920x1080","","3471.7000000001863","65","img/314/2.5/2/bw/001.png","","","interesting"
"","","","","","animation","285","1432458","0.0-285.0","1920x1080","","3381.800000000745","69.44","img/117/4/1/bw/001.png","","","interesting"
"","","","","","animation","286","1434669","0.0-286.0","1920x1080","","2209.100000000559","68.39","img/314/4/1/bw/001.png","","","interesting"
"","","","","","animation","287","1437385","0.0-287.0","1920x1080","","2715.2000000001863","15.74","img/314/5.5/1.5/bw/001.png","","","interesting"
"","","","","","animation","288","1439834","0.0-288.0","1920x1080","","2449","78.97","img/314/2.5/0.5/bw/001.png","","","interesting"
"","","","","","animation","289","1443618","0.0-289.0","1920x1080","","3782.300000000745","62.96","img/238/4/1/bw/001.png","","","interesting"
"","","","","","animation","290","1446953","0.0-290.0","1920x1080","","3334.300000000745","50","img/238/4/0.5/bw/001.png","","","interesting"
"","","","","","animation","291","1453121","0.0-291.0","1920x1080","","6167.300000000745","65.48","img/314/3.5/0.5/bw/001.png","","","interesting"
"","","","","","animation","292","1455151","0.0-292.0","1920x1080","","2027.2999999998137","67.86","img/117/3.5/2/bw/001.png","","","interesting"
"","","","","","animation","293","1458284","0.0-293.0","1920x1080","","3132.4000000003725","72.62","img/117/4/1.5/bw/001.png","","","interesting"
"","","","","","animation","294","1461417","0.0-294.0","1920x1080","","3132.100000000559","80.16","img/238/3.5/0.66667/bw/001.png","","","interesting"
"","","","","","animation","295","1465600","0.0-295.0","1920x1080","","4181.800000000745","93.65","img/238/4/1.5/bw/001.png","","","interesting"
"","","","","","animation","296","1468457","0.0-296.0","1920x1080","","2855.5999999996275","14.68","img/238/5.5/1/bw/001.png","","","interesting"
"","","","","","animation","297","1470937","0.0-297.0","1920x1080","","2478.5","62.96","img/238/4/2/bw/001.png","","","interesting"
"","","","","","animation","298","1472987","0.0-298.0","1920x1080","","2048.7000000001863","70.11","img/314/3.5/1.5/bw/001.png","","","interesting"
"","","","","","animation","299","1475481","0.0-299.0","1920x1080","","2492.2000000001863","74.21","img/117/4/2/bw/001.png","","","interesting"
"","","","","","animation","300","1477841","0.0-300.0","1920x1080","","2358.5999999996275","54.37","img/314/2.5/1.5/bw/001.png","","","interesting"
"","","","","","animation","301","1479905","0.0-301.0","1920x1080","","2062.5","62.83","img/238/2.5/2/bw/001.png","","","interesting"
"","","","","","animation","302","1482551","0.0-302.0","1920x1080","","2644.7000000001863","66.53","img/314/3.5/1/bw/001.png","","","interesting"
"","","","","","animation","303","1485151","0.0-303.0","1920x1080","","2598","35.85","img/238/4.5/2/bw/001.png","","","interesting"
"","","","","","animation","304","1487984","0.0-304.0","1920x1080","","2832.399999999441","31.48","img/238/3.5/2/bw/001.png","","","interesting"
"","","","","","animation","305","1490784","0.0-305.0","1920x1080","","2798.7999999998137","70.90","img/314/3.5/2/bw/001.png","","","interesting"
"","","","","","animation","306","1496934","0.0-306.0","1920x1080","","6148.200000000186","65.34","img/117/5.5/1/bw/001.png","","","interesting"
"","","","","","animation","307","1500011","0.0-307.0","1920x1080","","3065.5999999996275","62.17","img/238/2.5/1/bw/001.png","","","interesting"
"","","","","","animation","308","1502585","0.0-308.0","1920x1080","","2572.7999999998137","67.33","img/117/4.5/0.5/bw/001.png","","","interesting"
"","","","","","animation","309","1506139","0.0-309.0","1920x1080","","3552.5999999996275","80.82","img/314/4.5/1.5/bw/001.png","","","interesting"
"","","","","","animation","310","1508527","0.0-310.0","1920x1080","","2386.9000000003725","59.66","img/314/4.5/0.66667/bw/001.png","","","interesting"
"","","","","","animation","311","1511131","0.0-311.0","1920x1080","","2603","66","img/238/4/0.66667/bw/001.png","","","interesting"
"","","","","","animation","312","1515595","0.0-312.0","1920x1080","","4462.600000000559","42.59","img/117/5.5/1.5/bw/001.png","","","interesting"
"","","","","","html-button-response","313","1534123","0.0-313.0","1920x1080","","18526.400000000373","","<div class=""intro"">You are about to view a new series of animations.<br><br></div><div class=""intro"">You will evaluate them based on a different descriptor.<br><br></div><div class=""intro"">Move the slider to indicate how <strong style=""text-transform:capitalize"">RELAXING</strong> you find each animation.<br><br></div><div class=""intro"">0 = Least Relaxing<br></div><div class=""intro"">1 = Most Relaxing<br><br></div><div class=""intro"">Remember to use the <strong><em>entire range</em></strong> of the slider to make your ratings.<br></div><div class=""intro"">Please <strong><em>take your time</em></strong> and carefully consider each rating you make.<br><br></div>","0","",""
"","","","","","call-function","314","1534124","0.0-314.0","1920x1080","","","","","","",""
"","","","","","animation","315","1537311","0.0-315.0","1920x1080","","3186.9000000003725","1.72","img/314/3.5/1.5/bw/001.png","","","relaxing"
"","","","","","animation","316","1539977","0.0-316.0","1920x1080","","2665.0999999996275","4.63","img/117/3.5/0.66667/bw/001.png","","","relaxing"
"","","","","","animation","317","1542131","0.0-317.0","1920x1080","","2152.4000000003725","0","img/117/2.5/2/bw/001.png","","","relaxing"
"","","","","","animation","318","1544781","0.0-318.0","1920x1080","","2648.399999999441","78.97","img/314/5.5/0.66667/bw/001.png","","","relaxing"
"","","","","","animation","319","1549363","0.0-319.0","1920x1080","","4580.5","83.47","img/117/5.5/0.66667/bw/001.png","","","relaxing"
"","","","","","animation","320","1552844","0.0-320.0","1920x1080","","3478.2999999998137","5.82","img/238/3.5/2/bw/001.png","","","relaxing"
"","","","","","animation","321","1556547","0.0-321.0","1920x1080","","3702","100","img/117/5.5/1.5/bw/001.png","","","relaxing"
"","","","","","animation","322","1559258","0.0-322.0","1920x1080","","2711.7000000001863","5.29","img/314/3.5/0.5/bw/001.png","","","relaxing"
"","","","","","animation","323","1561225","0.0-323.0","1920x1080","","1965.5","17.59","img/314/4/1/bw/001.png","","","relaxing"
"","","","","","animation","324","1563808","0.0-324.0","1920x1080","","2582","4.23","img/314/4/0.66667/bw/001.png","","","relaxing"
"","","","","","animation","325","1566564","0.0-325.0","1920x1080","","2755.0999999996275","0.93","img/314/3.5/2/bw/001.png","","","relaxing"
"","","","","","animation","326","1569627","0.0-326.0","1920x1080","","3061.5","0.79","img/117/4/2/bw/001.png","","","relaxing"
"","","","","","animation","327","1573464","0.0-327.0","1920x1080","","3834.899999999441","0.40","img/117/4.5/0.5/bw/001.png","","","relaxing"
"","","","","","animation","328","1575861","0.0-328.0","1920x1080","","2396.2000000001863","5.42","img/117/4/1.5/bw/001.png","","","relaxing"
"","","","","","animation","329","1581009","0.0-329.0","1920x1080","","5146.200000000186","5.69","img/117/4.5/1/bw/001.png","","","relaxing"
"","","","","","animation","330","1591633","0.0-330.0","1920x1080","","10620.899999999441","85.45","img/238/5.5/0.66667/bw/001.png","","","relaxing"
"","","","","","animation","331","1600244","0.0-331.0","1920x1080","","8609.099999999627","5.03","img/238/4/0.66667/bw/001.png","","","relaxing"
"","","","","","animation","332","1607329","0.0-332.0","1920x1080","","7083","15.08","img/314/4.5/1/bw/001.png","","","relaxing"
"","","","","","animation","333","1610912","0.0-333.0","1920x1080","","3581.7000000001863","100","img/314/5.5/1.5/bw/001.png","","","relaxing"
"","","","","","animation","334","1618970","0.0-334.0","1920x1080","","8054.0999999996275","10.19","img/238/4.5/0.66667/bw/001.png","","","relaxing"
"","","","","","animation","335","1622594","0.0-335.0","1920x1080","","3621.7000000001863","0.40","img/238/2.5/0.5/bw/001.png","","","relaxing"
"","","","","","animation","336","1625451","0.0-336.0","1920x1080","","2855.600000000559","0.79","img/314/2.5/0.5/bw/001.png","","","relaxing"
"","","","","","animation","337","1629116","0.0-337.0","1920x1080","","3661.5999999996275","11.64","img/314/4.5/0.66667/bw/001.png","","","relaxing"
"","","","","","animation","338","1635749","0.0-338.0","1920x1080","","6631.5","50.13","img/238/4/2/bw/001.png","","","relaxing"
"","","","","","animation","339","1644160","0.0-339.0","1920x1080","","8409","74.74","img/238/5.5/0.5/bw/001.png","","","relaxing"
"","","","","","animation","340","1649144","0.0-340.0","1920x1080","","4980.799999999814","15.21","img/238/3.5/1/bw/001.png","","","relaxing"
"","","","","","animation","341","1652580","0.0-341.0","1920x1080","","3434.800000000745","5.29","img/314/4/0.5/bw/001.png","","","relaxing"
"","","","","","animation","342","1659727","0.0-342.0","1920x1080","","7143.5","60.05","img/314/4/2/bw/001.png","","","relaxing"
"","","","","","animation","343","1663026","0.0-343.0","1920x1080","","3297.2999999998137","0.93","img/117/2.5/0.66667/bw/001.png","","","relaxing"
"","","","","","animation","344","1668915","0.0-344.0","1920x1080","","5886.5","80.16","img/238/4.5/1.5/bw/001.png","","","relaxing"
"","","","","","animation","345","1671379","0.0-345.0","1920x1080","","2462.2999999998137","0","img/238/2.5/1.5/bw/001.png","","","relaxing"
"","","","","","animation","346","1677131","0.0-346.0","1920x1080","","5750.199999999255","59.66","img/314/4.5/2/bw/001.png","","","relaxing"
"","","","","","animation","347","1687353","0.0-347.0","1920x1080","","10230.299999999814","19.71","img/117/4.5/0.66667/bw/001.png","","","relaxing"
"","","","","","animation","348","1691450","0.0-348.0","1920x1080","","4095.9000000003725","3.44","img/117/3.5/0.5/bw/001.png","","","relaxing"
"","","","","","animation","349","1693875","0.0-349.0","1920x1080","","2423","1.59","img/117/4/0.5/bw/001.png","","","relaxing"
"","","","","","animation","350","1698044","0.0-350.0","1920x1080","","4167.700000000186","50","img/117/5.5/0.5/bw/001.png","","","relaxing"
"","","","","","animation","351","1702302","0.0-351.0","1920x1080","","4256.5","0","img/117/2.5/0.5/bw/001.png","","","relaxing"
"","","","","","animation","352","1706056","0.0-352.0","1920x1080","","3752.7999999998137","92.46","img/314/5.5/1/bw/001.png","","","relaxing"
"","","","","","animation","353","1709334","0.0-353.0","1920x1080","","3275","100","img/117/5.5/2/bw/001.png","","","relaxing"
"","","","","","animation","354","1715137","0.0-354.0","1920x1080","","5802.300000000745","65.08","img/238/4.5/1/bw/001.png","","","relaxing"
"","","","","","animation","355","1719017","0.0-355.0","1920x1080","","3877.9000000003725","100","img/117/5.5/1/bw/001.png","","","relaxing"
"","","","","","animation","356","1725221","0.0-356.0","1920x1080","","6202.5999999996275","0","img/117/2.5/1/bw/001.png","","","relaxing"
"","","","","","animation","357","1731851","0.0-357.0","1920x1080","","6627.300000000745","20.11","img/117/3.5/1.5/bw/001.png","","","relaxing"
"","","","","","animation","358","1738982","0.0-358.0","1920x1080","","7132.799999999814","96","img/238/5.5/2/bw/001.png","","","relaxing"
"","","","","","animation","359","1743898","0.0-359.0","1920x1080","","4913.699999999255","60.45","img/117/4.5/1.5/bw/001.png","","","relaxing"
"","","","","","animation","360","1749814","0.0-360.0","1920x1080","","5914.5999999996275","74.60","img/238/5.5/1/bw/001.png","","","relaxing"
"","","","","","animation","361","1753164","0.0-361.0","1920x1080","","3348.5999999996275","51.32","img/314/4/1.5/bw/001.png","","","relaxing"
"","","","","","animation","362","1755431","0.0-362.0","1920x1080","","2265.5","33.20","img/117/3.5/1/bw/001.png","","","relaxing"
"","","","","","animation","363","1762480","0.0-363.0","1920x1080","","7047.399999999441","20.77","img/238/4/1/bw/001.png","","","relaxing"
"","","","","","animation","364","1767031","0.0-364.0","1920x1080","","4549.4000000003725","0","img/238/3.5/0.5/bw/001.png","","","relaxing"
"","","","","","animation","365","1771631","0.0-365.0","1920x1080","","4598.299999999814","5.29","img/238/2.5/2/bw/001.png","","","relaxing"
"","","","","","animation","366","1775282","0.0-366.0","1920x1080","","3649.399999999441","0.40","img/238/4/0.5/bw/001.png","","","relaxing"
"","","","","","animation","367","1780199","0.0-367.0","1920x1080","","4914.899999999441","1.72","img/314/2.5/2/bw/001.png","","","relaxing"
"","","","","","animation","368","1786753","0.0-368.0","1920x1080","","6552.700000000186","14.81","img/117/3.5/2/bw/001.png","","","relaxing"
"","","","","","animation","369","1791014","0.0-369.0","1920x1080","","4259.0999999996275","0.13","img/314/2.5/1.5/bw/001.png","","","relaxing"
"","","","","","animation","370","1795334","0.0-370.0","1920x1080","","4318.5","51.59","img/238/4/1.5/bw/001.png","","","relaxing"
"","","","","","animation","371","1799660","0.0-371.0","1920x1080","","4311.4000000003725","100","img/314/5.5/2/bw/001.png","","","relaxing"
"","","","","","animation","372","1804304","0.0-372.0","1920x1080","","4642","21.96","img/238/4.5/0.5/bw/001.png","","","relaxing"
"","","","","","animation","373","1807331","0.0-373.0","1920x1080","","3025.5999999996275","0.53","img/314/2.5/0.66667/bw/001.png","","","relaxing"
"","","","","","animation","374","1810040","0.0-374.0","1920x1080","","2707.5999999996275","26.32","img/314/4.5/0.5/bw/001.png","","","relaxing"
"","","","","","animation","375","1815211","0.0-375.0","1920x1080","","5169.5999999996275","51.32","img/238/4.5/2/bw/001.png","","","relaxing"
"","","","","","animation","376","1820143","0.0-376.0","1920x1080","","4931.299999999814","8.33","img/314/4.5/1.5/bw/001.png","","","relaxing"
"","","","","","animation","377","1823794","0.0-377.0","1920x1080","","3649","1.59","img/314/3.5/0.66667/bw/001.png","","","relaxing"
"","","","","","animation","378","1826893","0.0-378.0","1920x1080","","3098.2999999998137","0.40","img/238/2.5/1/bw/001.png","","","relaxing"
"","","","","","animation","379","1829735","0.0-379.0","1920x1080","","2840.2000000001863","19.05","img/117/4/1/bw/001.png","","","relaxing"
"","","","","","animation","380","1831943","0.0-380.0","1920x1080","","2206.5999999996275","3.31","img/117/2.5/1.5/bw/001.png","","","relaxing"
"","","","","","animation","381","1838575","0.0-381.0","1920x1080","","6630.5999999996275","76.19","img/314/5.5/0.5/bw/001.png","","","relaxing"
"","","","","","animation","382","1841811","0.0-382.0","1920x1080","","3233.9000000003725","61.77","img/117/4.5/2/bw/001.png","","","relaxing"
"","","","","","animation","383","1845360","0.0-383.0","1920x1080","","3546.300000000745","30.16","img/314/3.5/1/bw/001.png","","","relaxing"
"","","","","","animation","384","1849179","0.0-384.0","1920x1080","","3816.7999999998137","0.93","img/314/2.5/1/bw/001.png","","","relaxing"
"","","","","","animation","385","1852365","0.0-385.0","1920x1080","","3185.7000000001863","0","img/238/3.5/0.66667/bw/001.png","","","relaxing"
"","","","","","animation","386","1855210","0.0-386.0","1920x1080","","2843.100000000559","0","img/117/4/0.66667/bw/001.png","","","relaxing"
"","","","","","animation","387","1857910","0.0-387.0","1920x1080","","2698.9000000003725","0.53","img/238/2.5/0.66667/bw/001.png","","","relaxing"
"","","","","","animation","388","1861493","0.0-388.0","1920x1080","","3582","99","img/238/5.5/1.5/bw/001.png","","","relaxing"
"","","","","","animation","389","1864710","0.0-389.0","1920x1080","","3215.9000000003725","16.27","img/238/3.5/1.5/bw/001.png","","","relaxing"
"","","","","","html-button-response","390","1912551","0.0-390.0","1920x1080","","47838.799999999814","","<strong>Study Debriefing</strong><br><p class=""debrief""><strong>Background:</strong> The patterns you rated are called <em>fractals</em>. The term fractal describes a class of irregular curves or shapes for which any suitably chosen part is similar in shape to a given larger or smaller part when magnified or reduced to the same size. Fractal properties are found throughout the natural and manmade world. The series of animations you saw today displayed animated fractal patterns of a varying complexity.</p><p class=""debrief""><strong>Purpose of this study:</strong> We hope to better understand how the perception of static fractals differs from the perception of animated fractals, and how the speed of the animated patterns influences people&apos;s perception of them. Fractals allow us to study the perception of aesthetic properties (e.g. the perceived level of beauty in an image) without using recognizable content, which makes them an excellent tool for studying abstract aesthetic judgement.</p><p class=""debrief""><strong>Your part:</strong> Your participation has helped us to further understand how humans perceive these patterns across different levels of speed and complexity. This research with allow us to better understand how the visual system and brain process our ever-changing visual environments.<p class=""debrief""><strong>Feedback and Further information:</strong> If you have additional questions about this study, please feel free to ask the researcher, Nathan Gonzales-Hess at nhess @ uoregon.edu. If you have any questions concerning your rights as a research participant, please contact Research Compliance Services, 5237 University of Oregon, Eugene, OR 97403, 541-346-2510, or email researchCompliance @ uoregon.edu. You can also email the Human Subjects Coordinator for psychology and linguistics research at hscoord @ uoregon.edu. ","0","",""
"","","","","","html-button-response","391","1918516","0.0-391.0","1920x1080","","5961.5999999996275","","Thank you for participating in this study. <br>Please click below to finish the experiment and submit your responses.<br><br>","0","",""
"true","","","","","fullscreen","392","1919528","0.0-392.0","1920x1080","12:18 28/10/2022","","","","","",""
