"success","timeout","failed_images","failed_audio","failed_video","trial_type","trial_index","time_elapsed","internal_node_id","resolution","timeStamp","rt","response","stimulus","button_pressed","value","descriptor"
"true","false","[]","[]","[]","preload","0","28466","0.0-0.0","1920x1080","","","","","","",""
"true","false","[]","[]","[]","preload","1","78528","0.0-1.0","1920x1080","","","","","","",""
"true","false","[]","[]","[]","preload","2","109978","0.0-2.0","1920x1080","","","","","","",""
"true","","","","","fullscreen","3","380727","0.0-3.0","1920x1080","10:6 12/10/2022","","","","","",""
"","","","","","survey-html-form","4","385032","0.0-4.0","1920x1080","","4301.399999976158","{""age"":""18"",""gender"":""Male""}","","","",""
"","","","","","html-button-response","5","444560","0.0-5.0","1920x1080","","59527.30000001192","","<div class=""complex"">You are going to see a series of animations.<br><br></div><div class=""complex"">Move the slider to indicate how <strong style=""text-transform:capitalize"">COMPLEX</strong> you find each animation.<br><br></div><div class=""complex"">0 = Least Complex<br></div><div class=""complex"">1 = Most Complex<br><br></div><div class=""complex"">Remember to use the <strong><em>entire range</em></strong> of the slider to make your ratings.<br></div><div class=""complex"">Please <strong><em>take your time</em></strong> and carefully consider each rating you make.<br><br></div><div class=""complex"">The study has five sections and will take about 45 minutes to complete.<br><br></div>","0","",""
"","","","","","call-function","6","444560","0.0-6.0","1920x1080","","","","","","",""
"","","","","","animation","7","530927","0.0-7.0","1920x1080","","86364.39999997616","35","img/238/2.5/2/bw/001.png","","","complex"
"","","","","","animation","8","553551","0.0-8.0","1920x1080","","22621.399999976158","20","img/117/3.5/0.5/bw/001.png","","","complex"
"","","","","","animation","9","562348","0.0-9.0","1920x1080","","8799","10.05","img/314/4/1.5/bw/001.png","","","complex"
"","","","","","animation","10","577885","0.0-10.0","1920x1080","","15535.300000011921","8.07","img/314/4.5/1/bw/001.png","","","complex"
"","","","","","animation","11","598612","0.0-11.0","1920x1080","","20726.80000001192","48.41","img/117/2.5/1/bw/001.png","","","complex"
"","","","","","animation","12","635467","0.0-12.0","1920x1080","","36854.80000001192","38.89","img/314/2.5/2/bw/001.png","","","complex"
"","","","","","animation","13","655403","0.0-13.0","1920x1080","","19935.400000035763","22.22","img/238/3.5/1/bw/001.png","","","complex"
"","","","","","animation","14","661659","0.0-14.0","1920x1080","","6255.699999988079","18.25","img/238/3.5/1.5/bw/001.png","","","complex"
"","","","","","animation","15","672851","0.0-15.0","1920x1080","","11190.600000023842","10.71","img/238/4.5/1.5/bw/001.png","","","complex"
"","","","","","animation","16","687727","0.0-16.0","1920x1080","","14871","27.91","img/117/3.5/2/bw/001.png","","","complex"
"","","","","","animation","17","709967","0.0-17.0","1920x1080","","22238.599999964237","5","img/238/5.5/1/bw/001.png","","","complex"
"","","","","","animation","18","728911","0.0-18.0","1920x1080","","18943.30000001192","60","img/314/2.5/0.66667/bw/001.png","","","complex"
"","","","","","animation","19","756312","0.0-19.0","1920x1080","","27399","28.97","img/117/3.5/1/bw/001.png","","","complex"
"","","","","","animation","20","764615","0.0-20.0","1920x1080","","8302.699999988079","7.01","img/314/5.5/1.5/bw/001.png","","","complex"
"","","","","","animation","21","793864","0.0-21.0","1920x1080","","29248.5","28.44","img/117/4/0.66667/bw/001.png","","","complex"
"","","","","","animation","22","799968","0.0-22.0","1920x1080","","6101.899999976158","26.32","img/117/4.5/0.5/bw/001.png","","","complex"
"","","","","","animation","23","837768","0.0-23.0","1920x1080","","37799.30000001192","69.97","img/238/3.5/0.5/bw/001.png","","","complex"
"","","","","","animation","24","863132","0.0-24.0","1920x1080","","25367.19999998808","24.87","img/117/4/1/bw/001.png","","","complex"
"","","","","","animation","25","901308","0.0-25.0","1920x1080","","38175.19999998808","23.94","img/314/4/1/bw/001.png","","","complex"
"","","","","","animation","26","934701","0.0-26.0","1920x1080","","33399.10000002384","67.59","img/314/2.5/1/bw/001.png","","","complex"
"","","","","","animation","27","965533","0.0-27.0","1920x1080","","30830.899999976158","23.81","img/314/4/2/bw/001.png","","","complex"
"","","","","","animation","28","973037","0.0-28.0","1920x1080","","7502.900000035763","18.12","img/238/4/1.5/bw/001.png","","","complex"
"","","","","","animation","29","983445","0.0-29.0","1920x1080","","10400","7.67","img/238/5.5/0.66667/bw/001.png","","","complex"
"","","","","","animation","30","994180","0.0-30.0","1920x1080","","10734.100000023842","56","img/117/4/0.5/bw/001.png","","","complex"
"","","","","","animation","31","1034469","0.0-31.0","1920x1080","","40287.5","10.05","img/117/5.5/0.66667/bw/001.png","","","complex"
"","","","","","animation","32","1056543","0.0-32.0","1920x1080","","22071.19999998808","21","img/314/4.5/0.66667/bw/001.png","","","complex"
"","","","","","animation","33","1076375","0.0-33.0","1920x1080","","19831.100000023842","16.40","img/117/5.5/0.5/bw/001.png","","","complex"
"","","","","","animation","34","1086350","0.0-34.0","1920x1080","","9972.100000023842","30.95","img/238/4/2/bw/001.png","","","complex"
"","","","","","animation","35","1095847","0.0-35.0","1920x1080","","9495.699999988079","19.31","img/314/5.5/0.66667/bw/001.png","","","complex"
"","","","","","animation","36","1117230","0.0-36.0","1920x1080","","21382.5","52.78","img/238/2.5/1/bw/001.png","","","complex"
"","","","","","animation","37","1122422","0.0-37.0","1920x1080","","5191.800000011921","46.96","img/117/2.5/2/bw/001.png","","","complex"
"","","","","","animation","38","1126286","0.0-38.0","1920x1080","","3863","50.93","img/238/2.5/1.5/bw/001.png","","","complex"
"","","","","","animation","39","1151886","0.0-39.0","1920x1080","","25599.30000001192","10.58","img/238/4.5/1/bw/001.png","","","complex"
"","","","","","animation","40","1169062","0.0-40.0","1920x1080","","17175.5","44","img/314/3.5/0.5/bw/001.png","","","complex"
"","","","","","animation","41","1179557","0.0-41.0","1920x1080","","10494.800000011921","71","img/314/2.5/0.5/bw/001.png","","","complex"
"","","","","","animation","42","1189711","0.0-42.0","1920x1080","","10153.100000023842","4","img/238/5.5/2/bw/001.png","","","complex"
"","","","","","animation","43","1227440","0.0-43.0","1920x1080","","37725.200000047684","46.56","img/117/3.5/0.66667/bw/001.png","","","complex"
"","","","","","animation","44","1233056","0.0-44.0","1920x1080","","5615","21.83","img/117/4.5/1/bw/001.png","","","complex"
"","","","","","animation","45","1243081","0.0-45.0","1920x1080","","10024","21","img/117/4.5/0.66667/bw/001.png","","","complex"
"","","","","","animation","46","1247481","0.0-46.0","1920x1080","","4399.400000035763","22.75","img/238/4/0.5/bw/001.png","","","complex"
"","","","","","animation","47","1255481","0.0-47.0","1920x1080","","7999.199999988079","14.29","img/314/5.5/0.5/bw/001.png","","","complex"
"","","","","","animation","48","1263352","0.0-48.0","1920x1080","","7869.700000047684","39.29","img/314/3.5/1/bw/001.png","","","complex"
"","","","","","animation","49","1297097","0.0-49.0","1920x1080","","33751.19999998808","33.47","img/314/4/0.5/bw/001.png","","","complex"
"","","","","","animation","50","1306290","0.0-50.0","1920x1080","","9192.600000023842","66.27","img/117/2.5/0.66667/bw/001.png","","","complex"
"","","","","","animation","51","1325465","0.0-51.0","1920x1080","","19173.69999998808","16","img/238/4.5/2/bw/001.png","","","complex"
"","","","","","animation","52","1343189","0.0-52.0","1920x1080","","17719.299999952316","48","img/117/3.5/1.5/bw/001.png","","","complex"
"","","","","","animation","53","1348749","0.0-53.0","1920x1080","","5558.600000023842","55.69","img/314/3.5/0.66667/bw/001.png","","","complex"
"","","","","","animation","54","1360701","0.0-54.0","1920x1080","","11951.199999988079","11.24","img/238/5.5/0.5/bw/001.png","","","complex"
"","","","","","animation","55","1402648","0.0-55.0","1920x1080","","41950.59999996424","61.38","img/314/2.5/1.5/bw/001.png","","","complex"
"","","","","","animation","56","1418807","0.0-56.0","1920x1080","","16158.799999952316","46.96","img/314/3.5/1.5/bw/001.png","","","complex"
"","","","","","animation","57","1432232","0.0-57.0","1920x1080","","13423.5","16","img/314/4.5/1.5/bw/001.png","","","complex"
"","","","","","animation","58","1446111","0.0-58.0","1920x1080","","13878.5","80.16","img/117/2.5/0.5/bw/001.png","","","complex"
"","","","","","animation","59","1505917","0.0-59.0","1920x1080","","59797.90000003576","66.40","img/117/2.5/1.5/bw/001.png","","","complex"
"","","","","","animation","60","1516365","0.0-60.0","1920x1080","","10447.200000047684","21","img/314/4/0.66667/bw/001.png","","","complex"
"","","","","","animation","61","1521066","0.0-61.0","1920x1080","","4703.100000023842","11.11","img/314/4.5/2/bw/001.png","","","complex"
"","","","","","animation","62","1525826","0.0-62.0","1920x1080","","4758.600000023842","7.94","img/117/5.5/1/bw/001.png","","","complex"
"","","","","","animation","63","1540362","0.0-63.0","1920x1080","","14535.300000011921","71.43","img/238/2.5/0.5/bw/001.png","","","complex"
"","","","","","animation","64","1553314","0.0-64.0","1920x1080","","12950.300000011921","61.24","img/238/2.5/0.66667/bw/001.png","","","complex"
"","","","","","animation","65","1567202","0.0-65.0","1920x1080","","13887.400000035763","22.88","img/238/4/0.66667/bw/001.png","","","complex"
"","","","","","animation","66","1575675","0.0-66.0","1920x1080","","8471.899999976158","5","img/238/5.5/1.5/bw/001.png","","","complex"
"","","","","","animation","67","1604479","0.0-67.0","1920x1080","","28805.799999952316","12.96","img/117/4.5/2/bw/001.png","","","complex"
"","","","","","animation","68","1634999","0.0-68.0","1920x1080","","30516.69999998808","31.75","img/238/3.5/2/bw/001.png","","","complex"
"","","","","","animation","69","1642868","0.0-69.0","1920x1080","","7862.800000011921","10.85","img/117/5.5/1.5/bw/001.png","","","complex"
"","","","","","animation","70","1656884","0.0-70.0","1920x1080","","14014.800000011921","27.91","img/238/4.5/0.5/bw/001.png","","","complex"
"","","","","","animation","71","1662052","0.0-71.0","1920x1080","","5166.899999976158","29.37","img/117/4/1.5/bw/001.png","","","complex"
"","","","","","animation","72","1665396","0.0-72.0","1920x1080","","3342.7000000476837","23.54","img/117/4/2/bw/001.png","","","complex"
"","","","","","animation","73","1669052","0.0-73.0","1920x1080","","3655.5","34.26","img/314/4.5/0.5/bw/001.png","","","complex"
"","","","","","animation","74","1673293","0.0-74.0","1920x1080","","4240.300000011921","43.12","img/238/3.5/0.66667/bw/001.png","","","complex"
"","","","","","animation","75","1678684","0.0-75.0","1920x1080","","5389.899999976158","13.23","img/314/5.5/1/bw/001.png","","","complex"
"","","","","","animation","76","1684884","0.0-76.0","1920x1080","","6199.199999988079","37.04","img/314/3.5/2/bw/001.png","","","complex"
"","","","","","animation","77","1692964","0.0-77.0","1920x1080","","8078.600000023842","13.49","img/117/5.5/2/bw/001.png","","","complex"
"","","","","","animation","78","1716715","0.0-78.0","1920x1080","","23751.19999998808","28.31","img/117/4.5/1.5/bw/001.png","","","complex"
"","","","","","animation","79","1721283","0.0-79.0","1920x1080","","4563.600000023842","33.20","img/238/4/1/bw/001.png","","","complex"
"","","","","","animation","80","1723827","0.0-80.0","1920x1080","","2541.600000023842","30.56","img/238/4.5/0.66667/bw/001.png","","","complex"
"","","","","","animation","81","1729611","0.0-81.0","1920x1080","","5783","5","img/314/5.5/2/bw/001.png","","","complex"
"","","","","","html-button-response","82","1751180","0.0-82.0","1920x1080","","21567.19999998808","","<div class=""intro"">You are about to view a new series of animations.<br><br></div><div class=""intro"">You will evaluate them based on a different descriptor.<br><br></div><div class=""intro"">Move the slider to indicate how <strong style=""text-transform:capitalize"">INTERESTING</strong> you find each animation.<br><br></div><div class=""intro"">0 = Least Interesting<br></div><div class=""intro"">1 = Most Interesting<br><br></div><div class=""intro"">Remember to use the <strong><em>entire range</em></strong> of the slider to make your ratings.<br></div><div class=""intro"">Please <strong><em>take your time</em></strong> and carefully consider each rating you make.<br><br></div>","0","",""
"","","","","","call-function","83","1751181","0.0-83.0","1920x1080","","","","","","",""
"","","","","","animation","84","1769888","0.0-84.0","1920x1080","","18701.599999964237","75","img/314/5.5/0.5/bw/001.png","","","interesting"
"","","","","","animation","85","1774176","0.0-85.0","1920x1080","","4285.699999988079","68","img/314/5.5/1/bw/001.png","","","interesting"
"","","","","","animation","86","1789736","0.0-86.0","1920x1080","","15558.5","81.48","img/314/2.5/2/bw/001.png","","","interesting"
"","","","","","animation","87","1798768","0.0-87.0","1920x1080","","9031.100000023842","66.01","img/314/2.5/0.5/bw/001.png","","","interesting"
"","","","","","animation","88","1811400","0.0-88.0","1920x1080","","12630.899999976158","19","img/314/5.5/2/bw/001.png","","","interesting"
"","","","","","animation","89","1824498","0.0-89.0","1920x1080","","13103.400000035763","18","img/117/2.5/0.5/bw/001.png","","","interesting"
"","","","","","animation","90","1834857","0.0-90.0","1920x1080","","10358.300000011921","59.26","img/238/4.5/1.5/bw/001.png","","","interesting"
"","","","","","animation","91","1854746","0.0-91.0","1920x1080","","19887.599999964237","60.05","img/238/2.5/1.5/bw/001.png","","","interesting"
"","","","","","animation","92","1868785","0.0-92.0","1920x1080","","14038.5","77.25","img/117/5.5/2/bw/001.png","","","interesting"
"","","","","","animation","93","1886439","0.0-93.0","1920x1080","","17655.200000047684","55.29","img/314/2.5/0.66667/bw/001.png","","","interesting"
"","","","","","animation","94","1909495","0.0-94.0","1920x1080","","23055.100000023842","39.81","img/314/2.5/1.5/bw/001.png","","","interesting"
"","","","","","animation","95","1913520","0.0-95.0","1920x1080","","4024.099999964237","62.83","img/117/4.5/2/bw/001.png","","","interesting"
"","","","","","animation","96","1920215","0.0-96.0","1920x1080","","6694.599999964237","13.49","img/314/3.5/0.66667/bw/001.png","","","interesting"
"","","","","","animation","97","1926159","0.0-97.0","1920x1080","","5942.400000035763","59.66","img/314/4.5/2/bw/001.png","","","interesting"
"","","","","","animation","98","1932879","0.0-98.0","1920x1080","","6718.900000035763","48.15","img/314/4.5/0.66667/bw/001.png","","","interesting"
"","","","","","animation","99","1947916","0.0-99.0","1920x1080","","15031","69.58","img/117/5.5/1.5/bw/001.png","","","interesting"
"","","","","","animation","100","1969092","0.0-100.0","1920x1080","","21174.100000023842","32.28","img/117/4/2/bw/001.png","","","interesting"
"","","","","","animation","101","1972796","0.0-101.0","1920x1080","","3703.2999999523163","28.57","img/314/3.5/2/bw/001.png","","","interesting"
"","","","","","animation","102","1978404","0.0-102.0","1920x1080","","5607.300000011921","23","img/117/3.5/0.66667/bw/001.png","","","interesting"
"","","","","","animation","103","1985236","0.0-103.0","1920x1080","","6831","23.54","img/238/4/0.5/bw/001.png","","","interesting"
"","","","","","animation","104","2014518","0.0-104.0","1920x1080","","29279.100000023842","46","img/314/4.5/1/bw/001.png","","","interesting"
"","","","","","animation","105","2031960","0.0-105.0","1920x1080","","17441.700000047684","32.28","img/117/4/1.5/bw/001.png","","","interesting"
"","","","","","animation","106","2034213","0.0-106.0","1920x1080","","2252.5","51.46","img/117/5.5/1/bw/001.png","","","interesting"
"","","","","","animation","107","2052397","0.0-107.0","1920x1080","","18183","57.14","img/314/4/0.66667/bw/001.png","","","interesting"
"","","","","","animation","108","2065204","0.0-108.0","1920x1080","","12807.399999976158","33.33","img/314/5.5/0.66667/bw/001.png","","","interesting"
"","","","","","animation","109","2080748","0.0-109.0","1920x1080","","15542.800000011921","53","img/238/5.5/0.5/bw/001.png","","","interesting"
"","","","","","animation","110","2083364","0.0-110.0","1920x1080","","2614.699999988079","32.94","img/238/4/1.5/bw/001.png","","","interesting"
"","","","","","animation","111","2089628","0.0-111.0","1920x1080","","6263","29.50","img/238/4.5/2/bw/001.png","","","interesting"
"","","","","","animation","112","2093243","0.0-112.0","1920x1080","","3614.5","25.13","img/238/4/1/bw/001.png","","","interesting"
"","","","","","animation","113","2097592","0.0-113.0","1920x1080","","4348.099999964237","22","img/117/2.5/0.66667/bw/001.png","","","interesting"
"","","","","","animation","114","2102796","0.0-114.0","1920x1080","","5202.699999988079","16.27","img/238/3.5/0.66667/bw/001.png","","","interesting"
"","","","","","animation","115","2108142","0.0-115.0","1920x1080","","5345.099999964237","10.71","img/314/4/1/bw/001.png","","","interesting"
"","","","","","animation","116","2116859","0.0-116.0","1920x1080","","8716.600000023842","45","img/117/5.5/0.5/bw/001.png","","","interesting"
"","","","","","animation","117","2124418","0.0-117.0","1920x1080","","7559.5","34","img/238/5.5/0.66667/bw/001.png","","","interesting"
"","","","","","animation","118","2137146","0.0-118.0","1920x1080","","12726.900000035763","14","img/117/3.5/0.5/bw/001.png","","","interesting"
"","","","","","animation","119","2158474","0.0-119.0","1920x1080","","21326.5","30.16","img/314/4/2/bw/001.png","","","interesting"
"","","","","","animation","120","2163626","0.0-120.0","1920x1080","","5151.100000023842","22","img/117/4/0.66667/bw/001.png","","","interesting"
"","","","","","animation","121","2170466","0.0-121.0","1920x1080","","6839.099999964237","47.88","img/117/4/0.5/bw/001.png","","","interesting"
"","","","","","animation","122","2181966","0.0-122.0","1920x1080","","11494.800000011921","37","img/238/4/0.66667/bw/001.png","","","interesting"
"","","","","","animation","123","2185079","0.0-123.0","1920x1080","","3111.2999999523163","50.79","img/314/2.5/1/bw/001.png","","","interesting"
"","","","","","animation","124","2187918","0.0-124.0","1920x1080","","2838.199999988079","53.70","img/117/4.5/1.5/bw/001.png","","","interesting"
"","","","","","animation","125","2192934","0.0-125.0","1920x1080","","5015.099999964237","61.38","img/117/5.5/0.66667/bw/001.png","","","interesting"
"","","","","","animation","126","2210134","0.0-126.0","1920x1080","","17199","35.19","img/238/5.5/1.5/bw/001.png","","","interesting"
"","","","","","animation","127","2217445","0.0-127.0","1920x1080","","7310.699999988079","15.08","img/238/2.5/0.66667/bw/001.png","","","interesting"
"","","","","","animation","128","2227150","0.0-128.0","1920x1080","","9702.599999964237","30.56","img/314/4/1.5/bw/001.png","","","interesting"
"","","","","","animation","129","2231198","0.0-129.0","1920x1080","","4046.2999999523163","23","img/238/4.5/0.66667/bw/001.png","","","interesting"
"","","","","","animation","130","2265125","0.0-130.0","1920x1080","","33927.5","35.19","img/117/4/1/bw/001.png","","","interesting"
"","","","","","animation","131","2272117","0.0-131.0","1920x1080","","6990.300000011921","47.22","img/314/4.5/1.5/bw/001.png","","","interesting"
"","","","","","animation","132","2298838","0.0-132.0","1920x1080","","26719.19999998808","41.40","img/314/4.5/0.5/bw/001.png","","","interesting"
"","","","","","animation","133","2307734","0.0-133.0","1920x1080","","8894.5","37.43","img/238/4/2/bw/001.png","","","interesting"
"","","","","","animation","134","2316479","0.0-134.0","1920x1080","","8742.200000047684","30.29","img/117/3.5/2/bw/001.png","","","interesting"
"","","","","","animation","135","2327966","0.0-135.0","1920x1080","","11486.100000023842","56.48","img/117/2.5/1.5/bw/001.png","","","interesting"
"","","","","","animation","136","2335838","0.0-136.0","1920x1080","","7870.5","34.92","img/117/4.5/0.5/bw/001.png","","","interesting"
"","","","","","animation","137","2344077","0.0-137.0","1920x1080","","8238.400000035763","57.54","img/238/5.5/1/bw/001.png","","","interesting"
"","","","","","animation","138","2363316","0.0-138.0","1920x1080","","19239.399999976158","34.92","img/314/3.5/1/bw/001.png","","","interesting"
"","","","","","animation","139","2380052","0.0-139.0","1920x1080","","16735","55.56","img/314/3.5/0.5/bw/001.png","","","interesting"
"","","","","","animation","140","2383508","0.0-140.0","1920x1080","","3454.399999976158","40.61","img/238/2.5/2/bw/001.png","","","interesting"
"","","","","","animation","141","2385780","0.0-141.0","1920x1080","","2271.300000011921","37.96","img/314/4/0.5/bw/001.png","","","interesting"
"","","","","","animation","142","2389292","0.0-142.0","1920x1080","","3510.5","57","img/238/4.5/0.5/bw/001.png","","","interesting"
"","","","","","animation","143","2392564","0.0-143.0","1920x1080","","3271.5","33","img/238/3.5/1.5/bw/001.png","","","interesting"
"","","","","","animation","144","2397575","0.0-144.0","1920x1080","","5010.300000011921","22.75","img/117/4.5/1/bw/001.png","","","interesting"
"","","","","","animation","145","2401180","0.0-145.0","1920x1080","","3603.699999988079","18.78","img/238/5.5/2/bw/001.png","","","interesting"
"","","","","","animation","146","2411412","0.0-146.0","1920x1080","","10231.099999964237","55.69","img/117/3.5/1/bw/001.png","","","interesting"
"","","","","","animation","147","2414643","0.0-147.0","1920x1080","","3230.600000023842","54.63","img/314/5.5/1.5/bw/001.png","","","interesting"
"","","","","","animation","148","2420441","0.0-148.0","1920x1080","","5799.199999988079","30.29","img/238/3.5/0.5/bw/001.png","","","interesting"
"","","","","","animation","149","2423222","0.0-149.0","1920x1080","","2779.899999976158","18.52","img/238/3.5/2/bw/001.png","","","interesting"
"","","","","","animation","150","2425338","0.0-150.0","1920x1080","","2115.800000011921","21.30","img/238/2.5/0.5/bw/001.png","","","interesting"
"","","","","","animation","151","2428505","0.0-151.0","1920x1080","","3165.800000011921","21.96","img/117/3.5/1.5/bw/001.png","","","interesting"
"","","","","","animation","152","2431049","0.0-152.0","1920x1080","","2543.199999988079","15.48","img/238/4.5/1/bw/001.png","","","interesting"
"","","","","","animation","153","2433081","0.0-153.0","1920x1080","","2031.2999999523163","28.97","img/117/2.5/1/bw/001.png","","","interesting"
"","","","","","animation","154","2436355","0.0-154.0","1920x1080","","3272.800000011921","51.98","img/314/3.5/1.5/bw/001.png","","","interesting"
"","","","","","animation","155","2438609","0.0-155.0","1920x1080","","2253","25.93","img/238/2.5/1/bw/001.png","","","interesting"
"","","","","","animation","156","2451755","0.0-156.0","1920x1080","","13145.800000011921","28.17","img/238/3.5/1/bw/001.png","","","interesting"
"","","","","","animation","157","2455945","0.0-157.0","1920x1080","","4187.300000011921","69.84","img/117/4.5/0.66667/bw/001.png","","","interesting"
"","","","","","animation","158","2459425","0.0-158.0","1920x1080","","3478.2999999523163","44.97","img/117/2.5/2/bw/001.png","","","interesting"
"","","","","","html-button-response","159","2479274","0.0-159.0","1920x1080","","19839.30000001192","","<div class=""intro"">You are about to view a new series of animations.<br><br></div><div class=""intro"">You will evaluate them based on a different descriptor.<br><br></div><div class=""intro"">Move the slider to indicate how <strong style=""text-transform:capitalize"">APPEALING</strong> you find each animation.<br><br></div><div class=""intro"">0 = Least Appealing<br></div><div class=""intro"">1 = Most Appealing<br><br></div><div class=""intro"">Remember to use the <strong><em>entire range</em></strong> of the slider to make your ratings.<br></div><div class=""intro"">Please <strong><em>take your time</em></strong> and carefully consider each rating you make.<br><br></div>","0","",""
"","","","","","call-function","160","2479275","0.0-160.0","1920x1080","","","","","","",""
"","","","","","animation","161","2496914","0.0-161.0","1920x1080","","17639","12.04","img/314/4.5/2/bw/001.png","","","appealing"
"","","","","","animation","162","2500353","0.0-162.0","1920x1080","","3433.900000035763","16.14","img/117/5.5/0.66667/bw/001.png","","","appealing"
"","","","","","animation","163","2501905","0.0-163.0","1920x1080","","1550.800000011921","19.71","img/238/4.5/0.5/bw/001.png","","","appealing"
"","","","","","animation","164","2503980","0.0-164.0","1920x1080","","2073.5","15.48","img/314/3.5/1.5/bw/001.png","","","appealing"
"","","","","","animation","165","2506530","0.0-165.0","1920x1080","","2549.099999964237","16.14","img/117/3.5/1/bw/001.png","","","appealing"
"","","","","","animation","166","2510537","0.0-166.0","1920x1080","","4006.199999988079","10.98","img/314/3.5/2/bw/001.png","","","appealing"
"","","","","","animation","167","2512249","0.0-167.0","1920x1080","","1710.5","15.74","img/238/3.5/0.66667/bw/001.png","","","appealing"
"","","","","","animation","168","2515730","0.0-168.0","1920x1080","","3480.199999988079","27","img/238/5.5/2/bw/001.png","","","appealing"
"","","","","","animation","169","2518830","0.0-169.0","1920x1080","","3098.600000023842","17.33","img/238/4/0.66667/bw/001.png","","","appealing"
"","","","","","animation","170","2527446","0.0-170.0","1920x1080","","8614.5","6","img/238/2.5/0.5/bw/001.png","","","appealing"
"","","","","","animation","171","2531385","0.0-171.0","1920x1080","","3938.099999964237","45.50","img/314/4.5/1.5/bw/001.png","","","appealing"
"","","","","","animation","172","2533297","0.0-172.0","1920x1080","","1910.5","20.50","img/117/2.5/0.5/bw/001.png","","","appealing"
"","","","","","animation","173","2536547","0.0-173.0","1920x1080","","3249.199999988079","53.04","img/117/4/0.66667/bw/001.png","","","appealing"
"","","","","","animation","174","2547140","0.0-174.0","1920x1080","","10598.600000023842","14.95","img/117/4/1.5/bw/001.png","","","appealing"
"","","","","","animation","175","2556250","0.0-175.0","1920x1080","","9106.300000011921","14","img/117/4/1/bw/001.png","","","appealing"
"","","","","","animation","176","2559739","0.0-176.0","1920x1080","","3487.5","48.68","img/238/5.5/0.66667/bw/001.png","","","appealing"
"","","","","","animation","177","2561058","0.0-177.0","1920x1080","","1318.199999988079","17.46","img/117/4.5/0.66667/bw/001.png","","","appealing"
"","","","","","animation","178","2566258","0.0-178.0","1920x1080","","5199.099999964237","14.68","img/238/4.5/1/bw/001.png","","","appealing"
"","","","","","animation","179","2575523","0.0-179.0","1920x1080","","9262.699999988079","18.12","img/238/4/0.5/bw/001.png","","","appealing"
"","","","","","animation","180","2589490","0.0-180.0","1920x1080","","13961.900000035763","18.12","img/314/4/1.5/bw/001.png","","","appealing"
"","","","","","animation","181","2598378","0.0-181.0","1920x1080","","8887","29.10","img/238/4.5/1.5/bw/001.png","","","appealing"
"","","","","","animation","182","2602525","0.0-182.0","1920x1080","","4143.899999976158","7","img/238/3.5/1.5/bw/001.png","","","appealing"
"","","","","","animation","183","2603892","0.0-183.0","1920x1080","","1365.9000000357628","29.50","img/238/4.5/2/bw/001.png","","","appealing"
"","","","","","animation","184","2605591","0.0-184.0","1920x1080","","1698.699999988079","6.75","img/117/2.5/2/bw/001.png","","","appealing"
"","","","","","animation","185","2608180","0.0-185.0","1920x1080","","2588.600000023842","1.98","img/314/3.5/0.66667/bw/001.png","","","appealing"
"","","","","","animation","186","2610468","0.0-186.0","1920x1080","","2285.599999964237","35.98","img/238/4/2/bw/001.png","","","appealing"
"","","","","","animation","187","2612575","0.0-187.0","1920x1080","","2105.899999976158","38","img/117/4.5/1.5/bw/001.png","","","appealing"
"","","","","","animation","188","2614625","0.0-188.0","1920x1080","","2049","46.30","img/117/5.5/1.5/bw/001.png","","","appealing"
"","","","","","animation","189","2616132","0.0-189.0","1920x1080","","1506.199999988079","21.83","img/238/3.5/0.5/bw/001.png","","","appealing"
"","","","","","animation","190","2618825","0.0-190.0","1920x1080","","2691.800000011921","6.88","img/314/2.5/0.66667/bw/001.png","","","appealing"
"","","","","","animation","191","2620991","0.0-191.0","1920x1080","","2165.199999988079","4","img/314/2.5/1.5/bw/001.png","","","appealing"
"","","","","","animation","192","2624452","0.0-192.0","1920x1080","","3460","34.79","img/117/4.5/1/bw/001.png","","","appealing"
"","","","","","animation","193","2626891","0.0-193.0","1920x1080","","2438.5","38.36","img/238/4/1.5/bw/001.png","","","appealing"
"","","","","","animation","194","2628732","0.0-194.0","1920x1080","","1839.5999999642372","21.83","img/314/4/1/bw/001.png","","","appealing"
"","","","","","animation","195","2630625","0.0-195.0","1920x1080","","1892.3999999761581","54.89","img/117/5.5/1/bw/001.png","","","appealing"
"","","","","","animation","196","2632332","0.0-196.0","1920x1080","","1705.8999999761581","27.91","img/238/4/1/bw/001.png","","","appealing"
"","","","","","animation","197","2633958","0.0-197.0","1920x1080","","1625","20.90","img/238/3.5/1/bw/001.png","","","appealing"
"","","","","","animation","198","2635525","0.0-198.0","1920x1080","","1566.4000000357628","60.45","img/314/5.5/0.66667/bw/001.png","","","appealing"
"","","","","","animation","199","2637516","0.0-199.0","1920x1080","","1990.0999999642372","25.40","img/117/3.5/1.5/bw/001.png","","","appealing"
"","","","","","animation","200","2639660","0.0-200.0","1920x1080","","2142.699999988079","8","img/117/3.5/0.5/bw/001.png","","","appealing"
"","","","","","animation","201","2642592","0.0-201.0","1920x1080","","2931.600000023842","17","img/314/3.5/1/bw/001.png","","","appealing"
"","","","","","animation","202","2644716","0.0-202.0","1920x1080","","2122.399999976158","2.38","img/238/2.5/1/bw/001.png","","","appealing"
"","","","","","animation","203","2646459","0.0-203.0","1920x1080","","1742.5999999642372","9.26","img/117/3.5/0.66667/bw/001.png","","","appealing"
"","","","","","animation","204","2649516","0.0-204.0","1920x1080","","3055.400000035763","27","img/117/4/2/bw/001.png","","","appealing"
"","","","","","animation","205","2652008","0.0-205.0","1920x1080","","2491.099999964237","11","img/117/2.5/1/bw/001.png","","","appealing"
"","","","","","animation","206","2653396","0.0-206.0","1920x1080","","1386.800000011921","41.40","img/314/5.5/0.5/bw/001.png","","","appealing"
"","","","","","animation","207","2654827","0.0-207.0","1920x1080","","1430.699999988079","46.83","img/117/5.5/2/bw/001.png","","","appealing"
"","","","","","animation","208","2657700","0.0-208.0","1920x1080","","2871.599999964237","6.88","img/314/2.5/1/bw/001.png","","","appealing"
"","","","","","animation","209","2659774","0.0-209.0","1920x1080","","2074.399999976158","58.07","img/117/5.5/0.5/bw/001.png","","","appealing"
"","","","","","animation","210","2661642","0.0-210.0","1920x1080","","1867.5","32.94","img/117/4/0.5/bw/001.png","","","appealing"
"","","","","","animation","211","2663490","0.0-211.0","1920x1080","","1846.9000000357628","63.76","img/314/5.5/1.5/bw/001.png","","","appealing"
"","","","","","animation","212","2665978","0.0-212.0","1920x1080","","2487.7000000476837","45","img/117/4.5/0.5/bw/001.png","","","appealing"
"","","","","","animation","213","2668314","0.0-213.0","1920x1080","","2334.800000011921","0.93","img/117/2.5/0.66667/bw/001.png","","","appealing"
"","","","","","animation","214","2670140","0.0-214.0","1920x1080","","1824.8999999761581","10.98","img/238/2.5/1.5/bw/001.png","","","appealing"
"","","","","","animation","215","2673282","0.0-215.0","1920x1080","","3141.300000011921","58","img/314/4/2/bw/001.png","","","appealing"
"","","","","","animation","216","2675898","0.0-216.0","1920x1080","","2615","62.43","img/117/4.5/2/bw/001.png","","","appealing"
"","","","","","animation","217","2678523","0.0-217.0","1920x1080","","2624.099999964237","56.61","img/238/4.5/0.66667/bw/001.png","","","appealing"
"","","","","","animation","218","2680666","0.0-218.0","1920x1080","","2142.100000023842","46.69","img/238/5.5/1/bw/001.png","","","appealing"
"","","","","","animation","219","2682610","0.0-219.0","1920x1080","","1942.800000011921","35.19","img/314/4.5/1/bw/001.png","","","appealing"
"","","","","","animation","220","2684562","0.0-220.0","1920x1080","","1951.1000000238419","25.00","img/314/4.5/0.5/bw/001.png","","","appealing"
"","","","","","animation","221","2687114","0.0-221.0","1920x1080","","2550.5","13","img/314/4/0.5/bw/001.png","","","appealing"
"","","","","","animation","222","2689594","0.0-222.0","1920x1080","","2479.100000023842","18.92","img/314/4.5/0.66667/bw/001.png","","","appealing"
"","","","","","animation","223","2692107","0.0-223.0","1920x1080","","2512","38.89","img/238/5.5/1.5/bw/001.png","","","appealing"
"","","","","","animation","224","2697057","0.0-224.0","1920x1080","","4948.399999976158","3.17","img/238/2.5/2/bw/001.png","","","appealing"
"","","","","","animation","225","2700146","0.0-225.0","1920x1080","","3088.400000035763","14.68","img/314/4/0.66667/bw/001.png","","","appealing"
"","","","","","animation","226","2704657","0.0-226.0","1920x1080","","4509.300000011921","54","img/238/5.5/0.5/bw/001.png","","","appealing"
"","","","","","animation","227","2706123","0.0-227.0","1920x1080","","1465.2999999523163","47.62","img/314/5.5/2/bw/001.png","","","appealing"
"","","","","","animation","228","2707962","0.0-228.0","1920x1080","","1837.699999988079","4","img/117/2.5/1.5/bw/001.png","","","appealing"
"","","","","","animation","229","2710514","0.0-229.0","1920x1080","","2550.899999976158","3.17","img/314/2.5/0.5/bw/001.png","","","appealing"
"","","","","","animation","230","2712346","0.0-230.0","1920x1080","","1830.699999988079","17.20","img/117/3.5/2/bw/001.png","","","appealing"
"","","","","","animation","231","2716826","0.0-231.0","1920x1080","","4478.699999988079","63.23","img/314/5.5/1/bw/001.png","","","appealing"
"","","","","","animation","232","2719632","0.0-232.0","1920x1080","","2797.7999999523163","1.19","img/314/2.5/2/bw/001.png","","","appealing"
"","","","","","animation","233","2740953","0.0-233.0","1920x1080","","21320","9","img/238/2.5/0.66667/bw/001.png","","","appealing"
"","","","","","animation","234","2747953","0.0-234.0","1920x1080","","6998.899999976158","-29.50","img/314/3.5/0.5/bw/001.png","","","appealing"
"","","","","","animation","235","2759615","0.0-235.0","1920x1080","","11660.399999976158","27.38","img/238/3.5/2/bw/001.png","","","appealing"
"","","","","","html-button-response","236","2778626","0.0-236.0","1920x1080","","19009.19999998808","","<div class=""intro"">You are about to view a new series of animations.<br><br></div><div class=""intro"">You will evaluate them based on a different descriptor.<br><br></div><div class=""intro"">Move the slider to indicate how <strong style=""text-transform:capitalize"">NATURAL</strong> you find each animation.<br><br></div><div class=""intro"">0 = Least Natural<br></div><div class=""intro"">1 = Most Natural<br><br></div><div class=""intro"">Remember to use the <strong><em>entire range</em></strong> of the slider to make your ratings.<br></div><div class=""intro"">Please <strong><em>take your time</em></strong> and carefully consider each rating you make.<br><br></div>","0","",""
"","","","","","call-function","237","2778626","0.0-237.0","1920x1080","","","","","","",""
"","","","","","animation","238","2781985","0.0-238.0","1920x1080","","3358.699999988079","22.88","img/117/4.5/0.5/bw/001.png","","","natural"
"","","","","","animation","239","2784631","0.0-239.0","1920x1080","","2645","8","img/238/2.5/0.5/bw/001.png","","","natural"
"","","","","","animation","240","2786785","0.0-240.0","1920x1080","","2152.699999988079","17.86","img/117/4/0.5/bw/001.png","","","natural"
"","","","","","animation","241","2788997","0.0-241.0","1920x1080","","2211.099999964237","5.82","img/238/2.5/1/bw/001.png","","","natural"
"","","","","","animation","242","2790384","0.0-242.0","1920x1080","","1386","21.30","img/117/4/1.5/bw/001.png","","","natural"
"","","","","","animation","243","2792030","0.0-243.0","1920x1080","","1644.699999988079","15","img/314/3.5/0.5/bw/001.png","","","natural"
"","","","","","animation","244","2794147","0.0-244.0","1920x1080","","2115.899999976158","49.87","img/314/5.5/1/bw/001.png","","","natural"
"","","","","","animation","245","2796930","0.0-245.0","1920x1080","","2782.5","5.82","img/117/2.5/2/bw/001.png","","","natural"
"","","","","","animation","246","2799313","0.0-246.0","1920x1080","","2381.800000011921","16.93","img/238/3.5/1.5/bw/001.png","","","natural"
"","","","","","animation","247","2800832","0.0-247.0","1920x1080","","1517.6000000238419","10","img/238/2.5/2/bw/001.png","","","natural"
"","","","","","animation","248","2802313","0.0-248.0","1920x1080","","1479.699999988079","16.27","img/117/4/0.66667/bw/001.png","","","natural"
"","","","","","animation","249","2803814","0.0-249.0","1920x1080","","1499.6000000238419","19.97","img/314/3.5/2/bw/001.png","","","natural"
"","","","","","animation","250","2805548","0.0-250.0","1920x1080","","1733.2000000476837","42.86","img/117/4.5/1/bw/001.png","","","natural"
"","","","","","animation","251","2807914","0.0-251.0","1920x1080","","2365","45","img/314/4.5/0.5/bw/001.png","","","natural"
"","","","","","animation","252","2810232","0.0-252.0","1920x1080","","2317.300000011921","55","img/238/4.5/1.5/bw/001.png","","","natural"
"","","","","","animation","253","2811663","0.0-253.0","1920x1080","","1429.8999999761581","61.64","img/314/4.5/2/bw/001.png","","","natural"
"","","","","","animation","254","2813314","0.0-254.0","1920x1080","","1650","2.25","img/314/2.5/0.66667/bw/001.png","","","natural"
"","","","","","animation","255","2814832","0.0-255.0","1920x1080","","1517.4000000357628","16.93","img/238/4/1/bw/001.png","","","natural"
"","","","","","animation","256","2817785","0.0-256.0","1920x1080","","2951.2999999523163","33.73","img/117/4.5/1.5/bw/001.png","","","natural"
"","","","","","animation","257","2819847","0.0-257.0","1920x1080","","2061.099999964237","48.68","img/238/5.5/0.66667/bw/001.png","","","natural"
"","","","","","animation","258","2821947","0.0-258.0","1920x1080","","2099.399999976158","33.73","img/314/4.5/0.66667/bw/001.png","","","natural"
"","","","","","animation","259","2823683","0.0-259.0","1920x1080","","1734.8999999761581","60.05","img/117/5.5/2/bw/001.png","","","natural"
"","","","","","animation","260","2825216","0.0-260.0","1920x1080","","1532.199999988079","26","img/238/3.5/1/bw/001.png","","","natural"
"","","","","","animation","261","2828131","0.0-261.0","1920x1080","","2913.400000035763","52.51","img/238/5.5/1.5/bw/001.png","","","natural"
"","","","","","animation","262","2829414","0.0-262.0","1920x1080","","1282.8999999761581","15.87","img/117/4.5/2/bw/001.png","","","natural"
"","","","","","animation","263","2831320","0.0-263.0","1920x1080","","1905","57.01","img/238/4.5/0.5/bw/001.png","","","natural"
"","","","","","animation","264","2833569","0.0-264.0","1920x1080","","2245.2999999523163","28.17","img/238/3.5/2/bw/001.png","","","natural"
"","","","","","animation","265","2837232","0.0-265.0","1920x1080","","3662.399999976158","1.19","img/238/2.5/1.5/bw/001.png","","","natural"
"","","","","","animation","266","2840815","0.0-266.0","1920x1080","","3580.400000035763","-12.96","img/117/2.5/0.5/bw/001.png","","","natural"
"","","","","","animation","267","2844889","0.0-267.0","1920x1080","","4073.300000011921","26","img/238/4/0.66667/bw/001.png","","","natural"
"","","","","","animation","268","2846481","0.0-268.0","1920x1080","","1590.8999999761581","21","img/117/3.5/1/bw/001.png","","","natural"
"","","","","","animation","269","2848865","0.0-269.0","1920x1080","","2382.599999964237","56","img/117/5.5/0.66667/bw/001.png","","","natural"
"","","","","","animation","270","2851148","0.0-270.0","1920x1080","","2282.199999988079","46","img/117/4/2/bw/001.png","","","natural"
"","","","","","animation","271","2853186","0.0-271.0","1920x1080","","2036.4000000357628","0","img/238/2.5/0.66667/bw/001.png","","","natural"
"","","","","","animation","272","2856001","0.0-272.0","1920x1080","","2814.600000023842","71","img/117/5.5/1/bw/001.png","","","natural"
"","","","","","animation","273","2859232","0.0-273.0","1920x1080","","3229.2999999523163","6.61","img/314/4.5/1.5/bw/001.png","","","natural"
"","","","","","animation","274","2862290","0.0-274.0","1920x1080","","3056.7999999523163","1","img/314/2.5/1.5/bw/001.png","","","natural"
"","","","","","animation","275","2864305","0.0-275.0","1920x1080","","2014.4000000357628","23.02","img/314/4/1.5/bw/001.png","","","natural"
"","","","","","animation","276","2867506","0.0-276.0","1920x1080","","3199","54","img/238/4.5/1/bw/001.png","","","natural"
"","","","","","animation","277","2869998","0.0-277.0","1920x1080","","2491.599999964237","39.29","img/314/4/0.66667/bw/001.png","","","natural"
"","","","","","animation","278","2872290","0.0-278.0","1920x1080","","2290.5","4.50","img/117/2.5/1/bw/001.png","","","natural"
"","","","","","animation","279","2874970","0.0-279.0","1920x1080","","2678.300000011921","17.72","img/238/4/1.5/bw/001.png","","","natural"
"","","","","","animation","280","2877633","0.0-280.0","1920x1080","","2661.800000011921","3.44","img/117/2.5/0.66667/bw/001.png","","","natural"
"","","","","","animation","281","2882122","0.0-281.0","1920x1080","","4486.699999988079","36.24","img/238/4/2/bw/001.png","","","natural"
"","","","","","animation","282","2884065","0.0-282.0","1920x1080","","1942.300000011921","1.19","img/117/2.5/1.5/bw/001.png","","","natural"
"","","","","","animation","283","2886937","0.0-283.0","1920x1080","","2871.600000023842","23.94","img/238/4/0.5/bw/001.png","","","natural"
"","","","","","animation","284","2889482","0.0-284.0","1920x1080","","2541.599999964237","19.84","img/117/3.5/0.66667/bw/001.png","","","natural"
"","","","","","animation","285","2892865","0.0-285.0","1920x1080","","3382.199999988079","6.88","img/314/2.5/2/bw/001.png","","","natural"
"","","","","","animation","286","2895522","0.0-286.0","1920x1080","","2653.899999976158","68.78","img/238/5.5/1/bw/001.png","","","natural"
"","","","","","animation","287","2898048","0.0-287.0","1920x1080","","2524.699999988079","63.89","img/314/5.5/1.5/bw/001.png","","","natural"
"","","","","","animation","288","2900882","0.0-288.0","1920x1080","","2840.300000011921","37","img/238/4.5/2/bw/001.png","","","natural"
"","","","","","animation","289","2903107","0.0-289.0","1920x1080","","2224.600000023842","18.78","img/117/3.5/0.5/bw/001.png","","","natural"
"","","","","","animation","290","2905529","0.0-290.0","1920x1080","","2420.2999999523163","20.24","img/238/3.5/0.66667/bw/001.png","","","natural"
"","","","","","animation","291","2910246","0.0-291.0","1920x1080","","4715.5","38.49","img/314/4/2/bw/001.png","","","natural"
"","","","","","animation","292","2911561","0.0-292.0","1920x1080","","1314.300000011921","15.08","img/314/3.5/0.66667/bw/001.png","","","natural"
"","","","","","animation","293","2913308","0.0-293.0","1920x1080","","1745.4000000357628","27.65","img/117/4/1/bw/001.png","","","natural"
"","","","","","animation","294","2915563","0.0-294.0","1920x1080","","2253.899999976158","59.26","img/117/5.5/1.5/bw/001.png","","","natural"
"","","","","","animation","295","2917490","0.0-295.0","1920x1080","","1926.3999999761581","80.29","img/238/5.5/2/bw/001.png","","","natural"
"","","","","","animation","296","2919057","0.0-296.0","1920x1080","","1566.0999999642372","73.68","img/314/5.5/0.66667/bw/001.png","","","natural"
"","","","","","animation","297","2920799","0.0-297.0","1920x1080","","1740.300000011921","45.24","img/117/4.5/0.66667/bw/001.png","","","natural"
"","","","","","animation","298","2923346","0.0-298.0","1920x1080","","2545.899999976158","23","img/314/3.5/1.5/bw/001.png","","","natural"
"","","","","","animation","299","2924762","0.0-299.0","1920x1080","","1415","19.44","img/314/3.5/1/bw/001.png","","","natural"
"","","","","","animation","300","2926174","0.0-300.0","1920x1080","","1411.699999988079","13.76","img/117/3.5/1.5/bw/001.png","","","natural"
"","","","","","animation","301","2928375","0.0-301.0","1920x1080","","2199","53.57","img/238/5.5/0.5/bw/001.png","","","natural"
"","","","","","animation","302","2931157","0.0-302.0","1920x1080","","2781.899999976158","61.64","img/117/5.5/0.5/bw/001.png","","","natural"
"","","","","","animation","303","2932657","0.0-303.0","1920x1080","","1499","30.42","img/314/4/0.5/bw/001.png","","","natural"
"","","","","","animation","304","2934168","0.0-304.0","1920x1080","","1510","21.30","img/314/4.5/1/bw/001.png","","","natural"
"","","","","","animation","305","2936135","0.0-305.0","1920x1080","","1965.9000000357628","83.47","img/314/5.5/2/bw/001.png","","","natural"
"","","","","","animation","306","2939009","0.0-306.0","1920x1080","","2873.099999964237","68.92","img/314/5.5/0.5/bw/001.png","","","natural"
"","","","","","animation","307","2943734","0.0-307.0","1920x1080","","4723.199999988079","25.40","img/238/3.5/0.5/bw/001.png","","","natural"
"","","","","","animation","308","2945794","0.0-308.0","1920x1080","","2058.699999988079","3.84","img/314/2.5/1/bw/001.png","","","natural"
"","","","","","animation","309","2947607","0.0-309.0","1920x1080","","1811.699999988079","16.93","img/117/3.5/2/bw/001.png","","","natural"
"","","","","","animation","310","2950148","0.0-310.0","1920x1080","","2539.600000023842","27","img/238/4.5/0.66667/bw/001.png","","","natural"
"","","","","","animation","311","2952281","0.0-311.0","1920x1080","","2132","6.61","img/314/2.5/0.5/bw/001.png","","","natural"
"","","","","","animation","312","2955793","0.0-312.0","1920x1080","","3510.800000011921","25.26","img/314/4/1/bw/001.png","","","natural"
"","","","","","html-button-response","313","2974568","0.0-313.0","1920x1080","","18766.19999998808","","<div class=""intro"">You are about to view a new series of animations.<br><br></div><div class=""intro"">You will evaluate them based on a different descriptor.<br><br></div><div class=""intro"">Move the slider to indicate how <strong style=""text-transform:capitalize"">RELAXING</strong> you find each animation.<br><br></div><div class=""intro"">0 = Least Relaxing<br></div><div class=""intro"">1 = Most Relaxing<br><br></div><div class=""intro"">Remember to use the <strong><em>entire range</em></strong> of the slider to make your ratings.<br></div><div class=""intro"">Please <strong><em>take your time</em></strong> and carefully consider each rating you make.<br><br></div>","0","",""
"","","","","","call-function","314","2974569","0.0-314.0","1920x1080","","","","","","",""
"","","","","","animation","315","2976970","0.0-315.0","1920x1080","","2400.800000011921","22.88","img/238/3.5/1/bw/001.png","","","relaxing"
"","","","","","animation","316","2980182","0.0-316.0","1920x1080","","3210.399999976158","72.35","img/117/5.5/1/bw/001.png","","","relaxing"
"","","","","","animation","317","2982401","0.0-317.0","1920x1080","","2217.800000011921","28.97","img/117/4/1/bw/001.png","","","relaxing"
"","","","","","animation","318","2984064","0.0-318.0","1920x1080","","1662.6000000238419","41.53","img/117/4/2/bw/001.png","","","relaxing"
"","","","","","animation","319","2985455","0.0-319.0","1920x1080","","1389.6000000238419","29.50","img/238/4/0.5/bw/001.png","","","relaxing"
"","","","","","animation","320","2986921","0.0-320.0","1920x1080","","1464.5999999642372","24.34","img/314/4/0.5/bw/001.png","","","relaxing"
"","","","","","animation","321","2990170","0.0-321.0","1920x1080","","3248","62","img/238/4/2/bw/001.png","","","relaxing"
"","","","","","animation","322","2992004","0.0-322.0","1920x1080","","1832.699999988079","66.67","img/238/4.5/2/bw/001.png","","","relaxing"
"","","","","","animation","323","2994255","0.0-323.0","1920x1080","","2249.899999976158","-18.12","img/314/2.5/1/bw/001.png","","","relaxing"
"","","","","","animation","324","2996553","0.0-324.0","1920x1080","","2295.600000023842","0","img/117/2.5/0.66667/bw/001.png","","","relaxing"
"","","","","","animation","325","2999215","0.0-325.0","1920x1080","","2661.400000035763","10","img/238/3.5/0.5/bw/001.png","","","relaxing"
"","","","","","animation","326","3002353","0.0-326.0","1920x1080","","3136.100000023842","6.08","img/314/3.5/0.66667/bw/001.png","","","relaxing"
"","","","","","animation","327","3004181","0.0-327.0","1920x1080","","1827.300000011921","11.90","img/117/4/0.66667/bw/001.png","","","relaxing"
"","","","","","animation","328","3005932","0.0-328.0","1920x1080","","1749.300000011921","11.77","img/238/3.5/2/bw/001.png","","","relaxing"
"","","","","","animation","329","3007617","0.0-329.0","1920x1080","","1683.5999999642372","20.37","img/117/4/1.5/bw/001.png","","","relaxing"
"","","","","","animation","330","3009999","0.0-330.0","1920x1080","","2381.199999988079","65.48","img/117/5.5/1.5/bw/001.png","","","relaxing"
"","","","","","animation","331","3011576","0.0-331.0","1920x1080","","1575.3999999761581","71.43","img/238/5.5/1/bw/001.png","","","relaxing"
"","","","","","animation","332","3012915","0.0-332.0","1920x1080","","1338.199999988079","75.00","img/238/5.5/0.66667/bw/001.png","","","relaxing"
"","","","","","animation","333","3014417","0.0-333.0","1920x1080","","1500.0999999642372","31.75","img/314/3.5/0.5/bw/001.png","","","relaxing"
"","","","","","animation","334","3016721","0.0-334.0","1920x1080","","2303.300000011921","6.08","img/117/2.5/1/bw/001.png","","","relaxing"
"","","","","","animation","335","3019922","0.0-335.0","1920x1080","","3209.699999988079","42","img/314/4/2/bw/001.png","","","relaxing"
"","","","","","animation","336","3021638","0.0-336.0","1920x1080","","1715.5","54.89","img/314/5.5/0.66667/bw/001.png","","","relaxing"
"","","","","","animation","337","3023312","0.0-337.0","1920x1080","","1672.5","63.36","img/314/5.5/0.5/bw/001.png","","","relaxing"
"","","","","","animation","338","3025499","0.0-338.0","1920x1080","","2186.100000023842","67.46","img/314/5.5/2/bw/001.png","","","relaxing"
"","","","","","animation","339","3027359","0.0-339.0","1920x1080","","1857.8999999761581","4.76","img/238/2.5/1.5/bw/001.png","","","relaxing"
"","","","","","animation","340","3028714","0.0-340.0","1920x1080","","1353.5","23","img/238/4/1.5/bw/001.png","","","relaxing"
"","","","","","animation","341","3030712","0.0-341.0","1920x1080","","1997.3999999761581","18.12","img/117/3.5/0.66667/bw/001.png","","","relaxing"
"","","","","","animation","342","3033359","0.0-342.0","1920x1080","","2645.599999964237","0","img/238/2.5/0.66667/bw/001.png","","","relaxing"
"","","","","","animation","343","3035543","0.0-343.0","1920x1080","","2183","14.95","img/117/4.5/0.5/bw/001.png","","","relaxing"
"","","","","","animation","344","3038156","0.0-344.0","1920x1080","","2611.300000011921","0.40","img/238/2.5/0.5/bw/001.png","","","relaxing"
"","","","","","animation","345","3040197","0.0-345.0","1920x1080","","2040.5999999642372","2","img/117/2.5/2/bw/001.png","","","relaxing"
"","","","","","animation","346","3043805","0.0-346.0","1920x1080","","3605.800000011921","31.08","img/238/4/1/bw/001.png","","","relaxing"
"","","","","","animation","347","3046697","0.0-347.0","1920x1080","","2890.399999976158","42.06","img/238/4.5/0.66667/bw/001.png","","","relaxing"
"","","","","","animation","348","3048155","0.0-348.0","1920x1080","","1456.1000000238419","45.37","img/238/4.5/1/bw/001.png","","","relaxing"
"","","","","","animation","349","3051115","0.0-349.0","1920x1080","","2958.699999988079","72.62","img/238/5.5/2/bw/001.png","","","relaxing"
"","","","","","animation","350","3052262","0.0-350.0","1920x1080","","1146.199999988079","71.16","img/238/5.5/1.5/bw/001.png","","","relaxing"
"","","","","","animation","351","3054181","0.0-351.0","1920x1080","","1917.8999999761581","37.57","img/314/3.5/1.5/bw/001.png","","","relaxing"
"","","","","","animation","352","3056616","0.0-352.0","1920x1080","","2433.599999964237","38.49","img/314/4.5/1/bw/001.png","","","relaxing"
"","","","","","animation","353","3059711","0.0-353.0","1920x1080","","3092.7999999523163","46.16","img/117/4.5/1/bw/001.png","","","relaxing"
"","","","","","animation","354","3061356","0.0-354.0","1920x1080","","1643.199999988079","6.88","img/314/2.5/2/bw/001.png","","","relaxing"
"","","","","","animation","355","3063280","0.0-355.0","1920x1080","","1923","1","img/117/2.5/0.5/bw/001.png","","","relaxing"
"","","","","","animation","356","3065361","0.0-356.0","1920x1080","","2079.800000011921","1.19","img/314/2.5/0.5/bw/001.png","","","relaxing"
"","","","","","animation","357","3068595","0.0-357.0","1920x1080","","3232.199999988079","61.90","img/117/5.5/0.5/bw/001.png","","","relaxing"
"","","","","","animation","358","3071463","0.0-358.0","1920x1080","","2867","36.11","img/238/4.5/1.5/bw/001.png","","","relaxing"
"","","","","","animation","359","3074847","0.0-359.0","1920x1080","","3382.400000035763","52","img/117/4.5/1.5/bw/001.png","","","relaxing"
"","","","","","animation","360","3076578","0.0-360.0","1920x1080","","1730.3999999761581","19.97","img/238/3.5/0.66667/bw/001.png","","","relaxing"
"","","","","","animation","361","3077990","0.0-361.0","1920x1080","","1410.800000011921","14.81","img/314/4/1/bw/001.png","","","relaxing"
"","","","","","animation","362","3081310","0.0-362.0","1920x1080","","3319.699999988079","12","img/314/4.5/0.66667/bw/001.png","","","relaxing"
"","","","","","animation","363","3083130","0.0-363.0","1920x1080","","1817.6000000238419","4.10","img/238/2.5/2/bw/001.png","","","relaxing"
"","","","","","animation","364","3086972","0.0-364.0","1920x1080","","3840.900000035763","51","img/117/4.5/2/bw/001.png","","","relaxing"
"","","","","","animation","365","3089265","0.0-365.0","1920x1080","","2292.300000011921","41.14","img/314/4.5/1.5/bw/001.png","","","relaxing"
"","","","","","animation","366","3094190","0.0-366.0","1920x1080","","4923.400000035763","50.53","img/238/4.5/0.5/bw/001.png","","","relaxing"
"","","","","","animation","367","3097422","0.0-367.0","1920x1080","","3230.7000000476837","75","img/314/4.5/2/bw/001.png","","","relaxing"
"","","","","","animation","368","3100105","0.0-368.0","1920x1080","","2681","53.44","img/314/4/1.5/bw/001.png","","","relaxing"
"","","","","","animation","369","3101626","0.0-369.0","1920x1080","","1519.7000000476837","65.21","img/314/5.5/1/bw/001.png","","","relaxing"
"","","","","","animation","370","3104406","0.0-370.0","1920x1080","","2779.300000011921","0","img/314/2.5/1.5/bw/001.png","","","relaxing"
"","","","","","animation","371","3106822","0.0-371.0","1920x1080","","2414.7000000476837","21.96","img/314/3.5/2/bw/001.png","","","relaxing"
"","","","","","animation","372","3108598","0.0-372.0","1920x1080","","1774.2000000476837","3","img/117/2.5/1.5/bw/001.png","","","relaxing"
"","","","","","animation","373","3111176","0.0-373.0","1920x1080","","2576.300000011921","29.10","img/117/3.5/2/bw/001.png","","","relaxing"
"","","","","","animation","374","3114246","0.0-374.0","1920x1080","","3069.400000035763","69.44","img/117/5.5/0.66667/bw/001.png","","","relaxing"
"","","","","","animation","375","3117230","0.0-375.0","1920x1080","","2982.7999999523163","81.61","img/238/5.5/0.5/bw/001.png","","","relaxing"
"","","","","","animation","376","3118930","0.0-376.0","1920x1080","","1698.199999988079","38.89","img/314/4.5/0.5/bw/001.png","","","relaxing"
"","","","","","animation","377","3120688","0.0-377.0","1920x1080","","1756.5","32.01","img/117/4.5/0.66667/bw/001.png","","","relaxing"
"","","","","","animation","378","3122974","0.0-378.0","1920x1080","","2284.800000011921","19.44","img/117/3.5/0.5/bw/001.png","","","relaxing"
"","","","","","animation","379","3125958","0.0-379.0","1920x1080","","2983","74","img/314/5.5/1.5/bw/001.png","","","relaxing"
"","","","","","animation","380","3128264","0.0-380.0","1920x1080","","2303.699999988079","33.33","img/238/4/0.66667/bw/001.png","","","relaxing"
"","","","","","animation","381","3131231","0.0-381.0","1920x1080","","2965.699999988079","0","img/314/2.5/0.66667/bw/001.png","","","relaxing"
"","","","","","animation","382","3139966","0.0-382.0","1920x1080","","8734.800000011921","41.67","img/117/3.5/1/bw/001.png","","","relaxing"
"","","","","","animation","383","3142110","0.0-383.0","1920x1080","","2141.900000035763","68.78","img/117/5.5/2/bw/001.png","","","relaxing"
"","","","","","animation","384","3145414","0.0-384.0","1920x1080","","3302.099999964237","14.68","img/314/3.5/1/bw/001.png","","","relaxing"
"","","","","","animation","385","3149938","0.0-385.0","1920x1080","","4521.599999964237","46","img/117/3.5/1.5/bw/001.png","","","relaxing"
"","","","","","animation","386","3151710","0.0-386.0","1920x1080","","1770.4000000357628","36.64","img/314/4/0.66667/bw/001.png","","","relaxing"
"","","","","","animation","387","3153740","0.0-387.0","1920x1080","","2028.8999999761581","0.40","img/238/2.5/1/bw/001.png","","","relaxing"
"","","","","","animation","388","3155296","0.0-388.0","1920x1080","","1554.5","19.31","img/238/3.5/1.5/bw/001.png","","","relaxing"
"","","","","","animation","389","3157281","0.0-389.0","1920x1080","","1983.5","18.39","img/117/4/0.5/bw/001.png","","","relaxing"
"","","","","","html-button-response","390","3175071","0.0-390.0","1920x1080","","17788.599999964237","","<strong>Study Debriefing</strong><br><p class=""debrief""><strong>Background:</strong> The patterns you rated are called <em>fractals</em>. The term fractal describes a class of irregular curves or shapes for which any suitably chosen part is similar in shape to a given larger or smaller part when magnified or reduced to the same size. Fractal properties are found throughout the natural and manmade world. The series of animations you saw today displayed animated fractal patterns of a varying complexity.</p><p class=""debrief""><strong>Purpose of this study:</strong> We hope to better understand how the perception of static fractals differs from the perception of animated fractals, and how the speed of the animated patterns influences people&apos;s perception of them. Fractals allow us to study the perception of aesthetic properties (e.g. the perceived level of beauty in an image) without using recognizable content, which makes them an excellent tool for studying abstract aesthetic judgement.</p><p class=""debrief""><strong>Your part:</strong> Your participation has helped us to further understand how humans perceive these patterns across different levels of speed and complexity. This research with allow us to better understand how the visual system and brain process our ever-changing visual environments.<p class=""debrief""><strong>Feedback and Further information:</strong> If you have additional questions about this study, please feel free to ask the researcher, Nathan Gonzales-Hess at nhess @ uoregon.edu. If you have any questions concerning your rights as a research participant, please contact Research Compliance Services, 5237 University of Oregon, Eugene, OR 97403, 541-346-2510, or email researchCompliance @ uoregon.edu. You can also email the Human Subjects Coordinator for psychology and linguistics research at hscoord @ uoregon.edu. ","0","",""
"","","","","","html-button-response","391","3176780","0.0-391.0","1920x1080","","1705","","Thank you for participating in this study. <br>Please click below to finish the experiment and submit your responses.<br><br>","0","",""
"true","","","","","fullscreen","392","3177790","0.0-392.0","1920x1080","10:57 12/10/2022","","","","","",""
