"success","timeout","failed_images","failed_audio","failed_video","trial_type","trial_index","time_elapsed","internal_node_id","resolution","timeStamp","rt","response","stimulus","button_pressed","value","descriptor"
"true","false","[]","[]","[]","preload","0","19139","0.0-0.0","1920x1080","","","","","","",""
"true","false","[]","[]","[]","preload","1","38513","0.0-1.0","1920x1080","","","","","","",""
"true","false","[]","[]","[]","preload","2","58024","0.0-2.0","1920x1080","","","","","","",""
"true","","","","","fullscreen","3","64461","0.0-3.0","1920x1080","11:51 25/10/2022","","","","","",""
"","","","","","survey-html-form","4","81153","0.0-4.0","1920x1080","","16689.30000001192","{""age"":""18"",""gender"":""female""}","","","",""
"","","","","","html-button-response","5","153002","0.0-5.0","1920x1080","","71846.90000000596","","<div class=""complex"">You are going to see a series of animations.<br><br></div><div class=""complex"">Move the slider to indicate how <strong style=""text-transform:capitalize"">COMPLEX</strong> you find each animation.<br><br></div><div class=""complex"">0 = Least Complex<br></div><div class=""complex"">1 = Most Complex<br><br></div><div class=""complex"">Remember to use the <strong><em>entire range</em></strong> of the slider to make your ratings.<br></div><div class=""complex"">Please <strong><em>take your time</em></strong> and carefully consider each rating you make.<br><br></div><div class=""complex"">The study has five sections and will take about 45 minutes to complete.<br><br></div>","0","",""
"","","","","","call-function","6","153002","0.0-6.0","1920x1080","","","","","","",""
"","","","","","animation","7","170426","0.0-7.0","1920x1080","","17420.90000000596","25","img/314/2.5/0.66667/bw/001.png","","","complex"
"","","","","","animation","8","192433","0.0-8.0","1920x1080","","22006.29999999702","41.01","img/238/3.5/0.66667/bw/001.png","","","complex"
"","","","","","animation","9","198359","0.0-9.0","1920x1080","","5927.5999999940395","50.26","img/117/3.5/1/bw/001.png","","","complex"
"","","","","","animation","10","207599","0.0-10.0","1920x1080","","9237","77.12","img/117/2.5/1.5/bw/001.png","","","complex"
"","","","","","animation","11","211487","0.0-11.0","1920x1080","","3887.2000000029802","36.77","img/238/3.5/1/bw/001.png","","","complex"
"","","","","","animation","12","245599","0.0-12.0","1920x1080","","34111.09999999404","43.52","img/314/4.5/0.5/bw/001.png","","","complex"
"","","","","","animation","13","252751","0.0-13.0","1920x1080","","7151.29999999702","0","img/314/4.5/1/bw/001.png","","","complex"
"","","","","","animation","14","263601","0.0-14.0","1920x1080","","10846.60000000894","0.40","img/314/4.5/2/bw/001.png","","","complex"
"","","","","","animation","15","272074","0.0-15.0","1920x1080","","8470.79999999702","46","img/314/4/0.5/bw/001.png","","","complex"
"","","","","","animation","16","289329","0.0-16.0","1920x1080","","17254.79999999702","16","img/238/4/0.66667/bw/001.png","","","complex"
"","","","","","animation","17","300233","0.0-17.0","1920x1080","","10903.699999988079","19.58","img/117/4.5/1/bw/001.png","","","complex"
"","","","","","animation","18","323921","0.0-18.0","1920x1080","","23687.20000000298","64","img/314/2.5/0.5/bw/001.png","","","complex"
"","","","","","animation","19","339313","0.0-19.0","1920x1080","","15390.60000000894","6","img/117/5.5/0.5/bw/001.png","","","complex"
"","","","","","animation","20","344873","0.0-20.0","1920x1080","","5560","6.35","img/314/4.5/0.66667/bw/001.png","","","complex"
"","","","","","animation","21","352081","0.0-21.0","1920x1080","","7206.79999999702","92","img/117/3.5/0.66667/bw/001.png","","","complex"
"","","","","","animation","22","361345","0.0-22.0","1920x1080","","9262.89999999106","5.16","img/117/4/2/bw/001.png","","","complex"
"","","","","","animation","23","364761","0.0-23.0","1920x1080","","3415.5999999940395","90.87","img/238/2.5/0.66667/bw/001.png","","","complex"
"","","","","","animation","24","368033","0.0-24.0","1920x1080","","3271.5999999940395","48.54","img/238/3.5/1.5/bw/001.png","","","complex"
"","","","","","animation","25","380305","0.0-25.0","1920x1080","","12271.29999999702","70","img/238/4/0.5/bw/001.png","","","complex"
"","","","","","animation","26","385657","0.0-26.0","1920x1080","","5351.199999988079","48.15","img/117/3.5/1.5/bw/001.png","","","complex"
"","","","","","animation","27","391689","0.0-27.0","1920x1080","","6031.0999999940395","28.31","img/314/4/1/bw/001.png","","","complex"
"","","","","","animation","28","403257","0.0-28.0","1920x1080","","11567.5","0.53","img/238/5.5/1/bw/001.png","","","complex"
"","","","","","animation","29","410841","0.0-29.0","1920x1080","","7581.70000000298","98","img/238/2.5/2/bw/001.png","","","complex"
"","","","","","animation","30","424641","0.0-30.0","1920x1080","","13798.79999999702","0","img/238/5.5/0.5/bw/001.png","","","complex"
"","","","","","animation","31","428777","0.0-31.0","1920x1080","","4135.600000008941","100","img/117/2.5/1/bw/001.png","","","complex"
"","","","","","animation","32","434433","0.0-32.0","1920x1080","","5654.5999999940395","38.76","img/314/4/0.66667/bw/001.png","","","complex"
"","","","","","animation","33","438607","0.0-33.0","1920x1080","","4176.29999999702","91.80","img/314/2.5/1.5/bw/001.png","","","complex"
"","","","","","animation","34","453030","0.0-34.0","1920x1080","","14421.40000000596","0","img/117/5.5/1/bw/001.png","","","complex"
"","","","","","animation","35","464686","0.0-35.0","1920x1080","","11655.29999999702","15","img/117/4.5/2/bw/001.png","","","complex"
"","","","","","animation","36","476222","0.0-36.0","1920x1080","","11535","15.34","img/314/4/2/bw/001.png","","","complex"
"","","","","","animation","37","480998","0.0-37.0","1920x1080","","4775","0.13","img/238/5.5/1.5/bw/001.png","","","complex"
"","","","","","animation","38","488366","0.0-38.0","1920x1080","","7367","100","img/314/2.5/1/bw/001.png","","","complex"
"","","","","","animation","39","491614","0.0-39.0","1920x1080","","3247.0999999940395","90.08","img/314/3.5/0.5/bw/001.png","","","complex"
"","","","","","animation","40","504101","0.0-40.0","1920x1080","","12487.10000000894","0","img/314/5.5/1.5/bw/001.png","","","complex"
"","","","","","animation","41","526197","0.0-41.0","1920x1080","","22095","49","img/238/3.5/2/bw/001.png","","","complex"
"","","","","","animation","42","529390","0.0-42.0","1920x1080","","3192.6000000089407","34.26","img/238/4/2/bw/001.png","","","complex"
"","","","","","animation","43","532541","0.0-43.0","1920x1080","","3149.6000000089407","99","img/117/2.5/0.5/bw/001.png","","","complex"
"","","","","","animation","44","537941","0.0-44.0","1920x1080","","5399.800000011921","36.24","img/117/4/1.5/bw/001.png","","","complex"
"","","","","","animation","45","546237","0.0-45.0","1920x1080","","8294.699999988079","13.23","img/238/4.5/2/bw/001.png","","","complex"
"","","","","","animation","46","560905","0.0-46.0","1920x1080","","14662.699999988079","0","img/314/5.5/2/bw/001.png","","","complex"
"","","","","","animation","47","567664","0.0-47.0","1920x1080","","6759","33.60","img/117/4/1/bw/001.png","","","complex"
"","","","","","animation","48","570945","0.0-48.0","1920x1080","","3279.3999999910593","83.73","img/314/3.5/1/bw/001.png","","","complex"
"","","","","","animation","49","577161","0.0-49.0","1920x1080","","6215.4000000059605","25.93","img/117/4.5/1.5/bw/001.png","","","complex"
"","","","","","animation","50","580712","0.0-50.0","1920x1080","","3550.0999999940395","45.24","img/117/4.5/0.5/bw/001.png","","","complex"
"","","","","","animation","51","585680","0.0-51.0","1920x1080","","4967.4000000059605","18.25","img/314/5.5/0.66667/bw/001.png","","","complex"
"","","","","","animation","52","588857","0.0-52.0","1920x1080","","3175.6000000089407","64.15","img/117/4/0.5/bw/001.png","","","complex"
"","","","","","animation","53","592944","0.0-53.0","1920x1080","","4086.2000000029802","64.55","img/238/4.5/0.5/bw/001.png","","","complex"
"","","","","","animation","54","596610","0.0-54.0","1920x1080","","3665.2999999970198","100","img/238/2.5/1.5/bw/001.png","","","complex"
"","","","","","animation","55","601152","0.0-55.0","1920x1080","","4541.4000000059605","31.22","img/238/4.5/0.66667/bw/001.png","","","complex"
"","","","","","animation","56","616136","0.0-56.0","1920x1080","","14982.70000000298","100","img/117/2.5/2/bw/001.png","","","complex"
"","","","","","animation","57","624242","0.0-57.0","1920x1080","","8103.79999999702","0.13","img/117/5.5/1.5/bw/001.png","","","complex"
"","","","","","animation","58","630609","0.0-58.0","1920x1080","","6365.899999991059","24.34","img/117/4/0.66667/bw/001.png","","","complex"
"","","","","","animation","59","632842","0.0-59.0","1920x1080","","2232.2999999970198","26.06","img/238/4/1/bw/001.png","","","complex"
"","","","","","animation","60","635626","0.0-60.0","1920x1080","","2782.300000011921","24.87","img/117/4.5/0.66667/bw/001.png","","","complex"
"","","","","","animation","61","641872","0.0-61.0","1920x1080","","6244.899999991059","0.40","img/314/5.5/0.5/bw/001.png","","","complex"
"","","","","","animation","62","648208","0.0-62.0","1920x1080","","6335.399999991059","92.20","img/238/3.5/0.5/bw/001.png","","","complex"
"","","","","","animation","63","661520","0.0-63.0","1920x1080","","13310.29999999702","15.87","img/314/4.5/1.5/bw/001.png","","","complex"
"","","","","","animation","64","667056","0.0-64.0","1920x1080","","5534.9000000059605","0.40","img/314/5.5/1/bw/001.png","","","complex"
"","","","","","animation","65","676226","0.0-65.0","1920x1080","","9168.79999999702","0","img/117/5.5/2/bw/001.png","","","complex"
"","","","","","animation","66","679260","0.0-66.0","1920x1080","","3032","98","img/314/2.5/2/bw/001.png","","","complex"
"","","","","","animation","67","689770","0.0-67.0","1920x1080","","10508.40000000596","47.22","img/314/3.5/1.5/bw/001.png","","","complex"
"","","","","","animation","68","695050","0.0-68.0","1920x1080","","5279","3.17","img/238/5.5/0.66667/bw/001.png","","","complex"
"","","","","","animation","69","699418","0.0-69.0","1920x1080","","4366.5","3.17","img/238/4.5/1/bw/001.png","","","complex"
"","","","","","animation","70","704202","0.0-70.0","1920x1080","","4783","73.81","img/314/3.5/0.66667/bw/001.png","","","complex"
"","","","","","animation","71","708465","0.0-71.0","1920x1080","","4262.70000000298","47.35","img/314/4/1.5/bw/001.png","","","complex"
"","","","","","animation","72","711860","0.0-72.0","1920x1080","","3393.9000000059605","0.93","img/238/5.5/2/bw/001.png","","","complex"
"","","","","","animation","73","717897","0.0-73.0","1920x1080","","6036.20000000298","100","img/117/2.5/0.66667/bw/001.png","","","complex"
"","","","","","animation","74","722265","0.0-74.0","1920x1080","","4366.100000008941","49.21","img/117/3.5/2/bw/001.png","","","complex"
"","","","","","animation","75","725602","0.0-75.0","1920x1080","","3335.2999999970198","100","img/238/2.5/1/bw/001.png","","","complex"
"","","","","","animation","76","732313","0.0-76.0","1920x1080","","6710.29999999702","59.66","img/314/3.5/2/bw/001.png","","","complex"
"","","","","","animation","77","735186","0.0-77.0","1920x1080","","2871.5999999940395","100","img/238/2.5/0.5/bw/001.png","","","complex"
"","","","","","animation","78","738247","0.0-78.0","1920x1080","","3062.9000000059605","46.16","img/238/4/1.5/bw/001.png","","","complex"
"","","","","","animation","79","744826","0.0-79.0","1920x1080","","6576.79999999702","77","img/117/3.5/0.5/bw/001.png","","","complex"
"","","","","","animation","80","747759","0.0-80.0","1920x1080","","2932.199999988079","10.58","img/117/5.5/0.66667/bw/001.png","","","complex"
"","","","","","animation","81","751751","0.0-81.0","1920x1080","","3991.4000000059605","19.97","img/238/4.5/1.5/bw/001.png","","","complex"
"","","","","","html-button-response","82","771304","0.0-82.0","1920x1080","","19550.5","","<div class=""intro"">You are about to view a new series of animations.<br><br></div><div class=""intro"">You will evaluate them based on a different descriptor.<br><br></div><div class=""intro"">Move the slider to indicate how <strong style=""text-transform:capitalize"">APPEALING</strong> you find each animation.<br><br></div><div class=""intro"">0 = Least Appealing<br></div><div class=""intro"">1 = Most Appealing<br><br></div><div class=""intro"">Remember to use the <strong><em>entire range</em></strong> of the slider to make your ratings.<br></div><div class=""intro"">Please <strong><em>take your time</em></strong> and carefully consider each rating you make.<br><br></div>","0","",""
"","","","","","call-function","83","771305","0.0-83.0","1920x1080","","","","","","",""
"","","","","","animation","84","781327","0.0-84.0","1920x1080","","10021.59999999404","99","img/314/5.5/0.66667/bw/001.png","","","appealing"
"","","","","","animation","85","788735","0.0-85.0","1920x1080","","7407.300000011921","78.17","img/314/4.5/0.66667/bw/001.png","","","appealing"
"","","","","","animation","86","794503","0.0-86.0","1920x1080","","5767","12.96","img/238/3.5/1.5/bw/001.png","","","appealing"
"","","","","","animation","87","797406","0.0-87.0","1920x1080","","2904.4000000059605","0","img/117/2.5/1/bw/001.png","","","appealing"
"","","","","","animation","88","800564","0.0-88.0","1920x1080","","3157.4000000059605","0.13","img/238/4/0.5/bw/001.png","","","appealing"
"","","","","","animation","89","816060","0.0-89.0","1920x1080","","15494.79999999702","100","img/238/5.5/1.5/bw/001.png","","","appealing"
"","","","","","animation","90","821244","0.0-90.0","1920x1080","","5182.399999991059","91.01","img/238/4.5/1/bw/001.png","","","appealing"
"","","","","","animation","91","830438","0.0-91.0","1920x1080","","9193.5","100","img/238/5.5/1/bw/001.png","","","appealing"
"","","","","","animation","92","835156","0.0-92.0","1920x1080","","4715.79999999702","45.63","img/238/3.5/0.5/bw/001.png","","","appealing"
"","","","","","animation","93","844171","0.0-93.0","1920x1080","","9014.60000000894","74.87","img/117/3.5/1.5/bw/001.png","","","appealing"
"","","","","","animation","94","848364","0.0-94.0","1920x1080","","4191.5999999940395","0","img/314/2.5/1/bw/001.png","","","appealing"
"","","","","","animation","95","853588","0.0-95.0","1920x1080","","5222.70000000298","63.36","img/314/4/1.5/bw/001.png","","","appealing"
"","","","","","animation","96","884591","0.0-96.0","1920x1080","","30997.90000000596","75","img/117/4.5/0.66667/bw/001.png","","","appealing"
"","","","","","animation","97","888875","0.0-97.0","1920x1080","","4283.0999999940395","13.49","img/314/3.5/0.5/bw/001.png","","","appealing"
"","","","","","animation","98","897111","0.0-98.0","1920x1080","","8234.70000000298","100","img/117/5.5/1.5/bw/001.png","","","appealing"
"","","","","","animation","99","902159","0.0-99.0","1920x1080","","5045.29999999702","100","img/314/5.5/1/bw/001.png","","","appealing"
"","","","","","animation","100","914464","0.0-100.0","1920x1080","","12302.90000000596","97","img/117/5.5/0.66667/bw/001.png","","","appealing"
"","","","","","animation","101","920058","0.0-101.0","1920x1080","","5593.79999999702","53","img/238/4.5/0.5/bw/001.png","","","appealing"
"","","","","","animation","102","924951","0.0-102.0","1920x1080","","4891.70000000298","39","img/117/3.5/1/bw/001.png","","","appealing"
"","","","","","animation","103","930615","0.0-103.0","1920x1080","","5662.70000000298","0.13","img/117/3.5/0.5/bw/001.png","","","appealing"
"","","","","","animation","104","936151","0.0-104.0","1920x1080","","5535.0999999940395","18.65","img/117/4/1/bw/001.png","","","appealing"
"","","","","","animation","105","939551","0.0-105.0","1920x1080","","3398.9000000059605","51.46","img/117/4.5/1/bw/001.png","","","appealing"
"","","","","","animation","106","996601","0.0-106.0","1920x1080","","57046.90000000596","78","img/117/4/2/bw/001.png","","","appealing"
"","","","","","animation","107","1003610","0.0-107.0","1920x1080","","7008.199999988079","89.68","img/314/3.5/2/bw/001.png","","","appealing"
"","","","","","animation","108","1006817","0.0-108.0","1920x1080","","3205.5999999940395","83.73","img/117/4/1.5/bw/001.png","","","appealing"
"","","","","","animation","109","1010076","0.0-109.0","1920x1080","","3257.7000000029802","25.00","img/238/3.5/0.66667/bw/001.png","","","appealing"
"","","","","","animation","110","1013476","0.0-110.0","1920x1080","","3398.5999999940395","100","img/314/4.5/1.5/bw/001.png","","","appealing"
"","","","","","animation","111","1016401","0.0-111.0","1920x1080","","2924.5999999940395","11.51","img/238/3.5/2/bw/001.png","","","appealing"
"","","","","","animation","112","1020009","0.0-112.0","1920x1080","","3606.5999999940395","0","img/314/2.5/1.5/bw/001.png","","","appealing"
"","","","","","animation","113","1028137","0.0-113.0","1920x1080","","8127.9000000059605","100","img/238/4.5/1.5/bw/001.png","","","appealing"
"","","","","","animation","114","1036998","0.0-114.0","1920x1080","","8862","51.98","img/314/4/2/bw/001.png","","","appealing"
"","","","","","animation","115","1041814","0.0-115.0","1920x1080","","4814.5","100","img/117/5.5/0.5/bw/001.png","","","appealing"
"","","","","","animation","116","1048814","0.0-116.0","1920x1080","","6998.70000000298","100","img/238/5.5/0.66667/bw/001.png","","","appealing"
"","","","","","animation","117","1052765","0.0-117.0","1920x1080","","3950.2000000029802","100","img/314/5.5/0.5/bw/001.png","","","appealing"
"","","","","","animation","118","1055722","0.0-118.0","1920x1080","","2954.300000011921","4.89","img/238/2.5/1/bw/001.png","","","appealing"
"","","","","","animation","119","1061941","0.0-119.0","1920x1080","","6218.5","50.53","img/238/4/1/bw/001.png","","","appealing"
"","","","","","animation","120","1071614","0.0-120.0","1920x1080","","9671.5","40.61","img/238/4/2/bw/001.png","","","appealing"
"","","","","","animation","121","1079989","0.0-121.0","1920x1080","","8374.39999999106","18.39","img/238/4/0.66667/bw/001.png","","","appealing"
"","","","","","animation","122","1084094","0.0-122.0","1920x1080","","4102.5","0.53","img/117/2.5/1.5/bw/001.png","","","appealing"
"","","","","","animation","123","1091122","0.0-123.0","1920x1080","","7026.79999999702","65.74","img/117/3.5/0.66667/bw/001.png","","","appealing"
"","","","","","animation","124","1097940","0.0-124.0","1920x1080","","6818.800000011921","0.40","img/314/2.5/0.5/bw/001.png","","","appealing"
"","","","","","animation","125","1104412","0.0-125.0","1920x1080","","6471.20000000298","9.52","img/314/2.5/2/bw/001.png","","","appealing"
"","","","","","animation","126","1109228","0.0-126.0","1920x1080","","4815.100000008941","100","img/117/4.5/2/bw/001.png","","","appealing"
"","","","","","animation","127","1113037","0.0-127.0","1920x1080","","3807.5","56.08","img/238/3.5/1/bw/001.png","","","appealing"
"","","","","","animation","128","1116437","0.0-128.0","1920x1080","","3399.4000000059605","58.07","img/238/4/1.5/bw/001.png","","","appealing"
"","","","","","animation","129","1122692","0.0-129.0","1920x1080","","6253.70000000298","69.97","img/238/4.5/0.66667/bw/001.png","","","appealing"
"","","","","","animation","130","1129164","0.0-130.0","1920x1080","","6470.5","71.69","img/314/4/1/bw/001.png","","","appealing"
"","","","","","animation","131","1133270","0.0-131.0","1920x1080","","4104.79999999702","0.00","img/238/2.5/1.5/bw/001.png","","","appealing"
"","","","","","animation","132","1142796","0.0-132.0","1920x1080","","9525.10000000894","28","img/117/4/0.5/bw/001.png","","","appealing"
"","","","","","animation","133","1147524","0.0-133.0","1920x1080","","4726.699999988079","0","img/314/2.5/0.66667/bw/001.png","","","appealing"
"","","","","","animation","134","1151503","0.0-134.0","1920x1080","","3978.2999999970198","54.89","img/117/4.5/0.5/bw/001.png","","","appealing"
"","","","","","animation","135","1156004","0.0-135.0","1920x1080","","4498.9000000059605","100","img/117/4.5/1.5/bw/001.png","","","appealing"
"","","","","","animation","136","1159849","0.0-136.0","1920x1080","","3839.2999999970198","57.80","img/314/4/0.66667/bw/001.png","","","appealing"
"","","","","","animation","137","1169569","0.0-137.0","1920x1080","","9718.5","6.08","img/117/2.5/2/bw/001.png","","","appealing"
"","","","","","animation","138","1175341","0.0-138.0","1920x1080","","5770.70000000298","1.59","img/314/3.5/0.66667/bw/001.png","","","appealing"
"","","","","","animation","139","1179633","0.0-139.0","1920x1080","","4290.5","-13.89","img/117/2.5/0.5/bw/001.png","","","appealing"
"","","","","","animation","140","1184985","0.0-140.0","1920x1080","","5350.70000000298","81","img/314/4/0.5/bw/001.png","","","appealing"
"","","","","","animation","141","1188075","0.0-141.0","1920x1080","","3088.2000000029802","-6.61","img/238/2.5/0.66667/bw/001.png","","","appealing"
"","","","","","animation","142","1191433","0.0-142.0","1920x1080","","3357.3999999910593","100","img/238/4.5/2/bw/001.png","","","appealing"
"","","","","","animation","143","1196185","0.0-143.0","1920x1080","","4750.9000000059605","114.29","img/238/5.5/2/bw/001.png","","","appealing"
"","","","","","animation","144","1202725","0.0-144.0","1920x1080","","6537.9000000059605","81","img/314/4.5/1/bw/001.png","","","appealing"
"","","","","","animation","145","1207185","0.0-145.0","1920x1080","","4458.70000000298","59.92","img/314/3.5/1/bw/001.png","","","appealing"
"","","","","","animation","146","1211009","0.0-146.0","1920x1080","","3821.7000000029802","-1.98","img/238/2.5/0.5/bw/001.png","","","appealing"
"","","","","","animation","147","1216849","0.0-147.0","1920x1080","","5839.20000000298","100","img/117/5.5/1/bw/001.png","","","appealing"
"","","","","","animation","148","1220853","0.0-148.0","1920x1080","","3998.6000000089407","100","img/314/5.5/1.5/bw/001.png","","","appealing"
"","","","","","animation","149","1225972","0.0-149.0","1920x1080","","5118.4000000059605","100","img/117/5.5/2/bw/001.png","","","appealing"
"","","","","","animation","150","1231045","0.0-150.0","1920x1080","","5070.29999999702","0.00","img/238/2.5/2/bw/001.png","","","appealing"
"","","","","","animation","151","1238745","0.0-151.0","1920x1080","","7698.899999991059","100","img/314/5.5/2/bw/001.png","","","appealing"
"","","","","","animation","152","1245069","0.0-152.0","1920x1080","","6320.9000000059605","0","img/117/2.5/0.66667/bw/001.png","","","appealing"
"","","","","","animation","153","1263780","0.0-153.0","1920x1080","","18710.39999999106","50.93","img/314/4.5/0.5/bw/001.png","","","appealing"
"","","","","","animation","154","1266412","0.0-154.0","1920x1080","","2630.5999999940395","30.29","img/117/3.5/2/bw/001.png","","","appealing"
"","","","","","animation","155","1274621","0.0-155.0","1920x1080","","8207.199999988079","74","img/314/4.5/2/bw/001.png","","","appealing"
"","","","","","animation","156","1283183","0.0-156.0","1920x1080","","8566.59999999404","100","img/238/5.5/0.5/bw/001.png","","","appealing"
"","","","","","animation","157","1292706","0.0-157.0","1920x1080","","9515.79999999702","18.39","img/314/3.5/1.5/bw/001.png","","","appealing"
"","","","","","animation","158","1298543","0.0-158.0","1920x1080","","5835.0999999940395","49.87","img/117/4/0.66667/bw/001.png","","","appealing"
"","","","","","html-button-response","159","1318712","0.0-159.0","1920x1080","","20166.79999999702","","<div class=""intro"">You are about to view a new series of animations.<br><br></div><div class=""intro"">You will evaluate them based on a different descriptor.<br><br></div><div class=""intro"">Move the slider to indicate how <strong style=""text-transform:capitalize"">NATURAL</strong> you find each animation.<br><br></div><div class=""intro"">0 = Least Natural<br></div><div class=""intro"">1 = Most Natural<br><br></div><div class=""intro"">Remember to use the <strong><em>entire range</em></strong> of the slider to make your ratings.<br></div><div class=""intro"">Please <strong><em>take your time</em></strong> and carefully consider each rating you make.<br><br></div>","0","",""
"","","","","","call-function","160","1318713","0.0-160.0","1920x1080","","","","","","",""
"","","","","","animation","161","1332791","0.0-161.0","1920x1080","","14077.5","50","img/117/3.5/1.5/bw/001.png","","","natural"
"","","","","","animation","162","1341126","0.0-162.0","1920x1080","","8331.800000011921","94","img/238/4/0.66667/bw/001.png","","","natural"
"","","","","","animation","163","1345225","0.0-163.0","1920x1080","","4097.20000000298","34.92","img/117/4/1/bw/001.png","","","natural"
"","","","","","animation","164","1350441","0.0-164.0","1920x1080","","5215","9.79","img/238/4.5/2/bw/001.png","","","natural"
"","","","","","animation","165","1355697","0.0-165.0","1920x1080","","5253.899999991059","25.26","img/238/4.5/1.5/bw/001.png","","","natural"
"","","","","","animation","166","1363001","0.0-166.0","1920x1080","","7302.9000000059605","77.51","img/314/3.5/1/bw/001.png","","","natural"
"","","","","","animation","167","1366177","0.0-167.0","1920x1080","","3174.1000000089407","68.25","img/238/4/1.5/bw/001.png","","","natural"
"","","","","","animation","168","1378842","0.0-168.0","1920x1080","","12663.70000000298","52.12","img/314/4.5/2/bw/001.png","","","natural"
"","","","","","animation","169","1393149","0.0-169.0","1920x1080","","14306","95","img/238/5.5/1.5/bw/001.png","","","natural"
"","","","","","animation","170","1403233","0.0-170.0","1920x1080","","10082.20000000298","27","img/314/4.5/1.5/bw/001.png","","","natural"
"","","","","","animation","171","1406307","0.0-171.0","1920x1080","","3073","100","img/238/2.5/1.5/bw/001.png","","","natural"
"","","","","","animation","172","1412757","0.0-172.0","1920x1080","","6449.20000000298","73.81","img/117/4/0.66667/bw/001.png","","","natural"
"","","","","","animation","173","1422681","0.0-173.0","1920x1080","","9921.79999999702","36","img/314/4/2/bw/001.png","","","natural"
"","","","","","animation","174","1449801","0.0-174.0","1920x1080","","27117","52.38","img/117/3.5/2/bw/001.png","","","natural"
"","","","","","animation","175","1453801","0.0-175.0","1920x1080","","3998.3999999910593","50.26","img/238/3.5/1.5/bw/001.png","","","natural"
"","","","","","animation","176","1457999","0.0-176.0","1920x1080","","4198.70000000298","60.19","img/238/3.5/1/bw/001.png","","","natural"
"","","","","","animation","177","1466855","0.0-177.0","1920x1080","","8854.70000000298","83.73","img/238/5.5/0.5/bw/001.png","","","natural"
"","","","","","animation","178","1470927","0.0-178.0","1920x1080","","4070.5999999940395","96","img/117/4/0.5/bw/001.png","","","natural"
"","","","","","animation","179","1476447","0.0-179.0","1920x1080","","5518.70000000298","3.97","img/314/5.5/1.5/bw/001.png","","","natural"
"","","","","","animation","180","1484272","0.0-180.0","1920x1080","","7822.899999991059","88.49","img/117/3.5/0.66667/bw/001.png","","","natural"
"","","","","","animation","181","1488572","0.0-181.0","1920x1080","","4297.800000011921","99","img/238/3.5/0.66667/bw/001.png","","","natural"
"","","","","","animation","182","1492338","0.0-182.0","1920x1080","","3765.300000011921","65.08","img/238/4/0.5/bw/001.png","","","natural"
"","","","","","animation","183","1500323","0.0-183.0","1920x1080","","7983.5","94","img/314/3.5/0.5/bw/001.png","","","natural"
"","","","","","animation","184","1503879","0.0-184.0","1920x1080","","3554.7999999970198","94.97","img/314/4/0.66667/bw/001.png","","","natural"
"","","","","","animation","185","1518672","0.0-185.0","1920x1080","","14791.40000000596","51.72","img/314/3.5/1.5/bw/001.png","","","natural"
"","","","","","animation","186","1525823","0.0-186.0","1920x1080","","7149.899999991059","66.67","img/117/4.5/0.5/bw/001.png","","","natural"
"","","","","","animation","187","1535404","0.0-187.0","1920x1080","","9579.60000000894","10.71","img/238/5.5/2/bw/001.png","","","natural"
"","","","","","animation","188","1543242","0.0-188.0","1920x1080","","7835.100000008941","22.49","img/314/5.5/0.5/bw/001.png","","","natural"
"","","","","","animation","189","1551422","0.0-189.0","1920x1080","","8177.699999988079","100","img/117/2.5/2/bw/001.png","","","natural"
"","","","","","animation","190","1568337","0.0-190.0","1920x1080","","16913.5","15.61","img/238/5.5/0.66667/bw/001.png","","","natural"
"","","","","","animation","191","1573790","0.0-191.0","1920x1080","","5448.20000000298","80.82","img/117/4/1.5/bw/001.png","","","natural"
"","","","","","animation","192","1576993","0.0-192.0","1920x1080","","3198.6000000089407","35.85","img/117/4.5/2/bw/001.png","","","natural"
"","","","","","animation","193","1581865","0.0-193.0","1920x1080","","4871.199999988079","35","img/117/4.5/1.5/bw/001.png","","","natural"
"","","","","","animation","194","1586513","0.0-194.0","1920x1080","","4646.0999999940395","50.79","img/238/3.5/2/bw/001.png","","","natural"
"","","","","","animation","195","1595545","0.0-195.0","1920x1080","","9030","99","img/117/2.5/1.5/bw/001.png","","","natural"
"","","","","","animation","196","1602377","0.0-196.0","1920x1080","","6830","43","img/238/4/1/bw/001.png","","","natural"
"","","","","","animation","197","1605606","0.0-197.0","1920x1080","","3227.7999999970198","71","img/314/4/1/bw/001.png","","","natural"
"","","","","","animation","198","1610513","0.0-198.0","1920x1080","","4905.5","105.29","img/117/2.5/0.5/bw/001.png","","","natural"
"","","","","","animation","199","1621274","0.0-199.0","1920x1080","","10758.40000000596","41","img/314/4.5/1/bw/001.png","","","natural"
"","","","","","animation","200","1627090","0.0-200.0","1920x1080","","5814.29999999702","20.77","img/117/5.5/0.66667/bw/001.png","","","natural"
"","","","","","animation","201","1644206","0.0-201.0","1920x1080","","17115.40000000596","46.56","img/117/5.5/0.5/bw/001.png","","","natural"
"","","","","","animation","202","1647823","0.0-202.0","1920x1080","","3615.300000011921","75.40","img/314/4/0.5/bw/001.png","","","natural"
"","","","","","animation","203","1656513","0.0-203.0","1920x1080","","8688.70000000298","50.66","img/314/5.5/2/bw/001.png","","","natural"
"","","","","","animation","204","1660297","0.0-204.0","1920x1080","","3781.8999999910593","24.74","img/238/5.5/1/bw/001.png","","","natural"
"","","","","","animation","205","1673623","0.0-205.0","1920x1080","","13324.70000000298","107.41","img/314/2.5/0.66667/bw/001.png","","","natural"
"","","","","","animation","206","1677929","0.0-206.0","1920x1080","","4302","105.16","img/238/2.5/1/bw/001.png","","","natural"
"","","","","","animation","207","1682209","0.0-207.0","1920x1080","","4278.0999999940395","123.41","img/238/2.5/2/bw/001.png","","","natural"
"","","","","","animation","208","1691929","0.0-208.0","1920x1080","","9718.5","49.47","img/238/4.5/0.66667/bw/001.png","","","natural"
"","","","","","animation","209","1694809","0.0-209.0","1920x1080","","2878.5","100","img/238/2.5/0.66667/bw/001.png","","","natural"
"","","","","","animation","210","1697463","0.0-210.0","1920x1080","","2662.7999999970198","64.68","img/314/4.5/0.5/bw/001.png","","","natural"
"","","","","","animation","211","1703515","0.0-211.0","1920x1080","","6050.399999991059","10","img/314/5.5/1/bw/001.png","","","natural"
"","","","","","animation","212","1706983","0.0-212.0","1920x1080","","3466.6000000089407","12.17","img/314/5.5/0.66667/bw/001.png","","","natural"
"","","","","","animation","213","1719647","0.0-213.0","1920x1080","","12662.29999999702","91","img/117/2.5/1/bw/001.png","","","natural"
"","","","","","animation","214","1722871","0.0-214.0","1920x1080","","3223","95","img/238/2.5/0.5/bw/001.png","","","natural"
"","","","","","animation","215","1727015","0.0-215.0","1920x1080","","4142.5999999940395","31.22","img/117/4.5/0.66667/bw/001.png","","","natural"
"","","","","","animation","216","1737764","0.0-216.0","1920x1080","","10746.20000000298","79.76","img/117/4/2/bw/001.png","","","natural"
"","","","","","animation","217","1741215","0.0-217.0","1920x1080","","3450.4000000059605","47.75","img/314/3.5/2/bw/001.png","","","natural"
"","","","","","animation","218","1747136","0.0-218.0","1920x1080","","5919","22.88","img/117/5.5/1.5/bw/001.png","","","natural"
"","","","","","animation","219","1749863","0.0-219.0","1920x1080","","2726.5","94.05","img/314/2.5/0.5/bw/001.png","","","natural"
"","","","","","animation","220","1752797","0.0-220.0","1920x1080","","2932.5999999940395","86","img/238/3.5/0.5/bw/001.png","","","natural"
"","","","","","animation","221","1762862","0.0-221.0","1920x1080","","10057.20000000298","74","img/314/2.5/1.5/bw/001.png","","","natural"
"","","","","","animation","222","1773422","0.0-222.0","1920x1080","","10557.20000000298","52.25","img/117/3.5/1/bw/001.png","","","natural"
"","","","","","animation","223","1787420","0.0-223.0","1920x1080","","13997.10000000894","61","img/314/3.5/0.66667/bw/001.png","","","natural"
"","","","","","animation","224","1793438","0.0-224.0","1920x1080","","6015.4000000059605","27","img/238/4.5/0.5/bw/001.png","","","natural"
"","","","","","animation","225","1796438","0.0-225.0","1920x1080","","2996.8999999910593","44.31","img/314/4.5/0.66667/bw/001.png","","","natural"
"","","","","","animation","226","1809036","0.0-226.0","1920x1080","","12597.20000000298","25.00","img/238/4.5/1/bw/001.png","","","natural"
"","","","","","animation","227","1811936","0.0-227.0","1920x1080","","2898.7999999970198","13.49","img/117/5.5/2/bw/001.png","","","natural"
"","","","","","animation","228","1815262","0.0-228.0","1920x1080","","3324.7000000029802","12.57","img/117/5.5/1/bw/001.png","","","natural"
"","","","","","animation","229","1818906","0.0-229.0","1920x1080","","3639.2999999970198","50.00","img/314/4/1.5/bw/001.png","","","natural"
"","","","","","animation","230","1825040","0.0-230.0","1920x1080","","6133.0999999940395","85","img/117/3.5/0.5/bw/001.png","","","natural"
"","","","","","animation","231","1830922","0.0-231.0","1920x1080","","5880.300000011921","23.68","img/238/4/2/bw/001.png","","","natural"
"","","","","","animation","232","1840208","0.0-232.0","1920x1080","","9284.40000000596","105.29","img/117/2.5/0.66667/bw/001.png","","","natural"
"","","","","","animation","233","1847621","0.0-233.0","1920x1080","","7410.100000008941","100","img/314/2.5/2/bw/001.png","","","natural"
"","","","","","animation","234","1854488","0.0-234.0","1920x1080","","6865.20000000298","113.89","img/314/2.5/1/bw/001.png","","","natural"
"","","","","","animation","235","1866560","0.0-235.0","1920x1080","","12069.40000000596","37.57","img/117/4.5/1/bw/001.png","","","natural"
"","","","","","html-button-response","236","1885944","0.0-236.0","1920x1080","","19375.30000001192","","<div class=""intro"">You are about to view a new series of animations.<br><br></div><div class=""intro"">You will evaluate them based on a different descriptor.<br><br></div><div class=""intro"">Move the slider to indicate how <strong style=""text-transform:capitalize"">RELAXING</strong> you find each animation.<br><br></div><div class=""intro"">0 = Least Relaxing<br></div><div class=""intro"">1 = Most Relaxing<br><br></div><div class=""intro"">Remember to use the <strong><em>entire range</em></strong> of the slider to make your ratings.<br></div><div class=""intro"">Please <strong><em>take your time</em></strong> and carefully consider each rating you make.<br><br></div>","0","",""
"","","","","","call-function","237","1885945","0.0-237.0","1920x1080","","","","","","",""
"","","","","","animation","238","1890303","0.0-238.0","1920x1080","","4357.600000008941","0.53","img/314/2.5/1.5/bw/001.png","","","relaxing"
"","","","","","animation","239","1892829","0.0-239.0","1920x1080","","2524.6000000089407","0.93","img/238/2.5/2/bw/001.png","","","relaxing"
"","","","","","animation","240","1895095","0.0-240.0","1920x1080","","2265","34.39","img/238/4/1.5/bw/001.png","","","relaxing"
"","","","","","animation","241","1899063","0.0-241.0","1920x1080","","3966.2999999970198","100","img/117/5.5/1.5/bw/001.png","","","relaxing"
"","","","","","animation","242","1904579","0.0-242.0","1920x1080","","5514.5","23.68","img/117/3.5/1/bw/001.png","","","relaxing"
"","","","","","animation","243","1907087","0.0-243.0","1920x1080","","2507.3999999910593","80","img/314/4/1.5/bw/001.png","","","relaxing"
"","","","","","animation","244","1909579","0.0-244.0","1920x1080","","2489.9000000059605","0.53","img/117/2.5/1/bw/001.png","","","relaxing"
"","","","","","animation","245","1915319","0.0-245.0","1920x1080","","5739.399999991059","0.40","img/314/2.5/0.66667/bw/001.png","","","relaxing"
"","","","","","animation","246","1918319","0.0-246.0","1920x1080","","2997.5","87.83","img/238/4/2/bw/001.png","","","relaxing"
"","","","","","animation","247","1921979","0.0-247.0","1920x1080","","3658.5","58.99","img/117/4/1.5/bw/001.png","","","relaxing"
"","","","","","animation","248","1927012","0.0-248.0","1920x1080","","5031.4000000059605","40.74","img/238/4.5/0.5/bw/001.png","","","relaxing"
"","","","","","animation","249","1929399","0.0-249.0","1920x1080","","2386.300000011921","42.99","img/117/4.5/1.5/bw/001.png","","","relaxing"
"","","","","","animation","250","1931247","0.0-250.0","1920x1080","","1846.2999999970198","47.88","img/117/4/2/bw/001.png","","","relaxing"
"","","","","","animation","251","1934415","0.0-251.0","1920x1080","","3166.7000000029802","25","img/314/4.5/0.5/bw/001.png","","","relaxing"
"","","","","","animation","252","1937592","0.0-252.0","1920x1080","","3183.1000000089407","-4.10","img/314/2.5/1/bw/001.png","","","relaxing"
"","","","","","animation","253","1945938","0.0-253.0","1920x1080","","8344.5","0","img/238/2.5/1/bw/001.png","","","relaxing"
"","","","","","animation","254","1949505","0.0-254.0","1920x1080","","3565.2999999970198","53.31","img/117/4/0.66667/bw/001.png","","","relaxing"
"","","","","","animation","255","1952496","0.0-255.0","1920x1080","","2989.4000000059605","48.68","img/314/4/0.66667/bw/001.png","","","relaxing"
"","","","","","animation","256","1956888","0.0-256.0","1920x1080","","4390.79999999702","4","img/117/3.5/0.5/bw/001.png","","","relaxing"
"","","","","","animation","257","1960592","0.0-257.0","1920x1080","","3703.1000000089407","77.91","img/314/4.5/2/bw/001.png","","","relaxing"
"","","","","","animation","258","1964673","0.0-258.0","1920x1080","","4079.1000000089407","73.94","img/238/4.5/2/bw/001.png","","","relaxing"
"","","","","","animation","259","1967824","0.0-259.0","1920x1080","","3149.4000000059605","-6.08","img/314/2.5/0.5/bw/001.png","","","relaxing"
"","","","","","animation","260","1970238","0.0-260.0","1920x1080","","2413","-43.12","img/314/2.5/2/bw/001.png","","","relaxing"
"","","","","","animation","261","1973655","0.0-261.0","1920x1080","","3415.2999999970198","100","img/238/5.5/1.5/bw/001.png","","","relaxing"
"","","","","","animation","262","1976296","0.0-262.0","1920x1080","","2639.7000000029802","100","img/314/5.5/1.5/bw/001.png","","","relaxing"
"","","","","","animation","263","1979938","0.0-263.0","1920x1080","","3640.5","74.21","img/238/4.5/1/bw/001.png","","","relaxing"
"","","","","","animation","264","1983544","0.0-264.0","1920x1080","","3604.2000000029802","100","img/238/5.5/0.5/bw/001.png","","","relaxing"
"","","","","","animation","265","1987224","0.0-265.0","1920x1080","","3677.7000000029802","100","img/314/5.5/2/bw/001.png","","","relaxing"
"","","","","","animation","266","1995139","0.0-266.0","1920x1080","","7912.9000000059605","-5.16","img/238/2.5/1.5/bw/001.png","","","relaxing"
"","","","","","animation","267","1999311","0.0-267.0","1920x1080","","4172.5","32.54","img/238/4/0.66667/bw/001.png","","","relaxing"
"","","","","","animation","268","2004591","0.0-268.0","1920x1080","","5278","80.56","img/117/4.5/0.66667/bw/001.png","","","relaxing"
"","","","","","animation","269","2011095","0.0-269.0","1920x1080","","6502.4000000059605","86.38","img/117/4.5/0.5/bw/001.png","","","relaxing"
"","","","","","animation","270","2014327","0.0-270.0","1920x1080","","3230.5999999940395","43.65","img/314/4/1/bw/001.png","","","relaxing"
"","","","","","animation","271","2018711","0.0-271.0","1920x1080","","4382.5999999940395","24.74","img/238/3.5/0.66667/bw/001.png","","","relaxing"
"","","","","","animation","272","2020553","0.0-272.0","1920x1080","","1839.2000000029802","26.19","img/314/3.5/1/bw/001.png","","","relaxing"
"","","","","","animation","273","2023154","0.0-273.0","1920x1080","","2599.2000000029802","42.33","img/314/4/2/bw/001.png","","","relaxing"
"","","","","","animation","274","2025871","0.0-274.0","1920x1080","","2715.9000000059605","-10.85","img/117/2.5/2/bw/001.png","","","relaxing"
"","","","","","animation","275","2028420","0.0-275.0","1920x1080","","2548.5","80","img/314/4.5/1.5/bw/001.png","","","relaxing"
"","","","","","animation","276","2031370","0.0-276.0","1920x1080","","2948.5999999940395","74.47","img/314/4.5/0.66667/bw/001.png","","","relaxing"
"","","","","","animation","277","2143912","0.0-277.0","1920x1080","","112531.39999999106","46.83","img/238/4/1/bw/001.png","","","relaxing"
"","","","","","animation","278","2145552","0.0-278.0","1920x1080","","1634.8999999910593","56.35","img/117/4.5/1/bw/001.png","","","relaxing"
"","","","","","animation","279","2150229","0.0-279.0","1920x1080","","4675.5","100","img/238/5.5/1/bw/001.png","","","relaxing"
"","","","","","animation","280","2153919","0.0-280.0","1920x1080","","3688.7000000029802","0","img/314/3.5/0.5/bw/001.png","","","relaxing"
"","","","","","animation","281","2156411","0.0-281.0","1920x1080","","2491.3999999910593","22","img/238/4.5/0.66667/bw/001.png","","","relaxing"
"","","","","","animation","282","2158995","0.0-282.0","1920x1080","","2582.4000000059605","1.32","img/117/3.5/0.66667/bw/001.png","","","relaxing"
"","","","","","animation","283","2161670","0.0-283.0","1920x1080","","2673.5999999940395","88.36","img/238/5.5/0.66667/bw/001.png","","","relaxing"
"","","","","","animation","284","2164168","0.0-284.0","1920x1080","","2496.1000000089407","0","img/117/2.5/0.5/bw/001.png","","","relaxing"
"","","","","","animation","285","2166152","0.0-285.0","1920x1080","","1982.7999999970198","50.13","img/314/4.5/1/bw/001.png","","","relaxing"
"","","","","","animation","286","2168476","0.0-286.0","1920x1080","","2323","57.01","img/117/4/1/bw/001.png","","","relaxing"
"","","","","","animation","287","2171328","0.0-287.0","1920x1080","","2851","0.00","img/117/2.5/0.66667/bw/001.png","","","relaxing"
"","","","","","animation","288","2173112","0.0-288.0","1920x1080","","1782.5","71.56","img/117/5.5/0.66667/bw/001.png","","","relaxing"
"","","","","","animation","289","2175129","0.0-289.0","1920x1080","","2013.9000000059605","48.02","img/117/3.5/2/bw/001.png","","","relaxing"
"","","","","","animation","290","2178360","0.0-290.0","1920x1080","","3238.199999988079","50.53","img/238/3.5/1.5/bw/001.png","","","relaxing"
"","","","","","animation","291","2180960","0.0-291.0","1920x1080","","2599","99","img/314/5.5/1/bw/001.png","","","relaxing"
"","","","","","animation","292","2184024","0.0-292.0","1920x1080","","3062.5","100","img/117/5.5/2/bw/001.png","","","relaxing"
"","","","","","animation","293","2186976","0.0-293.0","1920x1080","","2950.5999999940395","0","img/238/2.5/0.5/bw/001.png","","","relaxing"
"","","","","","animation","294","2191078","0.0-294.0","1920x1080","","4100.399999991059","1.32","img/117/3.5/1.5/bw/001.png","","","relaxing"
"","","","","","animation","295","2194113","0.0-295.0","1920x1080","","3032.7999999970198","21.03","img/314/4/0.5/bw/001.png","","","relaxing"
"","","","","","animation","296","2196672","0.0-296.0","1920x1080","","2557.800000011921","82.94","img/238/4.5/1.5/bw/001.png","","","relaxing"
"","","","","","animation","297","2199328","0.0-297.0","1920x1080","","2654.8999999910593","100","img/117/5.5/1/bw/001.png","","","relaxing"
"","","","","","animation","298","2202240","0.0-298.0","1920x1080","","2910.5","50.79","img/314/3.5/2/bw/001.png","","","relaxing"
"","","","","","animation","299","2204647","0.0-299.0","1920x1080","","2405.7000000029802","53","img/314/3.5/1.5/bw/001.png","","","relaxing"
"","","","","","animation","300","2208625","0.0-300.0","1920x1080","","3976.7999999970198","44.97","img/238/3.5/2/bw/001.png","","","relaxing"
"","","","","","animation","301","2214672","0.0-301.0","1920x1080","","6045.5","14.29","img/117/4/0.5/bw/001.png","","","relaxing"
"","","","","","animation","302","2217596","0.0-302.0","1920x1080","","2923.0999999940395","2.12","img/238/2.5/0.66667/bw/001.png","","","relaxing"
"","","","","","animation","303","2221796","0.0-303.0","1920x1080","","4198.4000000059605","100","img/238/5.5/2/bw/001.png","","","relaxing"
"","","","","","animation","304","2226571","0.0-304.0","1920x1080","","4773.20000000298","100","img/314/5.5/0.66667/bw/001.png","","","relaxing"
"","","","","","animation","305","2231305","0.0-305.0","1920x1080","","4732.79999999702","53.17","img/314/3.5/0.66667/bw/001.png","","","relaxing"
"","","","","","animation","306","2236575","0.0-306.0","1920x1080","","5268.600000008941","100","img/314/5.5/0.5/bw/001.png","","","relaxing"
"","","","","","animation","307","2241251","0.0-307.0","1920x1080","","4666","1.72","img/117/2.5/1.5/bw/001.png","","","relaxing"
"","","","","","animation","308","2243462","0.0-308.0","1920x1080","","2210","53.17","img/238/4/0.5/bw/001.png","","","relaxing"
"","","","","","animation","309","2247418","0.0-309.0","1920x1080","","3954.800000011921","82.01","img/117/4.5/2/bw/001.png","","","relaxing"
"","","","","","animation","310","2250066","0.0-310.0","1920x1080","","2646.7999999970198","99","img/117/5.5/0.5/bw/001.png","","","relaxing"
"","","","","","animation","311","2252232","0.0-311.0","1920x1080","","2163.9000000059605","47.35","img/238/3.5/1/bw/001.png","","","relaxing"
"","","","","","animation","312","2255505","0.0-312.0","1920x1080","","3271.5","3","img/238/3.5/0.5/bw/001.png","","","relaxing"
"","","","","","html-button-response","313","2273677","0.0-313.0","1920x1080","","18170","","<div class=""intro"">You are about to view a new series of animations.<br><br></div><div class=""intro"">You will evaluate them based on a different descriptor.<br><br></div><div class=""intro"">Move the slider to indicate how <strong style=""text-transform:capitalize"">INTERESTING</strong> you find each animation.<br><br></div><div class=""intro"">0 = Least Interesting<br></div><div class=""intro"">1 = Most Interesting<br><br></div><div class=""intro"">Remember to use the <strong><em>entire range</em></strong> of the slider to make your ratings.<br></div><div class=""intro"">Please <strong><em>take your time</em></strong> and carefully consider each rating you make.<br><br></div>","0","",""
"","","","","","call-function","314","2273679","0.0-314.0","1920x1080","","","","","","",""
"","","","","","animation","315","2275768","0.0-315.0","1920x1080","","2088.199999988079","35.85","img/314/3.5/2/bw/001.png","","","interesting"
"","","","","","animation","316","2278584","0.0-316.0","1920x1080","","2814.5999999940395","0","img/238/2.5/1/bw/001.png","","","interesting"
"","","","","","animation","317","2281465","0.0-317.0","1920x1080","","2879.7000000029802","3.57","img/117/2.5/0.66667/bw/001.png","","","interesting"
"","","","","","animation","318","2284262","0.0-318.0","1920x1080","","2794.4000000059605","91","img/238/5.5/0.5/bw/001.png","","","interesting"
"","","","","","animation","319","2286365","0.0-319.0","1920x1080","","2101.5","57.54","img/238/4/1/bw/001.png","","","interesting"
"","","","","","animation","320","2289933","0.0-320.0","1920x1080","","3567.2999999970198","20.63","img/238/2.5/0.5/bw/001.png","","","interesting"
"","","","","","animation","321","2291903","0.0-321.0","1920x1080","","1967.7999999970198","38.49","img/117/4.5/2/bw/001.png","","","interesting"
"","","","","","animation","322","2294788","0.0-322.0","1920x1080","","2883.699999988079","34.39","img/117/4/0.5/bw/001.png","","","interesting"
"","","","","","animation","323","2297627","0.0-323.0","1920x1080","","2843.7000000029802","0.79","img/238/2.5/2/bw/001.png","","","interesting"
"","","","","","animation","324","2302475","0.0-324.0","1920x1080","","4847.20000000298","78","img/238/5.5/2/bw/001.png","","","interesting"
"","","","","","animation","325","2306905","0.0-325.0","1920x1080","","4427.5999999940395","1.59","img/238/2.5/0.66667/bw/001.png","","","interesting"
"","","","","","animation","326","2309961","0.0-326.0","1920x1080","","3054.4000000059605","99","img/314/5.5/1.5/bw/001.png","","","interesting"
"","","","","","animation","327","2313388","0.0-327.0","1920x1080","","3424.9000000059605","99","img/117/5.5/0.66667/bw/001.png","","","interesting"
"","","","","","animation","328","2316451","0.0-328.0","1920x1080","","3061.7999999970198","75.26","img/238/4.5/0.66667/bw/001.png","","","interesting"
"","","","","","animation","329","2318905","0.0-329.0","1920x1080","","2451.3999999910593","71.30","img/314/4.5/1/bw/001.png","","","interesting"
"","","","","","animation","330","2322524","0.0-330.0","1920x1080","","3618.2999999970198","15.61","img/117/3.5/0.5/bw/001.png","","","interesting"
"","","","","","animation","331","2325258","0.0-331.0","1920x1080","","2731.5","30","img/238/3.5/2/bw/001.png","","","interesting"
"","","","","","animation","332","2330477","0.0-332.0","1920x1080","","5217.899999991059","91.14","img/314/5.5/0.66667/bw/001.png","","","interesting"
"","","","","","animation","333","2332627","0.0-333.0","1920x1080","","2148.7000000029802","50.13","img/238/4/0.66667/bw/001.png","","","interesting"
"","","","","","animation","334","2336860","0.0-334.0","1920x1080","","4231.79999999702","67.46","img/238/3.5/1.5/bw/001.png","","","interesting"
"","","","","","animation","335","2340412","0.0-335.0","1920x1080","","3550.4000000059605","91.93","img/117/5.5/0.5/bw/001.png","","","interesting"
"","","","","","animation","336","2345488","0.0-336.0","1920x1080","","5074.399999991059","74","img/314/4.5/1.5/bw/001.png","","","interesting"
"","","","","","animation","337","2347660","0.0-337.0","1920x1080","","2170.4000000059605","67.99","img/117/4.5/0.66667/bw/001.png","","","interesting"
"","","","","","animation","338","2350822","0.0-338.0","1920x1080","","3160.2000000029802","21.96","img/117/3.5/1.5/bw/001.png","","","interesting"
"","","","","","animation","339","2355490","0.0-339.0","1920x1080","","4666.70000000298","49.34","img/314/4/2/bw/001.png","","","interesting"
"","","","","","animation","340","2368343","0.0-340.0","1920x1080","","12856.59999999404","0","img/117/2.5/1.5/bw/001.png","","","interesting"
"","","","","","animation","341","2370573","0.0-341.0","1920x1080","","2228","82.01","img/314/5.5/0.5/bw/001.png","","","interesting"
"","","","","","animation","342","2373723","0.0-342.0","1920x1080","","3147.8999999910593","23.68","img/314/3.5/1/bw/001.png","","","interesting"
"","","","","","animation","343","2375625","0.0-343.0","1920x1080","","1899.8999999910593","89.95","img/238/3.5/1/bw/001.png","","","interesting"
"","","","","","animation","344","2377401","0.0-344.0","1920x1080","","1774.9000000059605","52.25","img/117/3.5/2/bw/001.png","","","interesting"
"","","","","","animation","345","2381750","0.0-345.0","1920x1080","","4347.800000011921","48.28","img/238/4.5/1.5/bw/001.png","","","interesting"
"","","","","","animation","346","2384670","0.0-346.0","1920x1080","","2918.5","5.69","img/117/2.5/0.5/bw/001.png","","","interesting"
"","","","","","animation","347","2388053","0.0-347.0","1920x1080","","3381.1000000089407","3.17","img/117/3.5/1/bw/001.png","","","interesting"
"","","","","","animation","348","2390904","0.0-348.0","1920x1080","","2850.5","41","img/117/4/0.66667/bw/001.png","","","interesting"
"","","","","","animation","349","2394402","0.0-349.0","1920x1080","","3496.4000000059605","0.00","img/117/2.5/1/bw/001.png","","","interesting"
"","","","","","animation","350","2397173","0.0-350.0","1920x1080","","2769","8","img/314/3.5/0.5/bw/001.png","","","interesting"
"","","","","","animation","351","2399667","0.0-351.0","1920x1080","","2493.1000000089407","10","img/314/2.5/0.66667/bw/001.png","","","interesting"
"","","","","","animation","352","2407701","0.0-352.0","1920x1080","","8032.20000000298","45","img/117/4/1/bw/001.png","","","interesting"
"","","","","","animation","353","2410643","0.0-353.0","1920x1080","","2940.2000000029802","51.19","img/238/4/0.5/bw/001.png","","","interesting"
"","","","","","animation","354","2413095","0.0-354.0","1920x1080","","2450.5","57.94","img/117/4/2/bw/001.png","","","interesting"
"","","","","","animation","355","2416168","0.0-355.0","1920x1080","","3072.2000000029802","0","img/314/2.5/2/bw/001.png","","","interesting"
"","","","","","animation","356","2418804","0.0-356.0","1920x1080","","2630.5999999940395","72","img/117/4/1.5/bw/001.png","","","interesting"
"","","","","","animation","357","2421240","0.0-357.0","1920x1080","","2434","85.05","img/314/4.5/2/bw/001.png","","","interesting"
"","","","","","animation","358","2424672","0.0-358.0","1920x1080","","3430.5","71.69","img/314/4.5/0.66667/bw/001.png","","","interesting"
"","","","","","animation","359","2426776","0.0-359.0","1920x1080","","2102.6000000089407","73","img/238/4.5/1/bw/001.png","","","interesting"
"","","","","","animation","360","2431704","0.0-360.0","1920x1080","","4926.199999988079","0","img/314/2.5/0.5/bw/001.png","","","interesting"
"","","","","","animation","361","2444296","0.0-361.0","1920x1080","","12590.5","99","img/238/5.5/0.66667/bw/001.png","","","interesting"
"","","","","","animation","362","2449364","0.0-362.0","1920x1080","","5064.5","44.71","img/238/4/2/bw/001.png","","","interesting"
"","","","","","animation","363","2452263","0.0-363.0","1920x1080","","2897.1000000089407","47.75","img/117/4.5/1.5/bw/001.png","","","interesting"
"","","","","","animation","364","2459422","0.0-364.0","1920x1080","","7157.899999991059","86.38","img/314/5.5/2/bw/001.png","","","interesting"
"","","","","","animation","365","2462594","0.0-365.0","1920x1080","","3168.8999999910593","100","img/117/5.5/1/bw/001.png","","","interesting"
"","","","","","animation","366","2465288","0.0-366.0","1920x1080","","2692.7000000029802","-3.57","img/314/2.5/1/bw/001.png","","","interesting"
"","","","","","animation","367","2467811","0.0-367.0","1920x1080","","2521.4000000059605","87","img/117/5.5/2/bw/001.png","","","interesting"
"","","","","","animation","368","2471961","0.0-368.0","1920x1080","","4148.20000000298","-1.19","img/238/4.5/2/bw/001.png","","","interesting"
"","","","","","animation","369","2475440","0.0-369.0","1920x1080","","3476.2000000029802","10.19","img/117/3.5/0.66667/bw/001.png","","","interesting"
"","","","","","animation","370","2477186","0.0-370.0","1920x1080","","1737.300000011921","38.23","img/238/4/1.5/bw/001.png","","","interesting"
"","","","","","animation","371","2479486","0.0-371.0","1920x1080","","2298.5999999940395","41.14","img/117/4.5/1/bw/001.png","","","interesting"
"","","","","","animation","372","2482386","0.0-372.0","1920x1080","","2898.300000011921","89.02","img/314/5.5/1/bw/001.png","","","interesting"
"","","","","","animation","373","2485654","0.0-373.0","1920x1080","","3267.1000000089407","87.43","img/117/5.5/1.5/bw/001.png","","","interesting"
"","","","","","animation","374","2488870","0.0-374.0","1920x1080","","3214","20.37","img/117/4.5/0.5/bw/001.png","","","interesting"
"","","","","","animation","375","2492048","0.0-375.0","1920x1080","","3176.1000000089407","8.60","img/238/3.5/0.66667/bw/001.png","","","interesting"
"","","","","","animation","376","2494264","0.0-376.0","1920x1080","","2214.2000000029802","6.48","img/117/2.5/2/bw/001.png","","","interesting"
"","","","","","animation","377","2498346","0.0-377.0","1920x1080","","4080.5","61.77","img/238/4.5/0.5/bw/001.png","","","interesting"
"","","","","","animation","378","2500812","0.0-378.0","1920x1080","","2464.5999999940395","50","img/314/4/1.5/bw/001.png","","","interesting"
"","","","","","animation","379","2505128","0.0-379.0","1920x1080","","4315.100000008941","61.24","img/314/4/0.66667/bw/001.png","","","interesting"
"","","","","","animation","380","2508295","0.0-380.0","1920x1080","","3165.7000000029802","5","img/238/2.5/1.5/bw/001.png","","","interesting"
"","","","","","animation","381","2513356","0.0-381.0","1920x1080","","5059","36.64","img/314/3.5/1.5/bw/001.png","","","interesting"
"","","","","","animation","382","2515384","0.0-382.0","1920x1080","","2026.2999999970198","29.37","img/314/4/1/bw/001.png","","","interesting"
"","","","","","animation","383","2518200","0.0-383.0","1920x1080","","2814.7999999970198","41.80","img/314/4.5/0.5/bw/001.png","","","interesting"
"","","","","","animation","384","2521789","0.0-384.0","1920x1080","","3587.4000000059605","28.70","img/314/4/0.5/bw/001.png","","","interesting"
"","","","","","animation","385","2524631","0.0-385.0","1920x1080","","2839.7999999970198","0","img/314/2.5/1.5/bw/001.png","","","interesting"
"","","","","","animation","386","2528132","0.0-386.0","1920x1080","","3499.5","15.21","img/314/3.5/0.66667/bw/001.png","","","interesting"
"","","","","","animation","387","2530464","0.0-387.0","1920x1080","","2329.7999999970198","93.39","img/238/5.5/1/bw/001.png","","","interesting"
"","","","","","animation","388","2532779","0.0-388.0","1920x1080","","2313.2000000029802","39.81","img/238/3.5/0.5/bw/001.png","","","interesting"
"","","","","","animation","389","2537404","0.0-389.0","1920x1080","","4623.300000011921","100","img/238/5.5/1.5/bw/001.png","","","interesting"
"","","","","","html-button-response","390","2556936","0.0-390.0","1920x1080","","19529","","<strong>Study Debriefing</strong><br><p class=""debrief""><strong>Background:</strong> The patterns you rated are called <em>fractals</em>. The term fractal describes a class of irregular curves or shapes for which any suitably chosen part is similar in shape to a given larger or smaller part when magnified or reduced to the same size. Fractal properties are found throughout the natural and manmade world. The series of animations you saw today displayed animated fractal patterns of a varying complexity.</p><p class=""debrief""><strong>Purpose of this study:</strong> We hope to better understand how the perception of static fractals differs from the perception of animated fractals, and how the speed of the animated patterns influences people&apos;s perception of them. Fractals allow us to study the perception of aesthetic properties (e.g. the perceived level of beauty in an image) without using recognizable content, which makes them an excellent tool for studying abstract aesthetic judgement.</p><p class=""debrief""><strong>Your part:</strong> Your participation has helped us to further understand how humans perceive these patterns across different levels of speed and complexity. This research with allow us to better understand how the visual system and brain process our ever-changing visual environments.<p class=""debrief""><strong>Feedback and Further information:</strong> If you have additional questions about this study, please feel free to ask the researcher, Nathan Gonzales-Hess at nhess @ uoregon.edu. If you have any questions concerning your rights as a research participant, please contact Research Compliance Services, 5237 University of Oregon, Eugene, OR 97403, 541-346-2510, or email researchCompliance @ uoregon.edu. You can also email the Human Subjects Coordinator for psychology and linguistics research at hscoord @ uoregon.edu. ","0","",""
"","","","","","html-button-response","391","2559110","0.0-391.0","1920x1080","","2169.7000000029802","","Thank you for participating in this study. <br>Please click below to finish the experiment and submit your responses.<br><br>","0","",""
"true","","","","","fullscreen","392","2560114","0.0-392.0","1920x1080","12:32 25/10/2022","","","","","",""
