"success","timeout","failed_images","failed_audio","failed_video","trial_type","trial_index","time_elapsed","internal_node_id","resolution","timeStamp","rt","response","stimulus","button_pressed","value","descriptor"
"true","false","[]","[]","[]","preload","0","5815","0.0-0.0","1920x1080","","","","","","",""
"true","false","[]","[]","[]","preload","1","11841","0.0-1.0","1920x1080","","","","","","",""
"true","false","[]","[]","[]","preload","2","17636","0.0-2.0","1920x1080","","","","","","",""
"true","","","","","fullscreen","3","8011449","0.0-3.0","1920x1080","10:45 5/10/2022","","","","","",""
"","","","","","survey-html-form","4","8019122","0.0-4.0","1920x1080","","7671.800000011921","{""age"":""18"",""gender"":""Male""}","","","",""
"","","","","","html-button-response","5","8073371","0.0-5.0","1920x1080","","54247.20000000298","","<div class=""complex"">You are going to see a series of animations.<br><br></div><div class=""complex"">Move the slider to indicate how <strong style=""text-transform:capitalize"">COMPLEX</strong> you find each animation.<br><br></div><div class=""complex"">0 = Least Complex<br></div><div class=""complex"">1 = Most Complex<br><br></div><div class=""complex"">Remember to use the <strong><em>entire range</em></strong> of the slider to make your ratings.<br></div><div class=""complex"">Please <strong><em>take your time</em></strong> and carefully consider each rating you make.<br><br></div><div class=""complex"">The study has five sections and will take about 45 minutes to complete.<br><br></div>","0","",""
"","","","","","call-function","6","8073371","0.0-6.0","1920x1080","","","","","","",""
"","","","","","animation","7","8105803","0.0-7.0","1920x1080","","32430.29999999702","30.16","img/238/2.5/1/bw/001.png","","","complex"
"","","","","","animation","8","8136323","0.0-8.0","1920x1080","","30518.5","40.21","img/117/4/2/bw/001.png","","","complex"
"","","","","","animation","9","8165467","0.0-9.0","1920x1080","","29143.30000001192","45.11","img/238/4.5/2/bw/001.png","","","complex"
"","","","","","animation","10","8221715","0.0-10.0","1920x1080","","56247.10000000894","35.05","img/314/3.5/1/bw/001.png","","","complex"
"","","","","","animation","11","8242571","0.0-11.0","1920x1080","","20855.20000000298","40.34","img/314/3.5/0.5/bw/001.png","","","complex"
"","","","","","animation","12","8291439","0.0-12.0","1920x1080","","48871.09999999404","60.05","img/314/5.5/1.5/bw/001.png","","","complex"
"","","","","","animation","13","8326532","0.0-13.0","1920x1080","","35087.5","49.87","img/117/5.5/1.5/bw/001.png","","","complex"
"","","","","","animation","14","8338116","0.0-14.0","1920x1080","","11583.300000011921","70.37","img/314/4/0.5/bw/001.png","","","complex"
"","","","","","animation","15","8366844","0.0-15.0","1920x1080","","28727.09999999404","75.13","img/238/4/1.5/bw/001.png","","","complex"
"","","","","","animation","16","8387450","0.0-16.0","1920x1080","","20607.90000000596","69.58","img/238/4/0.66667/bw/001.png","","","complex"
"","","","","","animation","17","8410793","0.0-17.0","1920x1080","","23342.70000000298","77.91","img/117/3.5/1/bw/001.png","","","complex"
"","","","","","animation","18","8438745","0.0-18.0","1920x1080","","27958.79999999702","50.26","img/314/5.5/1/bw/001.png","","","complex"
"","","","","","animation","19","8455697","0.0-19.0","1920x1080","","16951.09999999404","75.00","img/314/4.5/0.66667/bw/001.png","","","complex"
"","","","","","animation","20","8475409","0.0-20.0","1920x1080","","19711.20000000298","80.42","img/117/4.5/2/bw/001.png","","","complex"
"","","","","","animation","21","8493183","0.0-21.0","1920x1080","","17775.20000000298","90","img/314/3.5/2/bw/001.png","","","complex"
"","","","","","animation","22","8513047","0.0-22.0","1920x1080","","19862.59999999404","40","img/238/2.5/1.5/bw/001.png","","","complex"
"","","","","","animation","23","8524288","0.0-23.0","1920x1080","","11239.90000000596","90.74","img/314/4/1.5/bw/001.png","","","complex"
"","","","","","animation","24","8538832","0.0-24.0","1920x1080","","14543.20000000298","80.29","img/238/4/1/bw/001.png","","","complex"
"","","","","","animation","25","8557686","0.0-25.0","1920x1080","","18840","55.16","img/314/2.5/1/bw/001.png","","","complex"
"","","","","","animation","26","8605070","0.0-26.0","1920x1080","","47383.10000000894","61.24","img/117/2.5/2/bw/001.png","","","complex"
"","","","","","animation","27","8611898","0.0-27.0","1920x1080","","6830.100000008941","72","img/314/2.5/1.5/bw/001.png","","","complex"
"","","","","","animation","28","8627306","0.0-28.0","1920x1080","","15407.20000000298","59.79","img/238/2.5/2/bw/001.png","","","complex"
"","","","","","animation","29","8640451","0.0-29.0","1920x1080","","13143.70000000298","80","img/117/4.5/1/bw/001.png","","","complex"
"","","","","","animation","30","8656067","0.0-30.0","1920x1080","","15615.39999999106","81.48","img/314/4.5/1/bw/001.png","","","complex"
"","","","","","animation","31","8686562","0.0-31.0","1920x1080","","30494.5","50.00","img/238/4.5/0.5/bw/001.png","","","complex"
"","","","","","animation","32","8697378","0.0-32.0","1920x1080","","10815.20000000298","69.84","img/117/2.5/0.5/bw/001.png","","","complex"
"","","","","","animation","33","8738600","0.0-33.0","1920x1080","","41223","66.80","img/314/3.5/1.5/bw/001.png","","","complex"
"","","","","","animation","34","8770088","0.0-34.0","1920x1080","","31486.79999999702","27.12","img/238/5.5/2/bw/001.png","","","complex"
"","","","","","animation","35","8794109","0.0-35.0","1920x1080","","24015.40000000596","42.59","img/238/2.5/0.66667/bw/001.png","","","complex"
"","","","","","animation","36","8803173","0.0-36.0","1920x1080","","9063.09999999404","44.84","img/314/2.5/2/bw/001.png","","","complex"
"","","","","","animation","37","8825735","0.0-37.0","1920x1080","","22561.20000000298","37.30","img/238/5.5/1.5/bw/001.png","","","complex"
"","","","","","animation","38","8834485","0.0-38.0","1920x1080","","8749","66","img/238/2.5/0.5/bw/001.png","","","complex"
"","","","","","animation","39","8858611","0.0-39.0","1920x1080","","24126.89999999106","78","img/314/4.5/1.5/bw/001.png","","","complex"
"","","","","","animation","40","8869067","0.0-40.0","1920x1080","","10455.40000000596","59.39","img/314/5.5/0.5/bw/001.png","","","complex"
"","","","","","animation","41","8888347","0.0-41.0","1920x1080","","19279.19999998808","39.68","img/314/5.5/2/bw/001.png","","","complex"
"","","","","","animation","42","8910808","0.0-42.0","1920x1080","","22463.09999999404","60.32","img/238/4.5/0.66667/bw/001.png","","","complex"
"","","","","","animation","43","8923823","0.0-43.0","1920x1080","","13014.90000000596","80.42","img/117/4/0.66667/bw/001.png","","","complex"
"","","","","","animation","44","8934792","0.0-44.0","1920x1080","","10967.20000000298","69","img/117/4/1/bw/001.png","","","complex"
"","","","","","animation","45","8966200","0.0-45.0","1920x1080","","31407.20000000298","69.71","img/238/4/2/bw/001.png","","","complex"
"","","","","","animation","46","8987478","0.0-46.0","1920x1080","","21270.90000000596","54.23","img/238/4.5/1.5/bw/001.png","","","complex"
"","","","","","animation","47","9010021","0.0-47.0","1920x1080","","22542.89999999106","85.98","img/238/3.5/1/bw/001.png","","","complex"
"","","","","","animation","48","9026013","0.0-48.0","1920x1080","","15991","51","img/314/5.5/0.66667/bw/001.png","","","complex"
"","","","","","animation","49","9051341","0.0-49.0","1920x1080","","25327","75.79","img/117/3.5/2/bw/001.png","","","complex"
"","","","","","animation","50","9072340","0.0-50.0","1920x1080","","20998.79999999702","79.50","img/314/4.5/0.5/bw/001.png","","","complex"
"","","","","","animation","51","9090680","0.0-51.0","1920x1080","","18343.79999999702","40.48","img/314/2.5/0.66667/bw/001.png","","","complex"
"","","","","","animation","52","9100295","0.0-52.0","1920x1080","","9614.699999988079","80.03","img/238/3.5/0.66667/bw/001.png","","","complex"
"","","","","","animation","53","9146488","0.0-53.0","1920x1080","","46191.60000000894","75.26","img/314/4/0.66667/bw/001.png","","","complex"
"","","","","","animation","54","9164518","0.0-54.0","1920x1080","","18023.39999999106","34","img/117/5.5/2/bw/001.png","","","complex"
"","","","","","animation","55","9175462","0.0-55.0","1920x1080","","10942.70000000298","54","img/117/2.5/1/bw/001.png","","","complex"
"","","","","","animation","56","9193317","0.0-56.0","1920x1080","","17854.90000000596","49.34","img/117/2.5/1.5/bw/001.png","","","complex"
"","","","","","animation","57","9213308","0.0-57.0","1920x1080","","19991.20000000298","34.13","img/238/5.5/0.5/bw/001.png","","","complex"
"","","","","","animation","58","9236068","0.0-58.0","1920x1080","","22759.20000000298","77.51","img/314/3.5/0.66667/bw/001.png","","","complex"
"","","","","","animation","59","9266812","0.0-59.0","1920x1080","","30743.39999999106","67","img/117/5.5/0.5/bw/001.png","","","complex"
"","","","","","animation","60","9308743","0.0-60.0","1920x1080","","41926.89999999106","50.13","img/117/5.5/1/bw/001.png","","","complex"
"","","","","","animation","61","9321903","0.0-61.0","1920x1080","","13159.20000000298","71","img/117/3.5/0.5/bw/001.png","","","complex"
"","","","","","animation","62","9331763","0.0-62.0","1920x1080","","9863.5","69.58","img/117/4.5/1.5/bw/001.png","","","complex"
"","","","","","animation","63","9359907","0.0-63.0","1920x1080","","28142.40000000596","73","img/314/4.5/2/bw/001.png","","","complex"
"","","","","","animation","64","9365932","0.0-64.0","1920x1080","","6023.70000000298","35","img/117/2.5/0.66667/bw/001.png","","","complex"
"","","","","","animation","65","9372923","0.0-65.0","1920x1080","","6990.199999988079","79","img/117/4.5/0.66667/bw/001.png","","","complex"
"","","","","","animation","66","9384475","0.0-66.0","1920x1080","","11550.79999999702","80.03","img/117/4.5/0.5/bw/001.png","","","complex"
"","","","","","animation","67","9438672","0.0-67.0","1920x1080","","54199.20000000298","67","img/117/3.5/1.5/bw/001.png","","","complex"
"","","","","","animation","68","9446680","0.0-68.0","1920x1080","","8006.79999999702","86.64","img/238/4/0.5/bw/001.png","","","complex"
"","","","","","animation","69","9455839","0.0-69.0","1920x1080","","9150.89999999106","46","img/314/2.5/0.5/bw/001.png","","","complex"
"","","","","","animation","70","9464271","0.0-70.0","1920x1080","","8431.39999999106","94.58","img/117/4/0.5/bw/001.png","","","complex"
"","","","","","animation","71","9470424","0.0-71.0","1920x1080","","6150.70000000298","86.64","img/117/4/1.5/bw/001.png","","","complex"
"","","","","","animation","72","9514450","0.0-72.0","1920x1080","","44026.40000000596","71.83","img/238/4.5/1/bw/001.png","","","complex"
"","","","","","animation","73","9553719","0.0-73.0","1920x1080","","39266.90000000596","64.68","img/238/3.5/2/bw/001.png","","","complex"
"","","","","","animation","74","9596637","0.0-74.0","1920x1080","","42918.89999999106","70","img/314/4/1/bw/001.png","","","complex"
"","","","","","animation","75","9605069","0.0-75.0","1920x1080","","8430.89999999106","74.21","img/117/3.5/0.66667/bw/001.png","","","complex"
"","","","","","animation","76","9622933","0.0-76.0","1920x1080","","17862.79999999702","45","img/238/5.5/0.66667/bw/001.png","","","complex"
"","","","","","animation","77","9654993","0.0-77.0","1920x1080","","32055.5","55.16","img/238/3.5/0.5/bw/001.png","","","complex"
"","","","","","animation","78","9690267","0.0-78.0","1920x1080","","35270.40000000596","56","img/117/5.5/0.66667/bw/001.png","","","complex"
"","","","","","animation","79","9698608","0.0-79.0","1920x1080","","8339.699999988079","79.89","img/314/4/2/bw/001.png","","","complex"
"","","","","","animation","80","9769606","0.0-80.0","1920x1080","","70999.10000000894","35.19","img/238/5.5/1/bw/001.png","","","complex"
"","","","","","animation","81","9779870","0.0-81.0","1920x1080","","10262.79999999702","75.93","img/238/3.5/1.5/bw/001.png","","","complex"
"","","","","","html-button-response","82","9798519","0.0-82.0","1920x1080","","18647.40000000596","","<div class=""intro"">You are about to view a new series of animations.<br><br></div><div class=""intro"">You will evaluate them based on a different descriptor.<br><br></div><div class=""intro"">Move the slider to indicate how <strong style=""text-transform:capitalize"">RELAXING</strong> you find each animation.<br><br></div><div class=""intro"">0 = Least Relaxing<br></div><div class=""intro"">1 = Most Relaxing<br><br></div><div class=""intro"">Remember to use the <strong><em>entire range</em></strong> of the slider to make your ratings.<br></div><div class=""intro"">Please <strong><em>take your time</em></strong> and carefully consider each rating you make.<br><br></div>","0","",""
"","","","","","call-function","83","9798519","0.0-83.0","1920x1080","","","","","","",""
"","","","","","animation","84","9805447","0.0-84.0","1920x1080","","6926.899999991059","9.92","img/117/2.5/2/bw/001.png","","","relaxing"
"","","","","","animation","85","9813948","0.0-85.0","1920x1080","","8502.10000000894","90.21","img/238/5.5/1/bw/001.png","","","relaxing"
"","","","","","animation","86","9821100","0.0-86.0","1920x1080","","7151.20000000298","69.71","img/117/5.5/0.5/bw/001.png","","","relaxing"
"","","","","","animation","87","9832132","0.0-87.0","1920x1080","","11030.89999999106","20","img/238/3.5/0.66667/bw/001.png","","","relaxing"
"","","","","","animation","88","9844679","0.0-88.0","1920x1080","","12545.70000000298","59.66","img/314/5.5/0.5/bw/001.png","","","relaxing"
"","","","","","animation","89","9852463","0.0-89.0","1920x1080","","7783.5999999940395","29","img/117/3.5/2/bw/001.png","","","relaxing"
"","","","","","animation","90","9862229","0.0-90.0","1920x1080","","9765","36.77","img/314/4/0.66667/bw/001.png","","","relaxing"
"","","","","","animation","91","9870009","0.0-91.0","1920x1080","","7772.4000000059605","38.36","img/314/3.5/1/bw/001.png","","","relaxing"
"","","","","","animation","92","9876736","0.0-92.0","1920x1080","","6725.9000000059605","5.29","img/314/2.5/0.5/bw/001.png","","","relaxing"
"","","","","","animation","93","9887282","0.0-93.0","1920x1080","","10545","79.63","img/238/4/2/bw/001.png","","","relaxing"
"","","","","","animation","94","9893752","0.0-94.0","1920x1080","","6469.20000000298","69.97","img/117/4/1.5/bw/001.png","","","relaxing"
"","","","","","animation","95","9907416","0.0-95.0","1920x1080","","13662.90000000596","79.63","img/238/5.5/0.5/bw/001.png","","","relaxing"
"","","","","","animation","96","9913392","0.0-96.0","1920x1080","","5974.899999991059","4.89","img/238/2.5/0.5/bw/001.png","","","relaxing"
"","","","","","animation","97","9934159","0.0-97.0","1920x1080","","20767.5","85.05","img/238/5.5/1.5/bw/001.png","","","relaxing"
"","","","","","animation","98","9960319","0.0-98.0","1920x1080","","26158.59999999404","24.60","img/117/3.5/0.66667/bw/001.png","","","relaxing"
"","","","","","animation","99","9973423","0.0-99.0","1920x1080","","13103","86","img/314/5.5/1.5/bw/001.png","","","relaxing"
"","","","","","animation","100","9985799","0.0-100.0","1920x1080","","12374.70000000298","49.74","img/117/4.5/0.5/bw/001.png","","","relaxing"
"","","","","","animation","101","10016100","0.0-101.0","1920x1080","","30303.39999999106","88.36","img/238/5.5/0.66667/bw/001.png","","","relaxing"
"","","","","","animation","102","10024179","0.0-102.0","1920x1080","","8078","54.63","img/117/4/2/bw/001.png","","","relaxing"
"","","","","","animation","103","10028060","0.0-103.0","1920x1080","","3879.7999999970198","48.02","img/117/4.5/0.66667/bw/001.png","","","relaxing"
"","","","","","animation","104","10037900","0.0-104.0","1920x1080","","9838.89999999106","45","img/314/3.5/1.5/bw/001.png","","","relaxing"
"","","","","","animation","105","10088453","0.0-105.0","1920x1080","","50544.59999999404","59","img/117/4.5/1/bw/001.png","","","relaxing"
"","","","","","animation","106","10101250","0.0-106.0","1920x1080","","12796.79999999702","55.95","img/238/4.5/0.5/bw/001.png","","","relaxing"
"","","","","","animation","107","10107979","0.0-107.0","1920x1080","","6727.5","62.04","img/117/4.5/2/bw/001.png","","","relaxing"
"","","","","","animation","108","10147615","0.0-108.0","1920x1080","","39638.39999999106","57.28","img/314/4/0.5/bw/001.png","","","relaxing"
"","","","","","animation","109","10152983","0.0-109.0","1920x1080","","5367.20000000298","39.02","img/117/3.5/1/bw/001.png","","","relaxing"
"","","","","","animation","110","10161303","0.0-110.0","1920x1080","","8319","88.23","img/314/5.5/0.66667/bw/001.png","","","relaxing"
"","","","","","animation","111","10170096","0.0-111.0","1920x1080","","8791.39999999106","5","img/117/2.5/1.5/bw/001.png","","","relaxing"
"","","","","","animation","112","10180839","0.0-112.0","1920x1080","","10741.79999999702","5.95","img/238/2.5/1.5/bw/001.png","","","relaxing"
"","","","","","animation","113","10228300","0.0-113.0","1920x1080","","47455.59999999404","59.79","img/314/4/2/bw/001.png","","","relaxing"
"","","","","","animation","114","10272291","0.0-114.0","1920x1080","","43990.10000000894","67.20","img/314/4.5/2/bw/001.png","","","relaxing"
"","","","","","animation","115","10277267","0.0-115.0","1920x1080","","4974.79999999702","7.94","img/314/2.5/2/bw/001.png","","","relaxing"
"","","","","","animation","116","10280675","0.0-116.0","1920x1080","","3406.7000000029802","4","img/314/2.5/0.66667/bw/001.png","","","relaxing"
"","","","","","animation","117","10291132","0.0-117.0","1920x1080","","10456.90000000596","80.42","img/117/5.5/2/bw/001.png","","","relaxing"
"","","","","","animation","118","10299585","0.0-118.0","1920x1080","","8452.59999999404","23.15","img/314/3.5/0.5/bw/001.png","","","relaxing"
"","","","","","animation","119","10302433","0.0-119.0","1920x1080","","2847.1000000089407","10.85","img/117/2.5/1/bw/001.png","","","relaxing"
"","","","","","animation","120","10307383","0.0-120.0","1920x1080","","4948.29999999702","50.79","img/238/4.5/0.66667/bw/001.png","","","relaxing"
"","","","","","animation","121","10314817","0.0-121.0","1920x1080","","7434","7","img/117/2.5/0.66667/bw/001.png","","","relaxing"
"","","","","","animation","122","10324610","0.0-122.0","1920x1080","","9791.70000000298","30.69","img/117/4/0.5/bw/001.png","","","relaxing"
"","","","","","animation","123","10334861","0.0-123.0","1920x1080","","10247.5","41.80","img/117/3.5/0.5/bw/001.png","","","relaxing"
"","","","","","animation","124","10339674","0.0-124.0","1920x1080","","4811.0999999940395","7.67","img/238/2.5/0.66667/bw/001.png","","","relaxing"
"","","","","","animation","125","10356825","0.0-125.0","1920x1080","","17151","40.61","img/238/4/0.66667/bw/001.png","","","relaxing"
"","","","","","animation","126","10367165","0.0-126.0","1920x1080","","10339.39999999106","13.49","img/238/2.5/1/bw/001.png","","","relaxing"
"","","","","","animation","127","10408966","0.0-127.0","1920x1080","","41802.29999999702","38.62","img/117/3.5/1.5/bw/001.png","","","relaxing"
"","","","","","animation","128","10433750","0.0-128.0","1920x1080","","24782.70000000298","64","img/238/4/1.5/bw/001.png","","","relaxing"
"","","","","","animation","129","10439134","0.0-129.0","1920x1080","","5383.20000000298","22.35","img/238/3.5/0.5/bw/001.png","","","relaxing"
"","","","","","animation","130","10445166","0.0-130.0","1920x1080","","6030.0999999940395","10.32","img/314/2.5/1.5/bw/001.png","","","relaxing"
"","","","","","animation","131","10472627","0.0-131.0","1920x1080","","27455.20000000298","50.26","img/314/4.5/0.5/bw/001.png","","","relaxing"
"","","","","","animation","132","10482603","0.0-132.0","1920x1080","","9974.20000000298","95","img/314/5.5/2/bw/001.png","","","relaxing"
"","","","","","animation","133","10489199","0.0-133.0","1920x1080","","6594","53","img/238/4/1/bw/001.png","","","relaxing"
"","","","","","animation","134","10494507","0.0-134.0","1920x1080","","5307.70000000298","15","img/314/3.5/0.66667/bw/001.png","","","relaxing"
"","","","","","animation","135","10499243","0.0-135.0","1920x1080","","4735","14","img/238/3.5/1/bw/001.png","","","relaxing"
"","","","","","animation","136","10505323","0.0-136.0","1920x1080","","6078.5999999940395","61","img/314/4.5/1/bw/001.png","","","relaxing"
"","","","","","animation","137","10508667","0.0-137.0","1920x1080","","3342.7000000029802","41.53","img/117/4/0.66667/bw/001.png","","","relaxing"
"","","","","","animation","138","10513323","0.0-138.0","1920x1080","","4655.5","88.76","img/117/5.5/1/bw/001.png","","","relaxing"
"","","","","","animation","139","10517555","0.0-139.0","1920x1080","","4230.79999999702","6.08","img/314/2.5/1/bw/001.png","","","relaxing"
"","","","","","animation","140","10524419","0.0-140.0","1920x1080","","6862.29999999702","38.10","img/314/4/1/bw/001.png","","","relaxing"
"","","","","","animation","141","10527999","0.0-141.0","1920x1080","","3578.800000011921","46.56","img/117/4/1/bw/001.png","","","relaxing"
"","","","","","animation","142","10533131","0.0-142.0","1920x1080","","5132.70000000298","69.97","img/238/4.5/1.5/bw/001.png","","","relaxing"
"","","","","","animation","143","10540216","0.0-143.0","1920x1080","","7083.399999991059","32","img/238/4/0.5/bw/001.png","","","relaxing"
"","","","","","animation","144","10553890","0.0-144.0","1920x1080","","13673.5","70.11","img/314/5.5/1/bw/001.png","","","relaxing"
"","","","","","animation","145","10561082","0.0-145.0","1920x1080","","7190.29999999702","7.54","img/238/2.5/2/bw/001.png","","","relaxing"
"","","","","","animation","146","10582834","0.0-146.0","1920x1080","","21749.5","50","img/238/3.5/2/bw/001.png","","","relaxing"
"","","","","","animation","147","10607065","0.0-147.0","1920x1080","","24230.90000000596","46.56","img/314/4/1.5/bw/001.png","","","relaxing"
"","","","","","animation","148","10632889","0.0-148.0","1920x1080","","25822.5","50.40","img/238/4.5/1/bw/001.png","","","relaxing"
"","","","","","animation","149","10635554","0.0-149.0","1920x1080","","2663","21.43","img/238/3.5/1.5/bw/001.png","","","relaxing"
"","","","","","animation","150","10639705","0.0-150.0","1920x1080","","4150.79999999702","4","img/117/2.5/0.5/bw/001.png","","","relaxing"
"","","","","","animation","151","10643049","0.0-151.0","1920x1080","","3342.6000000089407","64.42","img/117/4.5/1.5/bw/001.png","","","relaxing"
"","","","","","animation","152","10646648","0.0-152.0","1920x1080","","3597.3999999910593","86.64","img/117/5.5/1.5/bw/001.png","","","relaxing"
"","","","","","animation","153","10651396","0.0-153.0","1920x1080","","4747.0999999940395","72.62","img/314/4.5/1.5/bw/001.png","","","relaxing"
"","","","","","animation","154","10706129","0.0-154.0","1920x1080","","54732.40000000596","82","img/238/4.5/2/bw/001.png","","","relaxing"
"","","","","","animation","155","10729520","0.0-155.0","1920x1080","","23390.79999999702","76.32","img/238/5.5/2/bw/001.png","","","relaxing"
"","","","","","animation","156","10733262","0.0-156.0","1920x1080","","3740.0999999940395","27.12","img/314/3.5/2/bw/001.png","","","relaxing"
"","","","","","animation","157","10750888","0.0-157.0","1920x1080","","17625.20000000298","42.86","img/314/4.5/0.66667/bw/001.png","","","relaxing"
"","","","","","animation","158","10764628","0.0-158.0","1920x1080","","13738.20000000298","72.75","img/117/5.5/0.66667/bw/001.png","","","relaxing"
"","","","","","html-button-response","159","10783169","0.0-159.0","1920x1080","","18531.79999999702","","<div class=""intro"">You are about to view a new series of animations.<br><br></div><div class=""intro"">You will evaluate them based on a different descriptor.<br><br></div><div class=""intro"">Move the slider to indicate how <strong style=""text-transform:capitalize"">APPEALING</strong> you find each animation.<br><br></div><div class=""intro"">0 = Least Appealing<br></div><div class=""intro"">1 = Most Appealing<br><br></div><div class=""intro"">Remember to use the <strong><em>entire range</em></strong> of the slider to make your ratings.<br></div><div class=""intro"">Please <strong><em>take your time</em></strong> and carefully consider each rating you make.<br><br></div>","0","",""
"","","","","","call-function","160","10783170","0.0-160.0","1920x1080","","","","","","",""
"","","","","","animation","161","10789209","0.0-161.0","1920x1080","","6038.5","64.42","img/238/4.5/0.66667/bw/001.png","","","appealing"
"","","","","","animation","162","10792002","0.0-162.0","1920x1080","","2792.7999999970198","4.50","img/238/2.5/1.5/bw/001.png","","","appealing"
"","","","","","animation","163","10799529","0.0-163.0","1920x1080","","7525.4000000059605","26","img/314/4/1/bw/001.png","","","appealing"
"","","","","","animation","164","10803236","0.0-164.0","1920x1080","","3706.5","16.40","img/117/3.5/0.5/bw/001.png","","","appealing"
"","","","","","animation","165","10808761","0.0-165.0","1920x1080","","5522.9000000059605","50.13","img/117/4.5/1.5/bw/001.png","","","appealing"
"","","","","","animation","166","10812577","0.0-166.0","1920x1080","","3815.2000000029802","89.81","img/238/5.5/0.66667/bw/001.png","","","appealing"
"","","","","","animation","167","10820529","0.0-167.0","1920x1080","","7950.70000000298","19.97","img/314/3.5/0.66667/bw/001.png","","","appealing"
"","","","","","animation","168","10826977","0.0-168.0","1920x1080","","6446.79999999702","69","img/238/4/2/bw/001.png","","","appealing"
"","","","","","animation","169","10829531","0.0-169.0","1920x1080","","2559.6000000089407","10.19","img/314/2.5/2/bw/001.png","","","appealing"
"","","","","","animation","170","10837479","0.0-170.0","1920x1080","","7946.600000008941","44.18","img/117/4/1/bw/001.png","","","appealing"
"","","","","","animation","171","10841963","0.0-171.0","1920x1080","","4483.5","56.08","img/117/4.5/0.5/bw/001.png","","","appealing"
"","","","","","animation","172","10846802","0.0-172.0","1920x1080","","4837.5","2","img/238/2.5/0.5/bw/001.png","","","appealing"
"","","","","","animation","173","10851229","0.0-173.0","1920x1080","","4425.79999999702","91","img/238/5.5/1/bw/001.png","","","appealing"
"","","","","","animation","174","10856722","0.0-174.0","1920x1080","","5491.5","26","img/314/3.5/0.5/bw/001.png","","","appealing"
"","","","","","animation","175","10888246","0.0-175.0","1920x1080","","31522.5","51","img/238/4.5/0.5/bw/001.png","","","appealing"
"","","","","","animation","176","10891570","0.0-176.0","1920x1080","","3322.7000000029802","64.42","img/314/4.5/1.5/bw/001.png","","","appealing"
"","","","","","animation","177","10893696","0.0-177.0","1920x1080","","2124.7999999970198","39.68","img/314/4/0.66667/bw/001.png","","","appealing"
"","","","","","animation","178","10896381","0.0-178.0","1920x1080","","2684.0999999940395","8.73","img/314/2.5/1.5/bw/001.png","","","appealing"
"","","","","","animation","179","10922313","0.0-179.0","1920x1080","","25931.5","19.97","img/238/4/0.5/bw/001.png","","","appealing"
"","","","","","animation","180","10927113","0.0-180.0","1920x1080","","4797.79999999702","63","img/117/4.5/2/bw/001.png","","","appealing"
"","","","","","animation","181","10935322","0.0-181.0","1920x1080","","8207.300000011921","69","img/314/4.5/0.66667/bw/001.png","","","appealing"
"","","","","","animation","182","10941002","0.0-182.0","1920x1080","","5678.800000011921","92.86","img/314/5.5/0.66667/bw/001.png","","","appealing"
"","","","","","animation","183","10944754","0.0-183.0","1920x1080","","3751","56","img/117/4/1.5/bw/001.png","","","appealing"
"","","","","","animation","184","10963147","0.0-184.0","1920x1080","","18390.5","84.66","img/238/5.5/2/bw/001.png","","","appealing"
"","","","","","animation","185","10981852","0.0-185.0","1920x1080","","18703.09999999404","38","img/117/3.5/1.5/bw/001.png","","","appealing"
"","","","","","animation","186","10998732","0.0-186.0","1920x1080","","16879.60000000894","61.77","img/238/4/1.5/bw/001.png","","","appealing"
"","","","","","animation","187","11002515","0.0-187.0","1920x1080","","3781.5","17.99","img/117/3.5/1/bw/001.png","","","appealing"
"","","","","","animation","188","11005668","0.0-188.0","1920x1080","","3150.8999999910593","64.81","img/314/4.5/1/bw/001.png","","","appealing"
"","","","","","animation","189","11010028","0.0-189.0","1920x1080","","4361.70000000298","8.20","img/117/2.5/0.66667/bw/001.png","","","appealing"
"","","","","","animation","190","11016711","0.0-190.0","1920x1080","","6681","40.61","img/314/3.5/2/bw/001.png","","","appealing"
"","","","","","animation","191","11036929","0.0-191.0","1920x1080","","20216.79999999702","63","img/238/4.5/1/bw/001.png","","","appealing"
"","","","","","animation","192","11038811","0.0-192.0","1920x1080","","1881","86.77","img/314/5.5/2/bw/001.png","","","appealing"
"","","","","","animation","193","11040985","0.0-193.0","1920x1080","","2173.4000000059605","41.53","img/238/4/1/bw/001.png","","","appealing"
"","","","","","animation","194","11044178","0.0-194.0","1920x1080","","3191.5","35.32","img/238/3.5/1.5/bw/001.png","","","appealing"
"","","","","","animation","195","11046569","0.0-195.0","1920x1080","","2390.2000000029802","8.33","img/117/2.5/2/bw/001.png","","","appealing"
"","","","","","animation","196","11049713","0.0-196.0","1920x1080","","3141.5999999940395","4","img/314/2.5/0.5/bw/001.png","","","appealing"
"","","","","","animation","197","11056211","0.0-197.0","1920x1080","","6497.79999999702","85.32","img/314/5.5/1.5/bw/001.png","","","appealing"
"","","","","","animation","198","11060728","0.0-198.0","1920x1080","","4515.29999999702","4","img/117/2.5/0.5/bw/001.png","","","appealing"
"","","","","","animation","199","11065017","0.0-199.0","1920x1080","","4287.20000000298","90.34","img/238/5.5/1.5/bw/001.png","","","appealing"
"","","","","","animation","200","11068194","0.0-200.0","1920x1080","","3175.7999999970198","95","img/117/5.5/1/bw/001.png","","","appealing"
"","","","","","animation","201","11070697","0.0-201.0","1920x1080","","2499.0999999940395","50.40","img/117/3.5/2/bw/001.png","","","appealing"
"","","","","","animation","202","11075147","0.0-202.0","1920x1080","","4449.5999999940395","56.22","img/314/4.5/0.5/bw/001.png","","","appealing"
"","","","","","animation","203","11079430","0.0-203.0","1920x1080","","4281.79999999702","32.54","img/117/3.5/0.66667/bw/001.png","","","appealing"
"","","","","","animation","204","11107864","0.0-204.0","1920x1080","","28431.90000000596","65.74","img/314/4/2/bw/001.png","","","appealing"
"","","","","","animation","205","11113680","0.0-205.0","1920x1080","","5815.399999991059","80","img/117/5.5/0.5/bw/001.png","","","appealing"
"","","","","","animation","206","11117497","0.0-206.0","1920x1080","","3815.8999999910593","56","img/238/3.5/2/bw/001.png","","","appealing"
"","","","","","animation","207","11122282","0.0-207.0","1920x1080","","4782.79999999702","7.80","img/238/2.5/2/bw/001.png","","","appealing"
"","","","","","animation","208","11125180","0.0-208.0","1920x1080","","2897.4000000059605","3.97","img/117/2.5/1/bw/001.png","","","appealing"
"","","","","","animation","209","11128938","0.0-209.0","1920x1080","","3758.5999999940395","46.30","img/238/3.5/0.66667/bw/001.png","","","appealing"
"","","","","","animation","210","11131678","0.0-210.0","1920x1080","","2739.300000011921","51.85","img/314/3.5/1/bw/001.png","","","appealing"
"","","","","","animation","211","11134386","0.0-211.0","1920x1080","","2706.2999999970198","6.08","img/238/2.5/1/bw/001.png","","","appealing"
"","","","","","animation","212","11138186","0.0-212.0","1920x1080","","3799.1000000089407","1","img/238/2.5/0.66667/bw/001.png","","","appealing"
"","","","","","animation","213","11141250","0.0-213.0","1920x1080","","3062.7000000029802","62.30","img/314/4/1.5/bw/001.png","","","appealing"
"","","","","","animation","214","11145363","0.0-214.0","1920x1080","","4111.79999999702","5.69","img/117/2.5/1.5/bw/001.png","","","appealing"
"","","","","","animation","215","11170482","0.0-215.0","1920x1080","","25116.89999999106","59.92","img/314/4.5/2/bw/001.png","","","appealing"
"","","","","","animation","216","11182482","0.0-216.0","1920x1080","","11998.79999999702","39.55","img/238/4/0.66667/bw/001.png","","","appealing"
"","","","","","animation","217","11187770","0.0-217.0","1920x1080","","5286.4000000059605","10.32","img/314/2.5/1/bw/001.png","","","appealing"
"","","","","","animation","218","11206796","0.0-218.0","1920x1080","","19023.29999999702","86","img/314/5.5/1/bw/001.png","","","appealing"
"","","","","","animation","219","11230580","0.0-219.0","1920x1080","","23779.20000000298","60.32","img/117/4/2/bw/001.png","","","appealing"
"","","","","","animation","220","11267066","0.0-220.0","1920x1080","","36484.40000000596","46.96","img/117/4/0.66667/bw/001.png","","","appealing"
"","","","","","animation","221","11270728","0.0-221.0","1920x1080","","3658.4000000059605","6.35","img/314/2.5/0.66667/bw/001.png","","","appealing"
"","","","","","animation","222","11273619","0.0-222.0","1920x1080","","2890.2999999970198","31.35","img/314/3.5/1.5/bw/001.png","","","appealing"
"","","","","","animation","223","11278882","0.0-223.0","1920x1080","","5260.70000000298","67.86","img/238/3.5/1/bw/001.png","","","appealing"
"","","","","","animation","224","11286611","0.0-224.0","1920x1080","","7726.899999991059","78.57","img/117/5.5/2/bw/001.png","","","appealing"
"","","","","","animation","225","11302330","0.0-225.0","1920x1080","","15717.70000000298","75.00","img/314/5.5/0.5/bw/001.png","","","appealing"
"","","","","","animation","226","11308378","0.0-226.0","1920x1080","","6037.9000000059605","65.21","img/117/5.5/0.66667/bw/001.png","","","appealing"
"","","","","","animation","227","11320170","0.0-227.0","1920x1080","","11790","19.31","img/238/3.5/0.5/bw/001.png","","","appealing"
"","","","","","animation","228","11339842","0.0-228.0","1920x1080","","19670.5","70.24","img/117/4.5/1/bw/001.png","","","appealing"
"","","","","","animation","229","11342669","0.0-229.0","1920x1080","","2825","87.17","img/238/5.5/0.5/bw/001.png","","","appealing"
"","","","","","animation","230","11346802","0.0-230.0","1920x1080","","4131.79999999702","92.33","img/117/5.5/1.5/bw/001.png","","","appealing"
"","","","","","animation","231","11352226","0.0-231.0","1920x1080","","5422.79999999702","33.73","img/117/4/0.5/bw/001.png","","","appealing"
"","","","","","animation","232","11367138","0.0-232.0","1920x1080","","14910.70000000298","44.05","img/314/4/0.5/bw/001.png","","","appealing"
"","","","","","animation","233","11374316","0.0-233.0","1920x1080","","7182.899999991059","66.67","img/117/4.5/0.66667/bw/001.png","","","appealing"
"","","","","","animation","234","11409579","0.0-234.0","1920x1080","","35261.79999999702","71.83","img/238/4.5/2/bw/001.png","","","appealing"
"","","","","","animation","235","11411763","0.0-235.0","1920x1080","","2181.2999999970198","64.81","img/238/4.5/1.5/bw/001.png","","","appealing"
"","","","","","html-button-response","236","11422548","0.0-236.0","1920x1080","","10784.59999999404","","<div class=""intro"">You are about to view a new series of animations.<br><br></div><div class=""intro"">You will evaluate them based on a different descriptor.<br><br></div><div class=""intro"">Move the slider to indicate how <strong style=""text-transform:capitalize"">NATURAL</strong> you find each animation.<br><br></div><div class=""intro"">0 = Least Natural<br></div><div class=""intro"">1 = Most Natural<br><br></div><div class=""intro"">Remember to use the <strong><em>entire range</em></strong> of the slider to make your ratings.<br></div><div class=""intro"">Please <strong><em>take your time</em></strong> and carefully consider each rating you make.<br><br></div>","0","",""
"","","","","","call-function","237","11422549","0.0-237.0","1920x1080","","","","","","",""
"","","","","","animation","238","11437968","0.0-238.0","1920x1080","","15413.09999999404","74.47","img/314/4.5/1.5/bw/001.png","","","natural"
"","","","","","animation","239","11442136","0.0-239.0","1920x1080","","4166.5","21.16","img/117/2.5/0.5/bw/001.png","","","natural"
"","","","","","animation","240","11446352","0.0-240.0","1920x1080","","4213.9000000059605","16","img/314/2.5/0.5/bw/001.png","","","natural"
"","","","","","animation","241","11448919","0.0-241.0","1920x1080","","2566.2999999970198","34.79","img/238/4/0.5/bw/001.png","","","natural"
"","","","","","animation","242","11451518","0.0-242.0","1920x1080","","2597.7000000029802","60.32","img/238/4/2/bw/001.png","","","natural"
"","","","","","animation","243","11455554","0.0-243.0","1920x1080","","4034.5999999940395","49.34","img/314/4/1.5/bw/001.png","","","natural"
"","","","","","animation","244","11458552","0.0-244.0","1920x1080","","2996.699999988079","53.57","img/117/4.5/0.5/bw/001.png","","","natural"
"","","","","","animation","245","11468085","0.0-245.0","1920x1080","","9530.89999999106","74.74","img/117/5.5/0.5/bw/001.png","","","natural"
"","","","","","animation","246","11471968","0.0-246.0","1920x1080","","3880.2999999970198","56.22","img/117/4.5/2/bw/001.png","","","natural"
"","","","","","animation","247","11475185","0.0-247.0","1920x1080","","3215.4000000059605","51.19","img/314/4.5/0.66667/bw/001.png","","","natural"
"","","","","","animation","248","11479152","0.0-248.0","1920x1080","","3965.9000000059605","35.58","img/314/3.5/1/bw/001.png","","","natural"
"","","","","","animation","249","11486370","0.0-249.0","1920x1080","","7216.9000000059605","73.94","img/314/5.5/1.5/bw/001.png","","","natural"
"","","","","","animation","250","11495112","0.0-250.0","1920x1080","","8747.20000000298","73.94","img/117/5.5/1/bw/001.png","","","natural"
"","","","","","animation","251","11500116","0.0-251.0","1920x1080","","5002.100000008941","20.50","img/117/3.5/2/bw/001.png","","","natural"
"","","","","","animation","252","11503879","0.0-252.0","1920x1080","","3761.6000000089407","26","img/238/3.5/2/bw/001.png","","","natural"
"","","","","","animation","253","11507612","0.0-253.0","1920x1080","","3732.0999999940395","16.01","img/117/4/0.5/bw/001.png","","","natural"
"","","","","","animation","254","11512246","0.0-254.0","1920x1080","","4632.199999988079","10.58","img/238/3.5/0.5/bw/001.png","","","natural"
"","","","","","animation","255","11514879","0.0-255.0","1920x1080","","2631.7999999970198","40.74","img/314/4.5/0.5/bw/001.png","","","natural"
"","","","","","animation","256","11518479","0.0-256.0","1920x1080","","3598.3999999910593","87.17","img/238/5.5/2/bw/001.png","","","natural"
"","","","","","animation","257","11546829","0.0-257.0","1920x1080","","28348.60000000894","15","img/314/2.5/1.5/bw/001.png","","","natural"
"","","","","","animation","258","11549330","0.0-258.0","1920x1080","","2501.2999999970198","39.15","img/117/3.5/0.66667/bw/001.png","","","natural"
"","","","","","animation","259","11552593","0.0-259.0","1920x1080","","3262.7000000029802","40.48","img/314/4/0.5/bw/001.png","","","natural"
"","","","","","animation","260","11556726","0.0-260.0","1920x1080","","4131.9000000059605","8.47","img/117/2.5/0.66667/bw/001.png","","","natural"
"","","","","","animation","261","11559218","0.0-261.0","1920x1080","","2490.3999999910593","40.61","img/238/4.5/0.5/bw/001.png","","","natural"
"","","","","","animation","262","11564310","0.0-262.0","1920x1080","","5090.4000000059605","78","img/238/5.5/0.5/bw/001.png","","","natural"
"","","","","","animation","263","11571450","0.0-263.0","1920x1080","","7138.0999999940395","85.19","img/117/5.5/1.5/bw/001.png","","","natural"
"","","","","","animation","264","11578177","0.0-264.0","1920x1080","","6725.600000008941","83.20","img/314/5.5/0.66667/bw/001.png","","","natural"
"","","","","","animation","265","11581514","0.0-265.0","1920x1080","","3335","83.47","img/117/5.5/0.66667/bw/001.png","","","natural"
"","","","","","animation","266","11583914","0.0-266.0","1920x1080","","2398.7000000029802","23.81","img/314/4/0.66667/bw/001.png","","","natural"
"","","","","","animation","267","11586301","0.0-267.0","1920x1080","","2386.5","13.76","img/238/3.5/1/bw/001.png","","","natural"
"","","","","","animation","268","11593993","0.0-268.0","1920x1080","","7687","22.75","img/238/4/1/bw/001.png","","","natural"
"","","","","","animation","269","11597330","0.0-269.0","1920x1080","","3335.300000011921","14.15","img/314/3.5/0.66667/bw/001.png","","","natural"
"","","","","","animation","270","11600593","0.0-270.0","1920x1080","","3257.8999999910593","57.80","img/238/4.5/0.66667/bw/001.png","","","natural"
"","","","","","animation","271","11602634","0.0-271.0","1920x1080","","2039.2000000029802","83.20","img/238/5.5/0.66667/bw/001.png","","","natural"
"","","","","","animation","272","11611212","0.0-272.0","1920x1080","","8574.5","65.48","img/314/4.5/1/bw/001.png","","","natural"
"","","","","","animation","273","11614245","0.0-273.0","1920x1080","","3032.2000000029802","6.88","img/314/2.5/1/bw/001.png","","","natural"
"","","","","","animation","274","11618912","0.0-274.0","1920x1080","","4665.20000000298","29.37","img/117/3.5/1/bw/001.png","","","natural"
"","","","","","animation","275","11621852","0.0-275.0","1920x1080","","2938.7999999970198","12.17","img/117/2.5/1.5/bw/001.png","","","natural"
"","","","","","animation","276","11629748","0.0-276.0","1920x1080","","7894.100000008941","34.52","img/117/3.5/0.5/bw/001.png","","","natural"
"","","","","","animation","277","11637212","0.0-277.0","1920x1080","","7463.0999999940395","83.20","img/238/5.5/1/bw/001.png","","","natural"
"","","","","","animation","278","11644316","0.0-278.0","1920x1080","","7100.70000000298","17.72","img/238/3.5/0.66667/bw/001.png","","","natural"
"","","","","","animation","279","11651012","0.0-279.0","1920x1080","","6694.5","9.79","img/314/2.5/0.66667/bw/001.png","","","natural"
"","","","","","animation","280","11664197","0.0-280.0","1920x1080","","13183.09999999404","50.40","img/314/3.5/2/bw/001.png","","","natural"
"","","","","","animation","281","11666579","0.0-281.0","1920x1080","","2380","19.31","img/117/2.5/1/bw/001.png","","","natural"
"","","","","","animation","282","11669026","0.0-282.0","1920x1080","","2448.2000000029802","65","img/117/4.5/1.5/bw/001.png","","","natural"
"","","","","","animation","283","11675393","0.0-283.0","1920x1080","","6365.9000000059605","75.93","img/238/4.5/1/bw/001.png","","","natural"
"","","","","","animation","284","11678066","0.0-284.0","1920x1080","","2671.3999999910593","70.63","img/238/4.5/1.5/bw/001.png","","","natural"
"","","","","","animation","285","11684682","0.0-285.0","1920x1080","","6614.699999988079","64.15","img/117/4/2/bw/001.png","","","natural"
"","","","","","animation","286","11687343","0.0-286.0","1920x1080","","2659.3999999910593","64.15","img/117/4/1.5/bw/001.png","","","natural"
"","","","","","animation","287","11689410","0.0-287.0","1920x1080","","2065.7000000029802","3.97","img/238/2.5/0.5/bw/001.png","","","natural"
"","","","","","animation","288","11693561","0.0-288.0","1920x1080","","4150.20000000298","43.52","img/238/4/0.66667/bw/001.png","","","natural"
"","","","","","animation","289","11697081","0.0-289.0","1920x1080","","3518.7999999970198","52.65","img/238/3.5/1.5/bw/001.png","","","natural"
"","","","","","animation","290","11699234","0.0-290.0","1920x1080","","2151.1000000089407","12.04","img/238/2.5/2/bw/001.png","","","natural"
"","","","","","animation","291","11702442","0.0-291.0","1920x1080","","3207.4000000059605","79.23","img/238/4/1.5/bw/001.png","","","natural"
"","","","","","animation","292","11707259","0.0-292.0","1920x1080","","4815.70000000298","81.48","img/117/4.5/0.66667/bw/001.png","","","natural"
"","","","","","animation","293","11710666","0.0-293.0","1920x1080","","3404.7000000029802","8.33","img/314/2.5/2/bw/001.png","","","natural"
"","","","","","animation","294","11713865","0.0-294.0","1920x1080","","3198.300000011921","5.29","img/117/2.5/2/bw/001.png","","","natural"
"","","","","","animation","295","11719919","0.0-295.0","1920x1080","","6052.100000008941","76.06","img/117/4/0.66667/bw/001.png","","","natural"
"","","","","","animation","296","11722829","0.0-296.0","1920x1080","","2907.8999999910593","83.99","img/117/5.5/2/bw/001.png","","","natural"
"","","","","","animation","297","11726339","0.0-297.0","1920x1080","","3508.199999988079","92.20","img/314/5.5/1/bw/001.png","","","natural"
"","","","","","animation","298","11729934","0.0-298.0","1920x1080","","3593.7999999970198","82.41","img/314/4.5/2/bw/001.png","","","natural"
"","","","","","animation","299","11732929","0.0-299.0","1920x1080","","2993.7000000029802","89.02","img/314/5.5/0.5/bw/001.png","","","natural"
"","","","","","animation","300","11736044","0.0-300.0","1920x1080","","3112.6000000089407","92.33","img/314/5.5/2/bw/001.png","","","natural"
"","","","","","animation","301","11738475","0.0-301.0","1920x1080","","2430.5","58.47","img/117/4/1/bw/001.png","","","natural"
"","","","","","animation","302","11744713","0.0-302.0","1920x1080","","6236.20000000298","55.69","img/117/3.5/1.5/bw/001.png","","","natural"
"","","","","","animation","303","11750113","0.0-303.0","1920x1080","","5399","52.12","img/314/3.5/0.5/bw/001.png","","","natural"
"","","","","","animation","304","11753380","0.0-304.0","1920x1080","","3265.2000000029802","83.07","img/238/5.5/1.5/bw/001.png","","","natural"
"","","","","","animation","305","11756876","0.0-305.0","1920x1080","","3494.2000000029802","73.15","img/238/4.5/2/bw/001.png","","","natural"
"","","","","","animation","306","11762265","0.0-306.0","1920x1080","","5386.399999991059","48.15","img/314/4/2/bw/001.png","","","natural"
"","","","","","animation","307","11764129","0.0-307.0","1920x1080","","1862.2000000029802","14.95","img/238/2.5/1.5/bw/001.png","","","natural"
"","","","","","animation","308","11766695","0.0-308.0","1920x1080","","2565","22.75","img/314/3.5/1.5/bw/001.png","","","natural"
"","","","","","animation","309","11768659","0.0-309.0","1920x1080","","1962.5999999940395","35.05","img/314/4/1/bw/001.png","","","natural"
"","","","","","animation","310","11770825","0.0-310.0","1920x1080","","2165","6.61","img/238/2.5/0.66667/bw/001.png","","","natural"
"","","","","","animation","311","11774992","0.0-311.0","1920x1080","","4165.5999999940395","60","img/117/4.5/1/bw/001.png","","","natural"
"","","","","","animation","312","11777491","0.0-312.0","1920x1080","","2497.3999999910593","13.89","img/238/2.5/1/bw/001.png","","","natural"
"","","","","","html-button-response","313","11796027","0.0-313.0","1920x1080","","18524","","<div class=""intro"">You are about to view a new series of animations.<br><br></div><div class=""intro"">You will evaluate them based on a different descriptor.<br><br></div><div class=""intro"">Move the slider to indicate how <strong style=""text-transform:capitalize"">INTERESTING</strong> you find each animation.<br><br></div><div class=""intro"">0 = Least Interesting<br></div><div class=""intro"">1 = Most Interesting<br><br></div><div class=""intro"">Remember to use the <strong><em>entire range</em></strong> of the slider to make your ratings.<br></div><div class=""intro"">Please <strong><em>take your time</em></strong> and carefully consider each rating you make.<br><br></div>","0","",""
"","","","","","call-function","314","11796028","0.0-314.0","1920x1080","","","","","","",""
"","","","","","animation","315","11802067","0.0-315.0","1920x1080","","6038.79999999702","57.28","img/238/3.5/0.66667/bw/001.png","","","interesting"
"","","","","","animation","316","11805926","0.0-316.0","1920x1080","","3858.1000000089407","55.42","img/117/3.5/0.66667/bw/001.png","","","interesting"
"","","","","","animation","317","11808526","0.0-317.0","1920x1080","","2597.7999999970198","92.06","img/314/5.5/1/bw/001.png","","","interesting"
"","","","","","animation","318","11810971","0.0-318.0","1920x1080","","2444.199999988079","2.38","img/117/2.5/0.5/bw/001.png","","","interesting"
"","","","","","animation","319","11814589","0.0-319.0","1920x1080","","3615.9000000059605","70.11","img/117/3.5/1.5/bw/001.png","","","interesting"
"","","","","","animation","320","11816875","0.0-320.0","1920x1080","","2284.7000000029802","81.08","img/117/4.5/1.5/bw/001.png","","","interesting"
"","","","","","animation","321","11820139","0.0-321.0","1920x1080","","3262.7000000029802","56.75","img/314/3.5/1/bw/001.png","","","interesting"
"","","","","","animation","322","11823923","0.0-322.0","1920x1080","","3782.6000000089407","51.46","img/117/3.5/1/bw/001.png","","","interesting"
"","","","","","animation","323","11830787","0.0-323.0","1920x1080","","6861.9000000059605","71.69","img/314/4/1/bw/001.png","","","interesting"
"","","","","","animation","324","11834103","0.0-324.0","1920x1080","","3315.3999999910593","84.92","img/238/5.5/2/bw/001.png","","","interesting"
"","","","","","animation","325","11837206","0.0-325.0","1920x1080","","3101.6000000089407","96","img/117/5.5/0.5/bw/001.png","","","interesting"
"","","","","","animation","326","11840308","0.0-326.0","1920x1080","","3100.7000000029802","83.47","img/238/4.5/1/bw/001.png","","","interesting"
"","","","","","animation","327","11845019","0.0-327.0","1920x1080","","4709.79999999702","48.94","img/314/3.5/1.5/bw/001.png","","","interesting"
"","","","","","animation","328","11848670","0.0-328.0","1920x1080","","3648.0999999940395","74.07","img/238/4/2/bw/001.png","","","interesting"
"","","","","","animation","329","11853308","0.0-329.0","1920x1080","","4636.70000000298","11.64","img/238/2.5/0.5/bw/001.png","","","interesting"
"","","","","","animation","330","11856003","0.0-330.0","1920x1080","","2693.2000000029802","25.93","img/314/3.5/2/bw/001.png","","","interesting"
"","","","","","animation","331","11860253","0.0-331.0","1920x1080","","4248.5","35.98","img/117/4/2/bw/001.png","","","interesting"
"","","","","","animation","332","11862508","0.0-332.0","1920x1080","","2253.699999988079","67.46","img/117/4.5/2/bw/001.png","","","interesting"
"","","","","","animation","333","11865646","0.0-333.0","1920x1080","","3137","40","img/314/3.5/0.5/bw/001.png","","","interesting"
"","","","","","animation","334","11867837","0.0-334.0","1920x1080","","2189.5","67.20","img/314/4.5/0.66667/bw/001.png","","","interesting"
"","","","","","animation","335","11870044","0.0-335.0","1920x1080","","2206.2999999970198","28.31","img/117/3.5/0.5/bw/001.png","","","interesting"
"","","","","","animation","336","11873172","0.0-336.0","1920x1080","","3126.2999999970198","75.40","img/238/5.5/0.5/bw/001.png","","","interesting"
"","","","","","animation","337","11877460","0.0-337.0","1920x1080","","4286.5999999940395","68.39","img/314/4.5/0.5/bw/001.png","","","interesting"
"","","","","","animation","338","11879940","0.0-338.0","1920x1080","","2478.3999999910593","60.45","img/314/4/0.5/bw/001.png","","","interesting"
"","","","","","animation","339","11882604","0.0-339.0","1920x1080","","2662.6000000089407","80.95","img/314/4.5/1.5/bw/001.png","","","interesting"
"","","","","","animation","340","11885320","0.0-340.0","1920x1080","","2715.199999988079","76.98","img/117/4.5/0.5/bw/001.png","","","interesting"
"","","","","","animation","341","11894892","0.0-341.0","1920x1080","","9570.5","89.55","img/314/5.5/1.5/bw/001.png","","","interesting"
"","","","","","animation","342","11897825","0.0-342.0","1920x1080","","2931.2000000029802","83.47","img/314/5.5/0.5/bw/001.png","","","interesting"
"","","","","","animation","343","11900229","0.0-343.0","1920x1080","","2402.7999999970198","90.74","img/117/5.5/1.5/bw/001.png","","","interesting"
"","","","","","animation","344","11902640","0.0-344.0","1920x1080","","2408.300000011921","3.31","img/117/2.5/2/bw/001.png","","","interesting"
"","","","","","animation","345","11907083","0.0-345.0","1920x1080","","4442.100000008941","56.88","img/238/3.5/2/bw/001.png","","","interesting"
"","","","","","animation","346","11909525","0.0-346.0","1920x1080","","2450.2000000029802","48.94","img/117/4/1/bw/001.png","","","interesting"
"","","","","","animation","347","11911710","0.0-347.0","1920x1080","","2184.199999988079","73.54","img/238/5.5/1/bw/001.png","","","interesting"
"","","","","","animation","348","11914216","0.0-348.0","1920x1080","","2504.2999999970198","8.47","img/314/2.5/2/bw/001.png","","","interesting"
"","","","","","animation","349","11917185","0.0-349.0","1920x1080","","2967.2999999970198","90.34","img/314/5.5/0.66667/bw/001.png","","","interesting"
"","","","","","animation","350","11925944","0.0-350.0","1920x1080","","8758.20000000298","59","img/117/4/0.5/bw/001.png","","","interesting"
"","","","","","animation","351","11928044","0.0-351.0","1920x1080","","2098.2000000029802","2.12","img/314/2.5/1/bw/001.png","","","interesting"
"","","","","","animation","352","11930989","0.0-352.0","1920x1080","","2944.2999999970198","64.81","img/314/4.5/2/bw/001.png","","","interesting"
"","","","","","animation","353","11939914","0.0-353.0","1920x1080","","8923.5","67.72","img/238/4.5/1.5/bw/001.png","","","interesting"
"","","","","","animation","354","11944077","0.0-354.0","1920x1080","","4161.5","56.88","img/117/3.5/2/bw/001.png","","","interesting"
"","","","","","animation","355","11946714","0.0-355.0","1920x1080","","2633.7000000029802","80.95","img/238/5.5/1.5/bw/001.png","","","interesting"
"","","","","","animation","356","11950127","0.0-356.0","1920x1080","","3410.7999999970198","6.88","img/314/2.5/0.66667/bw/001.png","","","interesting"
"","","","","","animation","357","11952861","0.0-357.0","1920x1080","","2733.1000000089407","5.69","img/314/2.5/1.5/bw/001.png","","","interesting"
"","","","","","animation","358","11955346","0.0-358.0","1920x1080","","2483","42.72","img/238/3.5/1/bw/001.png","","","interesting"
"","","","","","animation","359","11956993","0.0-359.0","1920x1080","","1644.9000000059605","70.24","img/238/4/1.5/bw/001.png","","","interesting"
"","","","","","animation","360","11959569","0.0-360.0","1920x1080","","2574.5999999940395","73.28","img/117/4/1.5/bw/001.png","","","interesting"
"","","","","","animation","361","11962193","0.0-361.0","1920x1080","","2622.7999999970198","60.58","img/238/4/0.5/bw/001.png","","","interesting"
"","","","","","animation","362","11964485","0.0-362.0","1920x1080","","2290.5999999940395","88.10","img/238/5.5/0.66667/bw/001.png","","","interesting"
"","","","","","animation","363","11967739","0.0-363.0","1920x1080","","3253.4000000059605","69.71","img/238/4/1/bw/001.png","","","interesting"
"","","","","","animation","364","11972218","0.0-364.0","1920x1080","","4477.79999999702","85","img/238/4.5/0.5/bw/001.png","","","interesting"
"","","","","","animation","365","11977627","0.0-365.0","1920x1080","","5407.29999999702","92.72","img/314/5.5/2/bw/001.png","","","interesting"
"","","","","","animation","366","11983004","0.0-366.0","1920x1080","","5375.899999991059","97","img/117/5.5/1/bw/001.png","","","interesting"
"","","","","","animation","367","11986349","0.0-367.0","1920x1080","","3342.2000000029802","69.71","img/117/4/0.66667/bw/001.png","","","interesting"
"","","","","","animation","368","11988530","0.0-368.0","1920x1080","","2179.7000000029802","11.38","img/117/2.5/0.66667/bw/001.png","","","interesting"
"","","","","","animation","369","11991610","0.0-369.0","1920x1080","","3078.6000000089407","21.96","img/314/4.5/1/bw/001.png","","","interesting"
"","","","","","animation","370","11994660","0.0-370.0","1920x1080","","3049.0999999940395","20.90","img/314/3.5/0.66667/bw/001.png","","","interesting"
"","","","","","animation","371","11997243","0.0-371.0","1920x1080","","2581.699999988079","75.66","img/117/5.5/0.66667/bw/001.png","","","interesting"
"","","","","","animation","372","12002510","0.0-372.0","1920x1080","","5264.79999999702","84.39","img/238/4/0.66667/bw/001.png","","","interesting"
"","","","","","animation","373","12006530","0.0-373.0","1920x1080","","4018.9000000059605","5.29","img/238/2.5/0.66667/bw/001.png","","","interesting"
"","","","","","animation","374","12009468","0.0-374.0","1920x1080","","2936","82.80","img/238/4.5/2/bw/001.png","","","interesting"
"","","","","","animation","375","12012698","0.0-375.0","1920x1080","","3228.7999999970198","12.57","img/117/4.5/0.66667/bw/001.png","","","interesting"
"","","","","","animation","376","12018887","0.0-376.0","1920x1080","","6187.0999999940395","8","img/238/2.5/1/bw/001.png","","","interesting"
"","","","","","animation","377","12021394","0.0-377.0","1920x1080","","2505.6000000089407","36.24","img/238/3.5/1.5/bw/001.png","","","interesting"
"","","","","","animation","378","12024160","0.0-378.0","1920x1080","","2763.0999999940395","54.63","img/314/4/0.66667/bw/001.png","","","interesting"
"","","","","","animation","379","12026284","0.0-379.0","1920x1080","","2123.0999999940395","5.56","img/117/2.5/1.5/bw/001.png","","","interesting"
"","","","","","animation","380","12028764","0.0-380.0","1920x1080","","2474.800000011921","6.22","img/238/2.5/2/bw/001.png","","","interesting"
"","","","","","animation","381","12031949","0.0-381.0","1920x1080","","3184.0999999940395","63.76","img/314/4/1.5/bw/001.png","","","interesting"
"","","","","","animation","382","12034290","0.0-382.0","1920x1080","","2339.800000011921","5.82","img/238/2.5/1.5/bw/001.png","","","interesting"
"","","","","","animation","383","12036797","0.0-383.0","1920x1080","","2505.4000000059605","2","img/314/2.5/0.5/bw/001.png","","","interesting"
"","","","","","animation","384","12039364","0.0-384.0","1920x1080","","2565","79.63","img/238/4.5/0.66667/bw/001.png","","","interesting"
"","","","","","animation","385","12041917","0.0-385.0","1920x1080","","2552.3999999910593","15.74","img/314/4/2/bw/001.png","","","interesting"
"","","","","","animation","386","12044416","0.0-386.0","1920x1080","","2497","12.57","img/238/3.5/0.5/bw/001.png","","","interesting"
"","","","","","animation","387","12047047","0.0-387.0","1920x1080","","2630.5","73.15","img/117/4.5/1/bw/001.png","","","interesting"
"","","","","","animation","388","12049464","0.0-388.0","1920x1080","","2414.4000000059605","88.23","img/117/5.5/2/bw/001.png","","","interesting"
"","","","","","animation","389","12051880","0.0-389.0","1920x1080","","2414.7000000029802","7.80","img/117/2.5/1/bw/001.png","","","interesting"
"","","","","","html-button-response","390","12097111","0.0-390.0","1920x1080","","45222.5","","<strong>Study Debriefing</strong><br><p class=""debrief""><strong>Background:</strong> The patterns you rated are called <em>fractals</em>. The term fractal describes a class of irregular curves or shapes for which any suitably chosen part is similar in shape to a given larger or smaller part when magnified or reduced to the same size. Fractal properties are found throughout the natural and manmade world. The series of animations you saw today displayed animated fractal patterns of a varying complexity.</p><p class=""debrief""><strong>Purpose of this study:</strong> We hope to better understand how the perception of static fractals differs from the perception of animated fractals, and how the speed of the animated patterns influences people&apos;s perception of them. Fractals allow us to study the perception of aesthetic properties (e.g. the perceived level of beauty in an image) without using recognizable content, which makes them an excellent tool for studying abstract aesthetic judgement.</p><p class=""debrief""><strong>Your part:</strong> Your participation has helped us to further understand how humans perceive these patterns across different levels of speed and complexity. This research with allow us to better understand how the visual system and brain process our ever-changing visual environments.<p class=""debrief""><strong>Feedback and Further information:</strong> If you have additional questions about this study, please feel free to ask the researcher, Nathan Gonzales-Hess at nhess @ uoregon.edu. If you have any questions concerning your rights as a research participant, please contact Research Compliance Services, 5237 University of Oregon, Eugene, OR 97403, 541-346-2510, or email researchCompliance @ uoregon.edu. You can also email the Human Subjects Coordinator for psychology and linguistics research at hscoord @ uoregon.edu. ","0","",""
"","","","","","html-button-response","391","12104321","0.0-391.0","1920x1080","","7206.0999999940395","","Thank you for participating in this study. <br>Please click below to finish the experiment and submit your responses.<br><br>","0","",""
"true","","","","","fullscreen","392","12105336","0.0-392.0","1920x1080","14:6 5/10/2022","","","","","",""
