"success","timeout","failed_images","failed_audio","failed_video","trial_type","trial_index","time_elapsed","internal_node_id","resolution","timeStamp","rt","response","stimulus","button_pressed","value","descriptor"
"true","false","[]","[]","[]","preload","0","36336","0.0-0.0","1920x1080","","","","","","",""
"true","false","[]","[]","[]","preload","1","81091","0.0-1.0","1920x1080","","","","","","",""
"true","false","[]","[]","[]","preload","2","125163","0.0-2.0","1920x1080","","","","","","",""
"true","","","","","fullscreen","3","670155","0.0-3.0","1920x1080","10:53 7/10/2022","","","","","",""
"","","","","","survey-html-form","4","678674","0.0-4.0","1920x1080","","8515.89999999851","{""age"":""20"",""gender"":""female""}","","","",""
"","","","","","html-button-response","5","722642","0.0-5.0","1920x1080","","43967.10000000149","","<div class=""complex"">You are going to see a series of animations.<br><br></div><div class=""complex"">Move the slider to indicate how <strong style=""text-transform:capitalize"">COMPLEX</strong> you find each animation.<br><br></div><div class=""complex"">0 = Least Complex<br></div><div class=""complex"">1 = Most Complex<br><br></div><div class=""complex"">Remember to use the <strong><em>entire range</em></strong> of the slider to make your ratings.<br></div><div class=""complex"">Please <strong><em>take your time</em></strong> and carefully consider each rating you make.<br><br></div><div class=""complex"">The study has five sections and will take about 45 minutes to complete.<br><br></div>","0","",""
"","","","","","call-function","6","722643","0.0-6.0","1920x1080","","","","","","",""
"","","","","","animation","7","734112","0.0-7.0","1920x1080","","11452.5","75.00","img/314/4/0.5/bw/001.png","","","complex"
"","","","","","animation","8","747688","0.0-8.0","1920x1080","","13574.60000000149","33","img/314/5.5/1/bw/001.png","","","complex"
"","","","","","animation","9","757280","0.0-9.0","1920x1080","","9590.89999999851","84.26","img/238/3.5/0.66667/bw/001.png","","","complex"
"","","","","","animation","10","763432","0.0-10.0","1920x1080","","6150.89999999851","45.37","img/238/4/1.5/bw/001.png","","","complex"
"","","","","","animation","11","776408","0.0-11.0","1920x1080","","12975","58.33","img/238/4/0.5/bw/001.png","","","complex"
"","","","","","animation","12","783744","0.0-12.0","1920x1080","","7335","97","img/314/2.5/1/bw/001.png","","","complex"
"","","","","","animation","13","787592","0.0-13.0","1920x1080","","3847.10000000149","24.60","img/314/5.5/1.5/bw/001.png","","","complex"
"","","","","","animation","14","794144","0.0-14.0","1920x1080","","6551.10000000149","35.19","img/238/5.5/1.5/bw/001.png","","","complex"
"","","","","","animation","15","798328","0.0-15.0","1920x1080","","4183.0999999940395","70.24","img/117/4.5/0.5/bw/001.png","","","complex"
"","","","","","animation","16","811552","0.0-16.0","1920x1080","","13223.60000000149","65.48","img/238/4.5/0.5/bw/001.png","","","complex"
"","","","","","animation","17","823624","0.0-17.0","1920x1080","","12070.59999999404","17","img/314/5.5/0.66667/bw/001.png","","","complex"
"","","","","","animation","18","835496","0.0-18.0","1920x1080","","11871.29999999702","24.07","img/117/4.5/1/bw/001.png","","","complex"
"","","","","","animation","19","841120","0.0-19.0","1920x1080","","5623.39999999851","83.33","img/314/3.5/1/bw/001.png","","","complex"
"","","","","","animation","20","846448","0.0-20.0","1920x1080","","5327","96","img/238/2.5/1/bw/001.png","","","complex"
"","","","","","animation","21","854000","0.0-21.0","1920x1080","","7551.10000000149","52","img/117/4.5/1.5/bw/001.png","","","complex"
"","","","","","animation","22","857257","0.0-22.0","1920x1080","","3256.39999999851","65.48","img/117/4/0.66667/bw/001.png","","","complex"
"","","","","","animation","23","864815","0.0-23.0","1920x1080","","7557.80000000447","100","img/238/2.5/0.66667/bw/001.png","","","complex"
"","","","","","animation","24","868520","0.0-24.0","1920x1080","","3703.39999999851","100","img/117/2.5/0.5/bw/001.png","","","complex"
"","","","","","animation","25","872672","0.0-25.0","1920x1080","","4151","84.52","img/117/3.5/1/bw/001.png","","","complex"
"","","","","","animation","26","878240","0.0-26.0","1920x1080","","5567.89999999851","7.94","img/117/5.5/2/bw/001.png","","","complex"
"","","","","","animation","27","897784","0.0-27.0","1920x1080","","19542.60000000149","63.10","img/314/3.5/0.66667/bw/001.png","","","complex"
"","","","","","animation","28","904183","0.0-28.0","1920x1080","","6398.79999999702","13.89","img/117/5.5/1/bw/001.png","","","complex"
"","","","","","animation","29","911448","0.0-29.0","1920x1080","","7263.39999999851","55.03","img/117/4.5/2/bw/001.png","","","complex"
"","","","","","animation","30","926832","0.0-30.0","1920x1080","","15383.20000000298","16.93","img/238/5.5/2/bw/001.png","","","complex"
"","","","","","animation","31","940448","0.0-31.0","1920x1080","","13615","39.81","img/117/5.5/0.66667/bw/001.png","","","complex"
"","","","","","animation","32","950336","0.0-32.0","1920x1080","","9887.29999999702","83.47","img/117/4.5/0.66667/bw/001.png","","","complex"
"","","","","","animation","33","956064","0.0-33.0","1920x1080","","5727.19999999553","75","img/314/4/0.66667/bw/001.png","","","complex"
"","","","","","animation","34","967343","0.0-34.0","1920x1080","","11278.79999999702","72.75","img/314/4.5/0.66667/bw/001.png","","","complex"
"","","","","","animation","35","974120","0.0-35.0","1920x1080","","6775.39999999851","99","img/117/2.5/0.66667/bw/001.png","","","complex"
"","","","","","animation","36","980359","0.0-36.0","1920x1080","","6238.5","28.31","img/314/4.5/1.5/bw/001.png","","","complex"
"","","","","","animation","37","986975","0.0-37.0","1920x1080","","6615.29999999702","46.69","img/117/4/1.5/bw/001.png","","","complex"
"","","","","","animation","38","991120","0.0-38.0","1920x1080","","4143.5","53.84","img/314/4/1/bw/001.png","","","complex"
"","","","","","animation","39","994216","0.0-39.0","1920x1080","","3094.89999999851","62.17","img/314/3.5/1.5/bw/001.png","","","complex"
"","","","","","animation","40","997663","0.0-40.0","1920x1080","","3446.7999999970198","66.14","img/238/4/0.66667/bw/001.png","","","complex"
"","","","","","animation","41","1006096","0.0-41.0","1920x1080","","8431.19999999553","56.61","img/238/3.5/1.5/bw/001.png","","","complex"
"","","","","","animation","42","1013447","0.0-42.0","1920x1080","","7350.9000000059605","14.68","img/314/4/1.5/bw/001.png","","","complex"
"","","","","","animation","43","1018768","0.0-43.0","1920x1080","","5319.0999999940395","86.90","img/117/2.5/2/bw/001.png","","","complex"
"","","","","","animation","44","1028367","0.0-44.0","1920x1080","","9599.09999999404","13.89","img/117/5.5/0.5/bw/001.png","","","complex"
"","","","","","animation","45","1035673","0.0-45.0","1920x1080","","7305.19999999553","3.70","img/238/5.5/0.66667/bw/001.png","","","complex"
"","","","","","animation","46","1045343","0.0-46.0","1920x1080","","9668.29999999702","59.26","img/238/3.5/2/bw/001.png","","","complex"
"","","","","","animation","47","1049711","0.0-47.0","1920x1080","","4367","99","img/314/2.5/0.66667/bw/001.png","","","complex"
"","","","","","animation","48","1054856","0.0-48.0","1920x1080","","5143.60000000149","98","img/117/4/0.5/bw/001.png","","","complex"
"","","","","","animation","49","1060079","0.0-49.0","1920x1080","","5222.10000000149","99","img/314/3.5/0.5/bw/001.png","","","complex"
"","","","","","animation","50","1068183","0.0-50.0","1920x1080","","8102.9000000059605","59.39","img/314/4/2/bw/001.png","","","complex"
"","","","","","animation","51","1076927","0.0-51.0","1920x1080","","8742.29999999702","1","img/314/5.5/2/bw/001.png","","","complex"
"","","","","","animation","52","1084327","0.0-52.0","1920x1080","","7399","98","img/314/2.5/1.5/bw/001.png","","","complex"
"","","","","","animation","53","1090477","0.0-53.0","1920x1080","","6151.10000000149","99","img/117/2.5/1/bw/001.png","","","complex"
"","","","","","animation","54","1094933","0.0-54.0","1920x1080","","4454","99","img/238/2.5/1.5/bw/001.png","","","complex"
"","","","","","animation","55","1103733","0.0-55.0","1920x1080","","8798.39999999851","99","img/238/2.5/2/bw/001.png","","","complex"
"","","","","","animation","56","1108622","0.0-56.0","1920x1080","","4888.20000000298","98","img/314/4.5/0.5/bw/001.png","","","complex"
"","","","","","animation","57","1112485","0.0-57.0","1920x1080","","3862.2000000029802","82.94","img/238/4/1/bw/001.png","","","complex"
"","","","","","animation","58","1119029","0.0-58.0","1920x1080","","6542.79999999702","100","img/238/2.5/0.5/bw/001.png","","","complex"
"","","","","","animation","59","1123997","0.0-59.0","1920x1080","","4967.4000000059605","83.07","img/238/4.5/0.66667/bw/001.png","","","complex"
"","","","","","animation","60","1138438","0.0-60.0","1920x1080","","14440.39999999851","31.75","img/117/5.5/1.5/bw/001.png","","","complex"
"","","","","","animation","61","1166307","0.0-61.0","1920x1080","","27869","44.05","img/314/3.5/2/bw/001.png","","","complex"
"","","","","","animation","62","1169659","0.0-62.0","1920x1080","","3351","73.15","img/117/3.5/0.66667/bw/001.png","","","complex"
"","","","","","animation","63","1176427","0.0-63.0","1920x1080","","6766.9000000059605","89.95","img/314/2.5/2/bw/001.png","","","complex"
"","","","","","animation","64","1185339","0.0-64.0","1920x1080","","8910.70000000298","12","img/238/4.5/2/bw/001.png","","","complex"
"","","","","","animation","65","1190523","0.0-65.0","1920x1080","","5183","84.66","img/117/3.5/0.5/bw/001.png","","","complex"
"","","","","","animation","66","1203075","0.0-66.0","1920x1080","","12550.70000000298","86.38","img/117/2.5/1.5/bw/001.png","","","complex"
"","","","","","animation","67","1217697","0.0-67.0","1920x1080","","14623.10000000149","47","img/238/4.5/1.5/bw/001.png","","","complex"
"","","","","","animation","68","1224209","0.0-68.0","1920x1080","","6510.89999999851","7.67","img/238/5.5/0.5/bw/001.png","","","complex"
"","","","","","animation","69","1234169","0.0-69.0","1920x1080","","9958.70000000298","53","img/238/4.5/1/bw/001.png","","","complex"
"","","","","","animation","70","1239345","0.0-70.0","1920x1080","","5175.10000000149","70.63","img/238/4/2/bw/001.png","","","complex"
"","","","","","animation","71","1245809","0.0-71.0","1920x1080","","6462.70000000298","83.20","img/117/3.5/1.5/bw/001.png","","","complex"
"","","","","","animation","72","1250105","0.0-72.0","1920x1080","","4294.4000000059605","60.45","img/117/3.5/2/bw/001.png","","","complex"
"","","","","","animation","73","1273767","0.0-73.0","1920x1080","","23662.70000000298","45.63","img/314/4.5/1/bw/001.png","","","complex"
"","","","","","animation","74","1303048","0.0-74.0","1920x1080","","29280","47.09","img/314/4.5/2/bw/001.png","","","complex"
"","","","","","animation","75","1308727","0.0-75.0","1920x1080","","5678.39999999851","91.53","img/238/3.5/0.5/bw/001.png","","","complex"
"","","","","","animation","76","1325135","0.0-76.0","1920x1080","","16406.19999999553","69","img/117/4/2/bw/001.png","","","complex"
"","","","","","animation","77","1344565","0.0-77.0","1920x1080","","19431.10000000149","54","img/314/5.5/0.5/bw/001.png","","","complex"
"","","","","","animation","78","1348382","0.0-78.0","1920x1080","","3815.39999999851","100","img/314/2.5/0.5/bw/001.png","","","complex"
"","","","","","animation","79","1353006","0.0-79.0","1920x1080","","4623.10000000149","92.20","img/238/3.5/1/bw/001.png","","","complex"
"","","","","","animation","80","1364022","0.0-80.0","1920x1080","","11014.5","91.67","img/117/4/1/bw/001.png","","","complex"
"","","","","","animation","81","1371733","0.0-81.0","1920x1080","","7710.39999999851","22.35","img/238/5.5/1/bw/001.png","","","complex"
"","","","","","html-button-response","82","1391454","0.0-82.0","1920x1080","","19719.69999999553","","<div class=""intro"">You are about to view a new series of animations.<br><br></div><div class=""intro"">You will evaluate them based on a different descriptor.<br><br></div><div class=""intro"">Move the slider to indicate how <strong style=""text-transform:capitalize"">NATURAL</strong> you find each animation.<br><br></div><div class=""intro"">0 = Least Natural<br></div><div class=""intro"">1 = Most Natural<br><br></div><div class=""intro"">Remember to use the <strong><em>entire range</em></strong> of the slider to make your ratings.<br></div><div class=""intro"">Please <strong><em>take your time</em></strong> and carefully consider each rating you make.<br><br></div>","0","",""
"","","","","","call-function","83","1391455","0.0-83.0","1920x1080","","","","","","",""
"","","","","","animation","84","1432653","0.0-84.0","1920x1080","","41197.60000000149","40.61","img/314/2.5/2/bw/001.png","","","natural"
"","","","","","animation","85","1439296","0.0-85.0","1920x1080","","6640.89999999851","11.51","img/238/2.5/1/bw/001.png","","","natural"
"","","","","","animation","86","1448565","0.0-86.0","1920x1080","","9267.60000000149","19.31","img/117/4/1/bw/001.png","","","natural"
"","","","","","animation","87","1455733","0.0-87.0","1920x1080","","7166.5","91.27","img/314/5.5/0.66667/bw/001.png","","","natural"
"","","","","","animation","88","1460221","0.0-88.0","1920x1080","","4487.5","13.23","img/117/3.5/1/bw/001.png","","","natural"
"","","","","","animation","89","1463717","0.0-89.0","1920x1080","","3495.10000000149","7.41","img/117/3.5/0.5/bw/001.png","","","natural"
"","","","","","animation","90","1469221","0.0-90.0","1920x1080","","5503","45.37","img/314/4/1/bw/001.png","","","natural"
"","","","","","animation","91","1474149","0.0-91.0","1920x1080","","4926","5.95","img/117/2.5/0.66667/bw/001.png","","","natural"
"","","","","","animation","92","1478046","0.0-92.0","1920x1080","","3896.1999999955297","91.67","img/314/5.5/1/bw/001.png","","","natural"
"","","","","","animation","93","1485646","0.0-93.0","1920x1080","","7599.39999999851","83.86","img/238/5.5/0.5/bw/001.png","","","natural"
"","","","","","animation","94","1497717","0.0-94.0","1920x1080","","12068.5","30.69","img/117/3.5/1.5/bw/001.png","","","natural"
"","","","","","animation","95","1501830","0.0-95.0","1920x1080","","4111.89999999851","8.33","img/238/4/0.66667/bw/001.png","","","natural"
"","","","","","animation","96","1505453","0.0-96.0","1920x1080","","3621.5999999940395","4.37","img/314/3.5/0.5/bw/001.png","","","natural"
"","","","","","animation","97","1510679","0.0-97.0","1920x1080","","5225.30000000447","3.04","img/117/3.5/0.66667/bw/001.png","","","natural"
"","","","","","animation","98","1518357","0.0-98.0","1920x1080","","7676.70000000298","38.23","img/314/3.5/1.5/bw/001.png","","","natural"
"","","","","","animation","99","1536453","0.0-99.0","1920x1080","","18095","47.49","img/238/4/2/bw/001.png","","","natural"
"","","","","","animation","100","1553724","0.0-100.0","1920x1080","","17270.70000000298","35.85","img/117/3.5/2/bw/001.png","","","natural"
"","","","","","animation","101","1557212","0.0-101.0","1920x1080","","3486.6999999955297","2.65","img/314/2.5/0.5/bw/001.png","","","natural"
"","","","","","animation","102","1561812","0.0-102.0","1920x1080","","4598.60000000149","47.22","img/117/4.5/0.5/bw/001.png","","","natural"
"","","","","","animation","103","1566446","0.0-103.0","1920x1080","","4633","14.29","img/117/4/0.5/bw/001.png","","","natural"
"","","","","","animation","104","1578062","0.0-104.0","1920x1080","","11614","70","img/314/5.5/0.5/bw/001.png","","","natural"
"","","","","","animation","105","1589524","0.0-105.0","1920x1080","","11462","93.39","img/117/5.5/2/bw/001.png","","","natural"
"","","","","","animation","106","1592885","0.0-106.0","1920x1080","","3358.2999999970198","5.56","img/117/2.5/1.5/bw/001.png","","","natural"
"","","","","","animation","107","1596495","0.0-107.0","1920x1080","","3609.5","8.33","img/238/3.5/2/bw/001.png","","","natural"
"","","","","","animation","108","1607837","0.0-108.0","1920x1080","","11340.60000000149","87.83","img/238/5.5/1.5/bw/001.png","","","natural"
"","","","","","animation","109","1618996","0.0-109.0","1920x1080","","11158.39999999851","12.17","img/314/2.5/0.66667/bw/001.png","","","natural"
"","","","","","animation","110","1623373","0.0-110.0","1920x1080","","4375.29999999702","11.64","img/238/2.5/1.5/bw/001.png","","","natural"
"","","","","","animation","111","1629156","0.0-111.0","1920x1080","","5782.70000000298","78.44","img/314/5.5/1.5/bw/001.png","","","natural"
"","","","","","animation","112","1639116","0.0-112.0","1920x1080","","9958.79999999702","55","img/117/4.5/2/bw/001.png","","","natural"
"","","","","","animation","113","1647940","0.0-113.0","1920x1080","","8823.20000000298","40.87","img/238/4.5/0.5/bw/001.png","","","natural"
"","","","","","animation","114","1654588","0.0-114.0","1920x1080","","6646.89999999851","25","img/238/2.5/2/bw/001.png","","","natural"
"","","","","","animation","115","1660652","0.0-115.0","1920x1080","","6062.5","77.51","img/117/5.5/0.66667/bw/001.png","","","natural"
"","","","","","animation","116","1699604","0.0-116.0","1920x1080","","38951.10000000149","61.90","img/238/4.5/1/bw/001.png","","","natural"
"","","","","","animation","117","1704884","0.0-117.0","1920x1080","","5278.5","52.12","img/314/4.5/1/bw/001.png","","","natural"
"","","","","","animation","118","1710711","0.0-118.0","1920x1080","","5826.30000000447","19.05","img/238/3.5/1/bw/001.png","","","natural"
"","","","","","animation","119","1713716","0.0-119.0","1920x1080","","3004.2999999970198","16.01","img/117/4/0.66667/bw/001.png","","","natural"
"","","","","","animation","120","1721148","0.0-120.0","1920x1080","","7430.70000000298","100","img/238/5.5/2/bw/001.png","","","natural"
"","","","","","animation","121","1741884","0.0-121.0","1920x1080","","20735.19999999553","74.21","img/117/4.5/1/bw/001.png","","","natural"
"","","","","","animation","122","1745172","0.0-122.0","1920x1080","","3286.7999999970198","30.16","img/314/3.5/1/bw/001.png","","","natural"
"","","","","","animation","123","1751533","0.0-123.0","1920x1080","","6359","6.35","img/238/4/0.5/bw/001.png","","","natural"
"","","","","","animation","124","1766605","0.0-124.0","1920x1080","","15069.80000000447","11.77","img/238/3.5/0.66667/bw/001.png","","","natural"
"","","","","","animation","125","1791813","0.0-125.0","1920x1080","","25206.29999999702","87.83","img/117/5.5/1/bw/001.png","","","natural"
"","","","","","animation","126","1800173","0.0-126.0","1920x1080","","8359.20000000298","16.27","img/238/2.5/0.5/bw/001.png","","","natural"
"","","","","","animation","127","1817544","0.0-127.0","1920x1080","","17370.70000000298","29.89","img/314/4/0.5/bw/001.png","","","natural"
"","","","","","animation","128","1823468","0.0-128.0","1920x1080","","5921.9000000059605","38","img/314/4.5/0.5/bw/001.png","","","natural"
"","","","","","animation","129","1828004","0.0-129.0","1920x1080","","4535","18","img/117/2.5/2/bw/001.png","","","natural"
"","","","","","animation","130","1830795","0.0-130.0","1920x1080","","2790.39999999851","56.88","img/117/5.5/0.5/bw/001.png","","","natural"
"","","","","","animation","131","1835460","0.0-131.0","1920x1080","","4663.60000000149","57.28","img/314/4.5/2/bw/001.png","","","natural"
"","","","","","animation","132","1840204","0.0-132.0","1920x1080","","4742.80000000447","56.35","img/238/4.5/1.5/bw/001.png","","","natural"
"","","","","","animation","133","1855484","0.0-133.0","1920x1080","","15278.69999999553","66","img/117/4/1.5/bw/001.png","","","natural"
"","","","","","animation","134","1870885","0.0-134.0","1920x1080","","15397.89999999851","41.67","img/238/3.5/1.5/bw/001.png","","","natural"
"","","","","","animation","135","1880749","0.0-135.0","1920x1080","","9862.60000000149","50","img/238/4/1/bw/001.png","","","natural"
"","","","","","animation","136","1889077","0.0-136.0","1920x1080","","8326.89999999851","95","img/238/5.5/1/bw/001.png","","","natural"
"","","","","","animation","137","1963564","0.0-137.0","1920x1080","","74485.40000000596","41.27","img/117/4.5/1.5/bw/001.png","","","natural"
"","","","","","animation","138","1971028","0.0-138.0","1920x1080","","7457.10000000149","32","img/117/4/2/bw/001.png","","","natural"
"","","","","","animation","139","1978744","0.0-139.0","1920x1080","","7714.5","75.26","img/314/5.5/2/bw/001.png","","","natural"
"","","","","","animation","140","1987036","0.0-140.0","1920x1080","","8291.60000000149","15.21","img/314/3.5/0.66667/bw/001.png","","","natural"
"","","","","","animation","141","1998467","0.0-141.0","1920x1080","","11430.5","10","img/314/2.5/1/bw/001.png","","","natural"
"","","","","","animation","142","2003668","0.0-142.0","1920x1080","","5197.29999999702","3.70","img/238/2.5/0.66667/bw/001.png","","","natural"
"","","","","","animation","143","2019243","0.0-143.0","1920x1080","","15574.29999999702","42.33","img/314/4/1.5/bw/001.png","","","natural"
"","","","","","animation","144","2022677","0.0-144.0","1920x1080","","3432.4000000059605","90.48","img/117/5.5/1.5/bw/001.png","","","natural"
"","","","","","animation","145","2029693","0.0-145.0","1920x1080","","7015.0999999940395","40.61","img/238/4/1.5/bw/001.png","","","natural"
"","","","","","animation","146","2074227","0.0-146.0","1920x1080","","44533","46","img/314/4.5/0.66667/bw/001.png","","","natural"
"","","","","","animation","147","2081660","0.0-147.0","1920x1080","","7431.20000000298","53.57","img/314/4/2/bw/001.png","","","natural"
"","","","","","animation","148","2089188","0.0-148.0","1920x1080","","7527.39999999851","33","img/238/4.5/0.66667/bw/001.png","","","natural"
"","","","","","animation","149","2093284","0.0-149.0","1920x1080","","4094.6999999955297","28.97","img/314/4/0.66667/bw/001.png","","","natural"
"","","","","","animation","150","2108607","0.0-150.0","1920x1080","","15318.69999999553","50.26","img/238/4.5/2/bw/001.png","","","natural"
"","","","","","animation","151","2112763","0.0-151.0","1920x1080","","4154.69999999553","9.92","img/117/2.5/1/bw/001.png","","","natural"
"","","","","","animation","152","2119198","0.0-152.0","1920x1080","","6434.29999999702","12.04","img/314/2.5/1.5/bw/001.png","","","natural"
"","","","","","animation","153","2133239","0.0-153.0","1920x1080","","14039.09999999404","58","img/314/4.5/1.5/bw/001.png","","","natural"
"","","","","","animation","154","2142407","0.0-154.0","1920x1080","","9167","23","img/117/4.5/0.66667/bw/001.png","","","natural"
"","","","","","animation","155","2146888","0.0-155.0","1920x1080","","4479.79999999702","36.77","img/314/3.5/2/bw/001.png","","","natural"
"","","","","","animation","156","2150814","0.0-156.0","1920x1080","","3924.10000000149","58.47","img/238/5.5/0.66667/bw/001.png","","","natural"
"","","","","","animation","157","2154398","0.0-157.0","1920x1080","","3583.10000000149","0","img/117/2.5/0.5/bw/001.png","","","natural"
"","","","","","animation","158","2157703","0.0-158.0","1920x1080","","3303.0999999940395","4.76","img/238/3.5/0.5/bw/001.png","","","natural"
"","","","","","html-button-response","159","2189916","0.0-159.0","1920x1080","","32209.5","","<div class=""intro"">You are about to view a new series of animations.<br><br></div><div class=""intro"">You will evaluate them based on a different descriptor.<br><br></div><div class=""intro"">Move the slider to indicate how <strong style=""text-transform:capitalize"">APPEALING</strong> you find each animation.<br><br></div><div class=""intro"">0 = Least Appealing<br></div><div class=""intro"">1 = Most Appealing<br><br></div><div class=""intro"">Remember to use the <strong><em>entire range</em></strong> of the slider to make your ratings.<br></div><div class=""intro"">Please <strong><em>take your time</em></strong> and carefully consider each rating you make.<br><br></div>","0","",""
"","","","","","call-function","160","2189920","0.0-160.0","1920x1080","","","","","","",""
"","","","","","animation","161","2194305","0.0-161.0","1920x1080","","4384","19.84","img/117/4/0.66667/bw/001.png","","","appealing"
"","","","","","animation","162","2196792","0.0-162.0","1920x1080","","2486.39999999851","0.53","img/117/2.5/0.66667/bw/001.png","","","appealing"
"","","","","","animation","163","2200000","0.0-163.0","1920x1080","","3206.89999999851","60.85","img/314/4.5/1.5/bw/001.png","","","appealing"
"","","","","","animation","164","2202581","0.0-164.0","1920x1080","","2580","73.28","img/117/5.5/2/bw/001.png","","","appealing"
"","","","","","animation","165","2205881","0.0-165.0","1920x1080","","3299","0.40","img/238/2.5/0.5/bw/001.png","","","appealing"
"","","","","","animation","166","2209400","0.0-166.0","1920x1080","","3517.7999999970198","14.15","img/314/4/0.5/bw/001.png","","","appealing"
"","","","","","animation","167","2215137","0.0-167.0","1920x1080","","5734.9000000059605","44","img/117/3.5/2/bw/001.png","","","appealing"
"","","","","","animation","168","2225641","0.0-168.0","1920x1080","","10500.10000000149","30.42","img/314/4.5/0.66667/bw/001.png","","","appealing"
"","","","","","animation","169","2229235","0.0-169.0","1920x1080","","3590","20.63","img/117/2.5/1/bw/001.png","","","appealing"
"","","","","","animation","170","2234200","0.0-170.0","1920x1080","","4964.60000000149","0.53","img/314/2.5/0.5/bw/001.png","","","appealing"
"","","","","","animation","171","2240100","0.0-171.0","1920x1080","","5898.70000000298","41.14","img/314/4/2/bw/001.png","","","appealing"
"","","","","","animation","172","2247259","0.0-172.0","1920x1080","","7158.10000000149","54.37","img/117/5.5/0.5/bw/001.png","","","appealing"
"","","","","","animation","173","2251459","0.0-173.0","1920x1080","","4198.80000000447","32.54","img/314/3.5/1.5/bw/001.png","","","appealing"
"","","","","","animation","174","2254867","0.0-174.0","1920x1080","","3406.3000000044703","10.45","img/117/3.5/0.5/bw/001.png","","","appealing"
"","","","","","animation","175","2258635","0.0-175.0","1920x1080","","3766.60000000149","9.26","img/314/2.5/1/bw/001.png","","","appealing"
"","","","","","animation","176","2267219","0.0-176.0","1920x1080","","8583","86.38","img/238/4.5/1/bw/001.png","","","appealing"
"","","","","","animation","177","2298736","0.0-177.0","1920x1080","","31512.5","71.83","img/117/4.5/1.5/bw/001.png","","","appealing"
"","","","","","animation","178","2301742","0.0-178.0","1920x1080","","3004.39999999851","36.77","img/238/2.5/2/bw/001.png","","","appealing"
"","","","","","animation","179","2305389","0.0-179.0","1920x1080","","3646.3000000044703","20.37","img/238/4.5/0.5/bw/001.png","","","appealing"
"","","","","","animation","180","2313487","0.0-180.0","1920x1080","","8096.10000000149","53","img/238/4/2/bw/001.png","","","appealing"
"","","","","","animation","181","2319661","0.0-181.0","1920x1080","","6172.80000000447","57","img/314/4.5/2/bw/001.png","","","appealing"
"","","","","","animation","182","2326789","0.0-182.0","1920x1080","","7126.30000000447","33.20","img/314/4/0.66667/bw/001.png","","","appealing"
"","","","","","animation","183","2349144","0.0-183.0","1920x1080","","22350.79999999702","61.24","img/238/4/1.5/bw/001.png","","","appealing"
"","","","","","animation","184","2355472","0.0-184.0","1920x1080","","6326.20000000298","82.28","img/117/4.5/2/bw/001.png","","","appealing"
"","","","","","animation","185","2381538","0.0-185.0","1920x1080","","26065.19999999553","38","img/314/3.5/1/bw/001.png","","","appealing"
"","","","","","animation","186","2407172","0.0-186.0","1920x1080","","25632.20000000298","50.66","img/117/3.5/1.5/bw/001.png","","","appealing"
"","","","","","animation","187","2412097","0.0-187.0","1920x1080","","4923.39999999851","100","img/314/5.5/1/bw/001.png","","","appealing"
"","","","","","animation","188","2415806","0.0-188.0","1920x1080","","3707.7000000029802","76.98","img/117/4/1.5/bw/001.png","","","appealing"
"","","","","","animation","189","2418825","0.0-189.0","1920x1080","","3017.8000000044703","81.88","img/238/4.5/1.5/bw/001.png","","","appealing"
"","","","","","animation","190","2423897","0.0-190.0","1920x1080","","5071.10000000149","1","img/238/3.5/0.5/bw/001.png","","","appealing"
"","","","","","animation","191","2431123","0.0-191.0","1920x1080","","7224.39999999851","100","img/314/5.5/2/bw/001.png","","","appealing"
"","","","","","animation","192","2436545","0.0-192.0","1920x1080","","5421.10000000149","99","img/314/5.5/1.5/bw/001.png","","","appealing"
"","","","","","animation","193","2443006","0.0-193.0","1920x1080","","6459.80000000447","9.52","img/117/3.5/0.66667/bw/001.png","","","appealing"
"","","","","","animation","194","2448849","0.0-194.0","1920x1080","","5841.29999999702","8.86","img/314/2.5/2/bw/001.png","","","appealing"
"","","","","","animation","195","2478633","0.0-195.0","1920x1080","","29782.69999999553","46","img/314/4/1.5/bw/001.png","","","appealing"
"","","","","","animation","196","2481465","0.0-196.0","1920x1080","","2830.9000000059605","70.90","img/314/5.5/0.66667/bw/001.png","","","appealing"
"","","","","","animation","197","2487081","0.0-197.0","1920x1080","","5614.70000000298","5.56","img/314/3.5/0.5/bw/001.png","","","appealing"
"","","","","","animation","198","2491161","0.0-198.0","1920x1080","","4078.60000000149","76.72","img/117/5.5/1/bw/001.png","","","appealing"
"","","","","","animation","199","2499573","0.0-199.0","1920x1080","","8410.59999999404","12.43","img/314/3.5/0.66667/bw/001.png","","","appealing"
"","","","","","animation","200","2505689","0.0-200.0","1920x1080","","6113.89999999851","96","img/238/5.5/1/bw/001.png","","","appealing"
"","","","","","animation","201","2510041","0.0-201.0","1920x1080","","4349","1.19","img/117/2.5/0.5/bw/001.png","","","appealing"
"","","","","","animation","202","2524041","0.0-202.0","1920x1080","","13998.69999999553","69.97","img/117/5.5/0.66667/bw/001.png","","","appealing"
"","","","","","animation","203","2527257","0.0-203.0","1920x1080","","3214.7000000029802","33.33","img/117/3.5/1/bw/001.png","","","appealing"
"","","","","","animation","204","2529865","0.0-204.0","1920x1080","","2607.0999999940395","27.12","img/117/4.5/0.5/bw/001.png","","","appealing"
"","","","","","animation","205","2534513","0.0-205.0","1920x1080","","4646.5999999940395","34.79","img/238/3.5/2/bw/001.png","","","appealing"
"","","","","","animation","206","2540024","0.0-206.0","1920x1080","","5510.39999999851","70","img/238/5.5/1.5/bw/001.png","","","appealing"
"","","","","","animation","207","2543040","0.0-207.0","1920x1080","","3014.5","8.07","img/238/2.5/0.66667/bw/001.png","","","appealing"
"","","","","","animation","208","2549313","0.0-208.0","1920x1080","","6271.4000000059605","14.29","img/314/2.5/1.5/bw/001.png","","","appealing"
"","","","","","animation","209","2554406","0.0-209.0","1920x1080","","5090.39999999851","20.77","img/238/4/1/bw/001.png","","","appealing"
"","","","","","animation","210","2562722","0.0-210.0","1920x1080","","8315.39999999851","7.14","img/117/4/0.5/bw/001.png","","","appealing"
"","","","","","animation","211","2570589","0.0-211.0","1920x1080","","7864.39999999851","87.30","img/117/5.5/1.5/bw/001.png","","","appealing"
"","","","","","animation","212","2582939","0.0-212.0","1920x1080","","12348.70000000298","71","img/117/4.5/1/bw/001.png","","","appealing"
"","","","","","animation","213","2588905","0.0-213.0","1920x1080","","5965.30000000447","19.18","img/238/3.5/0.66667/bw/001.png","","","appealing"
"","","","","","animation","214","2592128","0.0-214.0","1920x1080","","3221.2000000029802","89.55","img/238/5.5/2/bw/001.png","","","appealing"
"","","","","","animation","215","2595944","0.0-215.0","1920x1080","","3814.5","6.35","img/117/2.5/1.5/bw/001.png","","","appealing"
"","","","","","animation","216","2600280","0.0-216.0","1920x1080","","4334.29999999702","5.82","img/117/4.5/0.66667/bw/001.png","","","appealing"
"","","","","","animation","217","2606944","0.0-217.0","1920x1080","","6662.5","23","img/238/4.5/0.66667/bw/001.png","","","appealing"
"","","","","","animation","218","2611208","0.0-218.0","1920x1080","","4262.10000000149","6.88","img/238/4/0.66667/bw/001.png","","","appealing"
"","","","","","animation","219","2615144","0.0-219.0","1920x1080","","3934.8000000044703","4.10","img/238/2.5/1/bw/001.png","","","appealing"
"","","","","","animation","220","2621389","0.0-220.0","1920x1080","","6242.89999999851","66","img/238/4.5/2/bw/001.png","","","appealing"
"","","","","","animation","221","2628655","0.0-221.0","1920x1080","","7264.89999999851","96","img/314/5.5/0.5/bw/001.png","","","appealing"
"","","","","","animation","222","2631496","0.0-222.0","1920x1080","","2839","30.69","img/117/2.5/2/bw/001.png","","","appealing"
"","","","","","animation","223","2635705","0.0-223.0","1920x1080","","4207.70000000298","7","img/238/4/0.5/bw/001.png","","","appealing"
"","","","","","animation","224","2640839","0.0-224.0","1920x1080","","5132.10000000149","95","img/238/5.5/0.66667/bw/001.png","","","appealing"
"","","","","","animation","225","2647056","0.0-225.0","1920x1080","","6216","17.06","img/238/3.5/1/bw/001.png","","","appealing"
"","","","","","animation","226","2658480","0.0-226.0","1920x1080","","11422.60000000149","41","img/117/4/1/bw/001.png","","","appealing"
"","","","","","animation","227","2672555","0.0-227.0","1920x1080","","14072.79999999702","50.79","img/314/4.5/1/bw/001.png","","","appealing"
"","","","","","animation","228","2675680","0.0-228.0","1920x1080","","3123.8000000044703","21.69","img/314/4.5/0.5/bw/001.png","","","appealing"
"","","","","","animation","229","2684722","0.0-229.0","1920x1080","","9040.40000000596","22","img/314/4/1/bw/001.png","","","appealing"
"","","","","","animation","230","2689288","0.0-230.0","1920x1080","","4565.10000000149","38.76","img/117/4/2/bw/001.png","","","appealing"
"","","","","","animation","231","2693122","0.0-231.0","1920x1080","","3831.89999999851","9.13","img/238/2.5/1.5/bw/001.png","","","appealing"
"","","","","","animation","232","2697238","0.0-232.0","1920x1080","","4114.60000000149","6.88","img/314/2.5/0.66667/bw/001.png","","","appealing"
"","","","","","animation","233","2705496","0.0-233.0","1920x1080","","8256.89999999851","88.23","img/238/5.5/0.5/bw/001.png","","","appealing"
"","","","","","animation","234","2709745","0.0-234.0","1920x1080","","4246.5","14.95","img/314/3.5/2/bw/001.png","","","appealing"
"","","","","","animation","235","2714127","0.0-235.0","1920x1080","","4379.19999999553","15.08","img/238/3.5/1.5/bw/001.png","","","appealing"
"","","","","","html-button-response","236","2733297","0.0-236.0","1920x1080","","19167.89999999851","","<div class=""intro"">You are about to view a new series of animations.<br><br></div><div class=""intro"">You will evaluate them based on a different descriptor.<br><br></div><div class=""intro"">Move the slider to indicate how <strong style=""text-transform:capitalize"">INTERESTING</strong> you find each animation.<br><br></div><div class=""intro"">0 = Least Interesting<br></div><div class=""intro"">1 = Most Interesting<br><br></div><div class=""intro"">Remember to use the <strong><em>entire range</em></strong> of the slider to make your ratings.<br></div><div class=""intro"">Please <strong><em>take your time</em></strong> and carefully consider each rating you make.<br><br></div>","0","",""
"","","","","","call-function","237","2733298","0.0-237.0","1920x1080","","","","","","",""
"","","","","","animation","238","2743113","0.0-238.0","1920x1080","","9814.30000000447","90.08","img/238/4.5/0.66667/bw/001.png","","","interesting"
"","","","","","animation","239","2748840","0.0-239.0","1920x1080","","5725.20000000298","74.87","img/117/3.5/0.66667/bw/001.png","","","interesting"
"","","","","","animation","240","2755465","0.0-240.0","1920x1080","","6623.10000000149","88.76","img/238/3.5/1/bw/001.png","","","interesting"
"","","","","","animation","241","2761756","0.0-241.0","1920x1080","","6288.80000000447","38.23","img/117/2.5/0.66667/bw/001.png","","","interesting"
"","","","","","animation","242","2765424","0.0-242.0","1920x1080","","3667.60000000149","31.88","img/238/2.5/1/bw/001.png","","","interesting"
"","","","","","animation","243","2769839","0.0-243.0","1920x1080","","4412.80000000447","52.12","img/117/5.5/2/bw/001.png","","","interesting"
"","","","","","animation","244","2773561","0.0-244.0","1920x1080","","3720.5","37.17","img/238/2.5/0.66667/bw/001.png","","","interesting"
"","","","","","animation","245","2781024","0.0-245.0","1920x1080","","7462.30000000447","32.01","img/314/2.5/0.66667/bw/001.png","","","interesting"
"","","","","","animation","246","2784039","0.0-246.0","1920x1080","","3013.39999999851","64.55","img/117/3.5/0.5/bw/001.png","","","interesting"
"","","","","","animation","247","2788122","0.0-247.0","1920x1080","","4082.2000000029802","85.19","img/238/4.5/0.5/bw/001.png","","","interesting"
"","","","","","animation","248","2795513","0.0-248.0","1920x1080","","7389.10000000149","62.70","img/238/5.5/1.5/bw/001.png","","","interesting"
"","","","","","animation","249","2800489","0.0-249.0","1920x1080","","4974.30000000447","93","img/117/5.5/0.66667/bw/001.png","","","interesting"
"","","","","","animation","250","2804256","0.0-250.0","1920x1080","","3765.3000000044703","87.70","img/238/4.5/1.5/bw/001.png","","","interesting"
"","","","","","animation","251","2807656","0.0-251.0","1920x1080","","3398.60000000149","34.79","img/117/2.5/1/bw/001.png","","","interesting"
"","","","","","animation","252","2810306","0.0-252.0","1920x1080","","2648.7999999970198","85.58","img/238/4.5/2/bw/001.png","","","interesting"
"","","","","","animation","253","2813745","0.0-253.0","1920x1080","","3437.7999999970198","28.44","img/117/2.5/0.5/bw/001.png","","","interesting"
"","","","","","animation","254","2819008","0.0-254.0","1920x1080","","5262.39999999851","35","img/314/2.5/0.5/bw/001.png","","","interesting"
"","","","","","animation","255","2821697","0.0-255.0","1920x1080","","2686.89999999851","80.03","img/314/4/2/bw/001.png","","","interesting"
"","","","","","animation","256","2825176","0.0-256.0","1920x1080","","3478","91.40","img/238/5.5/0.5/bw/001.png","","","interesting"
"","","","","","animation","257","2830972","0.0-257.0","1920x1080","","5794.70000000298","91.67","img/314/5.5/0.5/bw/001.png","","","interesting"
"","","","","","animation","258","2837056","0.0-258.0","1920x1080","","6082.79999999702","68.25","img/314/3.5/1/bw/001.png","","","interesting"
"","","","","","animation","259","2840592","0.0-259.0","1920x1080","","3534.6999999955297","79.37","img/117/4.5/0.66667/bw/001.png","","","interesting"
"","","","","","animation","260","2845271","0.0-260.0","1920x1080","","4678.0999999940395","65","img/238/5.5/2/bw/001.png","","","interesting"
"","","","","","animation","261","2849512","0.0-261.0","1920x1080","","4239.39999999851","43.78","img/117/2.5/1.5/bw/001.png","","","interesting"
"","","","","","animation","262","2852608","0.0-262.0","1920x1080","","3094.7000000029802","88.76","img/117/4/1/bw/001.png","","","interesting"
"","","","","","animation","263","2856208","0.0-263.0","1920x1080","","3597.60000000149","71.30","img/238/3.5/0.66667/bw/001.png","","","interesting"
"","","","","","animation","264","2860172","0.0-264.0","1920x1080","","3963.1999999955297","61.11","img/117/4/0.5/bw/001.png","","","interesting"
"","","","","","animation","265","2863939","0.0-265.0","1920x1080","","3765.2999999970198","73.81","img/314/4/1.5/bw/001.png","","","interesting"
"","","","","","animation","266","2869744","0.0-266.0","1920x1080","","5804.10000000149","82.41","img/238/4/2/bw/001.png","","","interesting"
"","","","","","animation","267","2880798","0.0-267.0","1920x1080","","11052.39999999851","83.60","img/314/3.5/1.5/bw/001.png","","","interesting"
"","","","","","animation","268","2891224","0.0-268.0","1920x1080","","10423.79999999702","81.08","img/117/5.5/0.5/bw/001.png","","","interesting"
"","","","","","animation","269","2894972","0.0-269.0","1920x1080","","3746.7000000029802","30.42","img/314/2.5/2/bw/001.png","","","interesting"
"","","","","","animation","270","2897808","0.0-270.0","1920x1080","","2834.5","52.38","img/314/3.5/2/bw/001.png","","","interesting"
"","","","","","animation","271","2901096","0.0-271.0","1920x1080","","3286.89999999851","73.02","img/314/4.5/1/bw/001.png","","","interesting"
"","","","","","animation","272","2905139","0.0-272.0","1920x1080","","4041.10000000149","17.20","img/238/2.5/2/bw/001.png","","","interesting"
"","","","","","animation","273","2910155","0.0-273.0","1920x1080","","5015","70.63","img/117/4/0.66667/bw/001.png","","","interesting"
"","","","","","animation","274","2915422","0.0-274.0","1920x1080","","5265.80000000447","30.69","img/238/2.5/1.5/bw/001.png","","","interesting"
"","","","","","animation","275","2927338","0.0-275.0","1920x1080","","11914.60000000149","72.88","img/238/4/1/bw/001.png","","","interesting"
"","","","","","animation","276","2931705","0.0-276.0","1920x1080","","4363.70000000298","33.73","img/238/2.5/0.5/bw/001.png","","","interesting"
"","","","","","animation","277","2937672","0.0-277.0","1920x1080","","5965.10000000149","60.32","img/314/4.5/2/bw/001.png","","","interesting"
"","","","","","animation","278","2947912","0.0-278.0","1920x1080","","10238.69999999553","22","img/314/2.5/1.5/bw/001.png","","","interesting"
"","","","","","animation","279","2952288","0.0-279.0","1920x1080","","4374.60000000149","82.54","img/314/5.5/0.66667/bw/001.png","","","interesting"
"","","","","","animation","280","2954744","0.0-280.0","1920x1080","","2453.39999999851","64.29","img/314/4/1/bw/001.png","","","interesting"
"","","","","","animation","281","2957656","0.0-281.0","1920x1080","","2910.60000000149","60.85","img/238/3.5/1.5/bw/001.png","","","interesting"
"","","","","","animation","282","2965496","0.0-282.0","1920x1080","","7839.10000000149","51.72","img/314/4.5/0.5/bw/001.png","","","interesting"
"","","","","","animation","283","2969528","0.0-283.0","1920x1080","","4030.2999999970198","37.83","img/117/3.5/1/bw/001.png","","","interesting"
"","","","","","animation","284","2975622","0.0-284.0","1920x1080","","6092.80000000447","89.68","img/314/5.5/2/bw/001.png","","","interesting"
"","","","","","animation","285","2980355","0.0-285.0","1920x1080","","4731.39999999851","73.02","img/238/3.5/2/bw/001.png","","","interesting"
"","","","","","animation","286","2992638","0.0-286.0","1920x1080","","12281.69999999553","88.89","img/314/5.5/1.5/bw/001.png","","","interesting"
"","","","","","animation","287","3000438","0.0-287.0","1920x1080","","7798.4000000059605","94.58","img/117/5.5/1/bw/001.png","","","interesting"
"","","","","","animation","288","3004239","0.0-288.0","1920x1080","","3799.0999999940395","78.97","img/238/4.5/1/bw/001.png","","","interesting"
"","","","","","animation","289","3007679","0.0-289.0","1920x1080","","3437.7000000029802","83.47","img/314/5.5/1/bw/001.png","","","interesting"
"","","","","","animation","290","3011376","0.0-290.0","1920x1080","","3695.2000000029802","68.12","img/117/4.5/0.5/bw/001.png","","","interesting"
"","","","","","animation","291","3014347","0.0-291.0","1920x1080","","2970.2000000029802","77.51","img/117/4.5/2/bw/001.png","","","interesting"
"","","","","","animation","292","3039743","0.0-292.0","1920x1080","","25394","65","img/117/3.5/2/bw/001.png","","","interesting"
"","","","","","animation","293","3045988","0.0-293.0","1920x1080","","6242.79999999702","66.27","img/117/4/1.5/bw/001.png","","","interesting"
"","","","","","animation","294","3052991","0.0-294.0","1920x1080","","7001.5","75.00","img/238/5.5/1/bw/001.png","","","interesting"
"","","","","","animation","295","3058407","0.0-295.0","1920x1080","","5414.79999999702","39.29","img/117/2.5/2/bw/001.png","","","interesting"
"","","","","","animation","296","3076728","0.0-296.0","1920x1080","","18318.20000000298","70.50","img/314/4.5/0.66667/bw/001.png","","","interesting"
"","","","","","animation","297","3079588","0.0-297.0","1920x1080","","2858.5999999940395","78.04","img/117/4.5/1.5/bw/001.png","","","interesting"
"","","","","","animation","298","3082328","0.0-298.0","1920x1080","","2738.1999999955297","83","img/314/4.5/1.5/bw/001.png","","","interesting"
"","","","","","animation","299","3086728","0.0-299.0","1920x1080","","4397.69999999553","67.99","img/314/3.5/0.5/bw/001.png","","","interesting"
"","","","","","animation","300","3089372","0.0-300.0","1920x1080","","2642.7999999970198","75.40","img/117/3.5/1.5/bw/001.png","","","interesting"
"","","","","","animation","301","3092538","0.0-301.0","1920x1080","","3164.9000000059605","89.81","img/238/5.5/0.66667/bw/001.png","","","interesting"
"","","","","","animation","302","3097472","0.0-302.0","1920x1080","","4932.39999999851","44.05","img/238/4/0.5/bw/001.png","","","interesting"
"","","","","","animation","303","3100144","0.0-303.0","1920x1080","","2670.60000000149","54.50","img/238/4/1.5/bw/001.png","","","interesting"
"","","","","","animation","304","3104438","0.0-304.0","1920x1080","","4293.19999999553","65.61","img/117/4/2/bw/001.png","","","interesting"
"","","","","","animation","305","3109807","0.0-305.0","1920x1080","","5368.10000000149","32.54","img/314/3.5/0.66667/bw/001.png","","","interesting"
"","","","","","animation","306","3115921","0.0-306.0","1920x1080","","6112.5999999940395","81","img/117/5.5/1.5/bw/001.png","","","interesting"
"","","","","","animation","307","3122330","0.0-307.0","1920x1080","","6407.60000000149","25.13","img/314/4/0.66667/bw/001.png","","","interesting"
"","","","","","animation","308","3127010","0.0-308.0","1920x1080","","4675.29999999702","17.33","img/314/2.5/1/bw/001.png","","","interesting"
"","","","","","animation","309","3130371","0.0-309.0","1920x1080","","3359.7999999970198","14.81","img/238/3.5/0.5/bw/001.png","","","interesting"
"","","","","","animation","310","3134238","0.0-310.0","1920x1080","","3865","33","img/238/4/0.66667/bw/001.png","","","interesting"
"","","","","","animation","311","3136991","0.0-311.0","1920x1080","","2751.60000000149","51.46","img/117/4.5/1/bw/001.png","","","interesting"
"","","","","","animation","312","3139609","0.0-312.0","1920x1080","","2616.8000000044703","34.92","img/314/4/0.5/bw/001.png","","","interesting"
"","","","","","html-button-response","313","3158504","0.0-313.0","1920x1080","","18894","","<div class=""intro"">You are about to view a new series of animations.<br><br></div><div class=""intro"">You will evaluate them based on a different descriptor.<br><br></div><div class=""intro"">Move the slider to indicate how <strong style=""text-transform:capitalize"">RELAXING</strong> you find each animation.<br><br></div><div class=""intro"">0 = Least Relaxing<br></div><div class=""intro"">1 = Most Relaxing<br><br></div><div class=""intro"">Remember to use the <strong><em>entire range</em></strong> of the slider to make your ratings.<br></div><div class=""intro"">Please <strong><em>take your time</em></strong> and carefully consider each rating you make.<br><br></div>","0","",""
"","","","","","call-function","314","3158505","0.0-314.0","1920x1080","","","","","","",""
"","","","","","animation","315","3164621","0.0-315.0","1920x1080","","6115.39999999851","2.25","img/117/3.5/1/bw/001.png","","","relaxing"
"","","","","","animation","316","3172854","0.0-316.0","1920x1080","","8232.20000000298","67","img/314/5.5/0.5/bw/001.png","","","relaxing"
"","","","","","animation","317","3176870","0.0-317.0","1920x1080","","4014.1999999955297","74.07","img/314/5.5/1.5/bw/001.png","","","relaxing"
"","","","","","animation","318","3182314","0.0-318.0","1920x1080","","5442.39999999851","66.27","img/117/5.5/0.66667/bw/001.png","","","relaxing"
"","","","","","animation","319","3185110","0.0-319.0","1920x1080","","2795.10000000149","0","img/238/2.5/0.5/bw/001.png","","","relaxing"
"","","","","","animation","320","3188241","0.0-320.0","1920x1080","","3129.9000000059605","7.67","img/238/4.5/0.66667/bw/001.png","","","relaxing"
"","","","","","animation","321","3190823","0.0-321.0","1920x1080","","2580.60000000149","3.84","img/238/3.5/0.5/bw/001.png","","","relaxing"
"","","","","","animation","322","3196852","0.0-322.0","1920x1080","","6027.5999999940395","88.49","img/314/5.5/0.66667/bw/001.png","","","relaxing"
"","","","","","animation","323","3202775","0.0-323.0","1920x1080","","5920.89999999851","90.08","img/314/5.5/1/bw/001.png","","","relaxing"
"","","","","","animation","324","3205685","0.0-324.0","1920x1080","","2908.60000000149","0.79","img/314/2.5/0.66667/bw/001.png","","","relaxing"
"","","","","","animation","325","3209669","0.0-325.0","1920x1080","","3982.39999999851","15.34","img/314/4.5/1/bw/001.png","","","relaxing"
"","","","","","animation","326","3216026","0.0-326.0","1920x1080","","6354.20000000298","99","img/117/5.5/2/bw/001.png","","","relaxing"
"","","","","","animation","327","3221359","0.0-327.0","1920x1080","","5330.89999999851","10.71","img/314/3.5/1.5/bw/001.png","","","relaxing"
"","","","","","animation","328","3225485","0.0-328.0","1920x1080","","4124.29999999702","1.19","img/238/3.5/0.66667/bw/001.png","","","relaxing"
"","","","","","animation","329","3233260","0.0-329.0","1920x1080","","7770.80000000447","12","img/238/4.5/1/bw/001.png","","","relaxing"
"","","","","","animation","330","3236186","0.0-330.0","1920x1080","","2924.5","0.79","img/314/2.5/1.5/bw/001.png","","","relaxing"
"","","","","","animation","331","3239605","0.0-331.0","1920x1080","","3417.2000000029802","0","img/117/2.5/0.5/bw/001.png","","","relaxing"
"","","","","","animation","332","3243475","0.0-332.0","1920x1080","","3865.2000000029802","1.32","img/314/4/0.5/bw/001.png","","","relaxing"
"","","","","","animation","333","3251410","0.0-333.0","1920x1080","","7935.70000000298","98","img/314/5.5/2/bw/001.png","","","relaxing"
"","","","","","animation","334","3260684","0.0-334.0","1920x1080","","9271.20000000298","52.78","img/238/4/1.5/bw/001.png","","","relaxing"
"","","","","","animation","335","3264823","0.0-335.0","1920x1080","","4137.29999999702","12.96","img/238/2.5/1.5/bw/001.png","","","relaxing"
"","","","","","animation","336","3269707","0.0-336.0","1920x1080","","4882.79999999702","54.10","img/117/4.5/1.5/bw/001.png","","","relaxing"
"","","","","","animation","337","3273567","0.0-337.0","1920x1080","","3858.8000000044703","32.94","img/117/3.5/2/bw/001.png","","","relaxing"
"","","","","","animation","338","3276035","0.0-338.0","1920x1080","","2466.39999999851","0","img/117/2.5/1.5/bw/001.png","","","relaxing"
"","","","","","animation","339","3280292","0.0-339.0","1920x1080","","4255.19999999553","0","img/117/2.5/0.66667/bw/001.png","","","relaxing"
"","","","","","animation","340","3283271","0.0-340.0","1920x1080","","2977.39999999851","2.91","img/117/2.5/2/bw/001.png","","","relaxing"
"","","","","","animation","341","3290301","0.0-341.0","1920x1080","","7027.70000000298","89","img/238/4.5/2/bw/001.png","","","relaxing"
"","","","","","animation","342","3294902","0.0-342.0","1920x1080","","4599.19999999553","96","img/238/5.5/1.5/bw/001.png","","","relaxing"
"","","","","","animation","343","3298157","0.0-343.0","1920x1080","","3253.7000000029802","44.18","img/117/4/1/bw/001.png","","","relaxing"
"","","","","","animation","344","3301806","0.0-344.0","1920x1080","","3647.5","40.61","img/238/3.5/2/bw/001.png","","","relaxing"
"","","","","","animation","345","3305170","0.0-345.0","1920x1080","","3361.3000000044703","2.12","img/238/2.5/1/bw/001.png","","","relaxing"
"","","","","","animation","346","3311418","0.0-346.0","1920x1080","","6247.5","77","img/117/4.5/2/bw/001.png","","","relaxing"
"","","","","","animation","347","3319507","0.0-347.0","1920x1080","","8087.60000000149","56.35","img/238/4.5/0.5/bw/001.png","","","relaxing"
"","","","","","animation","348","3326383","0.0-348.0","1920x1080","","6874.70000000298","80.03","img/238/5.5/0.5/bw/001.png","","","relaxing"
"","","","","","animation","349","3329635","0.0-349.0","1920x1080","","3250.39999999851","0.00","img/314/2.5/0.5/bw/001.png","","","relaxing"
"","","","","","animation","350","3332919","0.0-350.0","1920x1080","","3281.7999999970198","4.63","img/238/2.5/2/bw/001.png","","","relaxing"
"","","","","","animation","351","3343817","0.0-351.0","1920x1080","","10896.80000000447","75","img/314/4/1.5/bw/001.png","","","relaxing"
"","","","","","animation","352","3351562","0.0-352.0","1920x1080","","7742.39999999851","93.65","img/117/5.5/1/bw/001.png","","","relaxing"
"","","","","","animation","353","3357421","0.0-353.0","1920x1080","","5858.19999999553","4.50","img/238/4/0.5/bw/001.png","","","relaxing"
"","","","","","animation","354","3361118","0.0-354.0","1920x1080","","3694.60000000149","7.94","img/314/4/0.66667/bw/001.png","","","relaxing"
"","","","","","animation","355","3364319","0.0-355.0","1920x1080","","3199.7999999970198","3.31","img/117/4.5/0.5/bw/001.png","","","relaxing"
"","","","","","animation","356","3367724","0.0-356.0","1920x1080","","3402.5","4.37","img/117/4.5/0.66667/bw/001.png","","","relaxing"
"","","","","","animation","357","3372333","0.0-357.0","1920x1080","","4608.70000000298","0.40","img/314/3.5/0.5/bw/001.png","","","relaxing"
"","","","","","animation","358","3377968","0.0-358.0","1920x1080","","5633","12.70","img/238/4/1/bw/001.png","","","relaxing"
"","","","","","animation","359","3383092","0.0-359.0","1920x1080","","5120.30000000447","84.92","img/314/4.5/1.5/bw/001.png","","","relaxing"
"","","","","","animation","360","3389922","0.0-360.0","1920x1080","","6828.39999999851","63.36","img/117/4/1.5/bw/001.png","","","relaxing"
"","","","","","animation","361","3395832","0.0-361.0","1920x1080","","5908.0999999940395","74.07","img/238/4/2/bw/001.png","","","relaxing"
"","","","","","animation","362","3415049","0.0-362.0","1920x1080","","19216","34.13","img/314/4.5/0.66667/bw/001.png","","","relaxing"
"","","","","","animation","363","3420430","0.0-363.0","1920x1080","","5379.69999999553","78.97","img/314/4/2/bw/001.png","","","relaxing"
"","","","","","animation","364","3423923","0.0-364.0","1920x1080","","3490.3000000044703","46.30","img/117/4/0.5/bw/001.png","","","relaxing"
"","","","","","animation","365","3428799","0.0-365.0","1920x1080","","4875.10000000149","100","img/238/5.5/1/bw/001.png","","","relaxing"
"","","","","","animation","366","3463921","0.0-366.0","1920x1080","","35119","83.33","img/117/4/2/bw/001.png","","","relaxing"
"","","","","","animation","367","3469313","0.0-367.0","1920x1080","","5390.29999999702","33.60","img/117/4/0.66667/bw/001.png","","","relaxing"
"","","","","","animation","368","3473300","0.0-368.0","1920x1080","","3984.39999999851","8.99","img/117/3.5/0.5/bw/001.png","","","relaxing"
"","","","","","animation","369","3476199","0.0-369.0","1920x1080","","2897.4000000059605","66.01","img/238/4.5/1.5/bw/001.png","","","relaxing"
"","","","","","animation","370","3482167","0.0-370.0","1920x1080","","5966.0999999940395","2.65","img/314/2.5/1/bw/001.png","","","relaxing"
"","","","","","animation","371","3485715","0.0-371.0","1920x1080","","3545.3000000044703","4.76","img/314/3.5/0.66667/bw/001.png","","","relaxing"
"","","","","","animation","372","3488552","0.0-372.0","1920x1080","","2835","82.80","img/117/4.5/1/bw/001.png","","","relaxing"
"","","","","","animation","373","3492198","0.0-373.0","1920x1080","","3644.60000000149","80","img/314/3.5/2/bw/001.png","","","relaxing"
"","","","","","animation","374","3496167","0.0-374.0","1920x1080","","3968.0999999940395","30.29","img/117/3.5/0.66667/bw/001.png","","","relaxing"
"","","","","","animation","375","3499596","0.0-375.0","1920x1080","","3427.7999999970198","72.62","img/238/4/0.66667/bw/001.png","","","relaxing"
"","","","","","animation","376","3505783","0.0-376.0","1920x1080","","6185.5","86.11","img/238/5.5/0.66667/bw/001.png","","","relaxing"
"","","","","","animation","377","3510531","0.0-377.0","1920x1080","","4746","17.06","img/314/4/1/bw/001.png","","","relaxing"
"","","","","","animation","378","3515980","0.0-378.0","1920x1080","","5444.20000000298","10.05","img/314/3.5/1/bw/001.png","","","relaxing"
"","","","","","animation","379","3537746","0.0-379.0","1920x1080","","21764.40000000596","50.93","img/117/3.5/1.5/bw/001.png","","","relaxing"
"","","","","","animation","380","3553472","0.0-380.0","1920x1080","","15722.89999999851","95","img/314/4.5/2/bw/001.png","","","relaxing"
"","","","","","animation","381","3563288","0.0-381.0","1920x1080","","9812.20000000298","57.67","img/238/3.5/1.5/bw/001.png","","","relaxing"
"","","","","","animation","382","3567113","0.0-382.0","1920x1080","","3822.60000000149","96","img/238/5.5/2/bw/001.png","","","relaxing"
"","","","","","animation","383","3573233","0.0-383.0","1920x1080","","6118.20000000298","42.46","img/314/4.5/0.5/bw/001.png","","","relaxing"
"","","","","","animation","384","3576150","0.0-384.0","1920x1080","","2915.7000000029802","0","img/238/2.5/0.66667/bw/001.png","","","relaxing"
"","","","","","animation","385","3586456","0.0-385.0","1920x1080","","10303.79999999702","6.48","img/238/3.5/1/bw/001.png","","","relaxing"
"","","","","","animation","386","3591100","0.0-386.0","1920x1080","","4641.89999999851","99","img/117/5.5/1.5/bw/001.png","","","relaxing"
"","","","","","animation","387","3595104","0.0-387.0","1920x1080","","3967","0.79","img/117/2.5/1/bw/001.png","","","relaxing"
"","","","","","animation","388","3598396","0.0-388.0","1920x1080","","3289.5","15.61","img/314/2.5/2/bw/001.png","","","relaxing"
"","","","","","animation","389","3602196","0.0-389.0","1920x1080","","3797.5999999940395","60.45","img/117/5.5/0.5/bw/001.png","","","relaxing"
"","","","","","html-button-response","390","3608558","0.0-390.0","1920x1080","","6359.29999999702","","<strong>Study Debriefing</strong><br><p class=""debrief""><strong>Background:</strong> The patterns you rated are called <em>fractals</em>. The term fractal describes a class of irregular curves or shapes for which any suitably chosen part is similar in shape to a given larger or smaller part when magnified or reduced to the same size. Fractal properties are found throughout the natural and manmade world. The series of animations you saw today displayed animated fractal patterns of a varying complexity.</p><p class=""debrief""><strong>Purpose of this study:</strong> We hope to better understand how the perception of static fractals differs from the perception of animated fractals, and how the speed of the animated patterns influences people&apos;s perception of them. Fractals allow us to study the perception of aesthetic properties (e.g. the perceived level of beauty in an image) without using recognizable content, which makes them an excellent tool for studying abstract aesthetic judgement.</p><p class=""debrief""><strong>Your part:</strong> Your participation has helped us to further understand how humans perceive these patterns across different levels of speed and complexity. This research with allow us to better understand how the visual system and brain process our ever-changing visual environments.<p class=""debrief""><strong>Feedback and Further information:</strong> If you have additional questions about this study, please feel free to ask the researcher, Nathan Gonzales-Hess at nhess @ uoregon.edu. If you have any questions concerning your rights as a research participant, please contact Research Compliance Services, 5237 University of Oregon, Eugene, OR 97403, 541-346-2510, or email researchCompliance @ uoregon.edu. You can also email the Human Subjects Coordinator for psychology and linguistics research at hscoord @ uoregon.edu. ","0","",""
"","","","","","html-button-response","391","3612467","0.0-391.0","1920x1080","","3904.5","","Thank you for participating in this study. <br>Please click below to finish the experiment and submit your responses.<br><br>","0","",""
"true","","","","","fullscreen","392","3613492","0.0-392.0","1920x1080","11:51 7/10/2022","","","","","",""
