"success","timeout","failed_images","failed_audio","failed_video","trial_type","trial_index","time_elapsed","internal_node_id","resolution","timeStamp","rt","response","stimulus","button_pressed","value","descriptor"
"true","false","[]","[]","[]","preload","0","5777","0.0-0.0","1920x1080","","","","","","",""
"true","false","[]","[]","[]","preload","1","11760","0.0-1.0","1920x1080","","","","","","",""
"true","false","[]","[]","[]","preload","2","17656","0.0-2.0","1920x1080","","","","","","",""
"true","","","","","fullscreen","3","241473086","0.0-3.0","1920x1080","13:59 7/10/2022","","","","","",""
"","","","","","survey-html-form","4","241657084","0.0-4.0","1920x1080","","183993.80000001192","{""age"":""18"",""gender"":""female""}","","","",""
"","","","","","html-button-response","5","241716732","0.0-5.0","1920x1080","","59535.90000003576","","<div class=""complex"">You are going to see a series of animations.<br><br></div><div class=""complex"">Move the slider to indicate how <strong style=""text-transform:capitalize"">COMPLEX</strong> you find each animation.<br><br></div><div class=""complex"">0 = Least Complex<br></div><div class=""complex"">1 = Most Complex<br><br></div><div class=""complex"">Remember to use the <strong><em>entire range</em></strong> of the slider to make your ratings.<br></div><div class=""complex"">Please <strong><em>take your time</em></strong> and carefully consider each rating you make.<br><br></div><div class=""complex"">The study has five sections and will take about 45 minutes to complete.<br><br></div>","0","",""
"","","","","","call-function","6","241716732","0.0-6.0","1920x1080","","","","","","",""
"","","","","","animation","7","241725771","0.0-7.0","1920x1080","","9037.899999976158","111.90","img/314/3.5/0.5/bw/001.png","","","complex"
"","","","","","animation","8","241732051","0.0-8.0","1920x1080","","6278.799999952316","0","img/314/4.5/1.5/bw/001.png","","","complex"
"","","","","","animation","9","241737932","0.0-9.0","1920x1080","","5879.300000011921","50","img/238/4/2/bw/001.png","","","complex"
"","","","","","animation","10","241746564","0.0-10.0","1920x1080","","8631.199999988079","51","img/314/4.5/1/bw/001.png","","","complex"
"","","","","","animation","11","241754292","0.0-11.0","1920x1080","","7727.100000023842","104.76","img/238/3.5/0.5/bw/001.png","","","complex"
"","","","","","animation","12","241759412","0.0-12.0","1920x1080","","5119.300000011921","0","img/117/3.5/1.5/bw/001.png","","","complex"
"","","","","","animation","13","241769900","0.0-13.0","1920x1080","","10487.899999976158","100","img/314/4/0.5/bw/001.png","","","complex"
"","","","","","animation","14","241776593","0.0-14.0","1920x1080","","6590.599999964237","130.03","img/117/2.5/2/bw/001.png","","","complex"
"","","","","","animation","15","241783009","0.0-15.0","1920x1080","","6412.699999988079","123.15","img/314/2.5/2/bw/001.png","","","complex"
"","","","","","animation","16","241789818","0.0-16.0","1920x1080","","6808.100000023842","0.40","img/117/4.5/1/bw/001.png","","","complex"
"","","","","","animation","17","241800129","0.0-17.0","1920x1080","","10310.600000023842","50","img/314/5.5/0.5/bw/001.png","","","complex"
"","","","","","animation","18","241809929","0.0-18.0","1920x1080","","9799.5","-5.95","img/314/4/1.5/bw/001.png","","","complex"
"","","","","","animation","19","241814721","0.0-19.0","1920x1080","","4790.800000011921","-11.51","img/117/5.5/1.5/bw/001.png","","","complex"
"","","","","","animation","20","241821218","0.0-20.0","1920x1080","","6496.399999976158","0.79","img/314/5.5/1.5/bw/001.png","","","complex"
"","","","","","animation","21","241829905","0.0-21.0","1920x1080","","8686","22","img/314/4.5/0.66667/bw/001.png","","","complex"
"","","","","","animation","22","241834105","0.0-22.0","1920x1080","","4199.099999964237","-19.58","img/238/5.5/2/bw/001.png","","","complex"
"","","","","","animation","23","241843397","0.0-23.0","1920x1080","","9191.699999988079","50","img/238/4/0.5/bw/001.png","","","complex"
"","","","","","animation","24","241854445","0.0-24.0","1920x1080","","11046.5","-5.82","img/117/5.5/0.66667/bw/001.png","","","complex"
"","","","","","animation","25","241866165","0.0-25.0","1920x1080","","11719.199999988079","0","img/314/4/2/bw/001.png","","","complex"
"","","","","","animation","26","241872541","0.0-26.0","1920x1080","","6374.899999976158","50","img/117/3.5/2/bw/001.png","","","complex"
"","","","","","animation","27","241878493","0.0-27.0","1920x1080","","5951.100000023842","0","img/117/5.5/2/bw/001.png","","","complex"
"","","","","","animation","28","241883029","0.0-28.0","1920x1080","","4535.5","176.59","img/238/2.5/2/bw/001.png","","","complex"
"","","","","","animation","29","241887292","0.0-29.0","1920x1080","","4262.5","109.52","img/314/2.5/1.5/bw/001.png","","","complex"
"","","","","","animation","30","241894525","0.0-30.0","1920x1080","","7231.5","50","img/117/4.5/1.5/bw/001.png","","","complex"
"","","","","","animation","31","241902738","0.0-31.0","1920x1080","","8111.5","50","img/117/4/1/bw/001.png","","","complex"
"","","","","","animation","32","241914843","0.0-32.0","1920x1080","","12103.399999976158","100.40","img/238/3.5/0.66667/bw/001.png","","","complex"
"","","","","","animation","33","241921370","0.0-33.0","1920x1080","","6526.599999964237","0.00","img/238/5.5/1.5/bw/001.png","","","complex"
"","","","","","animation","34","241934627","0.0-34.0","1920x1080","","13255.5","50.13","img/238/4/0.66667/bw/001.png","","","complex"
"","","","","","animation","35","241941083","0.0-35.0","1920x1080","","6455.199999988079","98","img/314/2.5/0.66667/bw/001.png","","","complex"
"","","","","","animation","36","241947236","0.0-36.0","1920x1080","","6152.200000047684","100","img/117/3.5/0.66667/bw/001.png","","","complex"
"","","","","","animation","37","241961216","0.0-37.0","1920x1080","","13885.399999976158","51","img/238/3.5/1.5/bw/001.png","","","complex"
"","","","","","animation","38","241964492","0.0-38.0","1920x1080","","3275.699999988079","48.94","img/314/3.5/1/bw/001.png","","","complex"
"","","","","","animation","39","241969456","0.0-39.0","1920x1080","","4962.600000023842","51.32","img/117/4/1.5/bw/001.png","","","complex"
"","","","","","animation","40","241972481","0.0-40.0","1920x1080","","3023.199999988079","65.74","img/238/3.5/1/bw/001.png","","","complex"
"","","","","","animation","41","241975376","0.0-41.0","1920x1080","","2895.100000023842","81.61","img/314/4/1/bw/001.png","","","complex"
"","","","","","animation","42","241979640","0.0-42.0","1920x1080","","4263.100000023842","99","img/117/4/0.66667/bw/001.png","","","complex"
"","","","","","animation","43","241983432","0.0-43.0","1920x1080","","3790.699999988079","1.32","img/314/5.5/0.66667/bw/001.png","","","complex"
"","","","","","animation","44","241990568","0.0-44.0","1920x1080","","7135.599999964237","78.97","img/238/4/1/bw/001.png","","","complex"
"","","","","","animation","45","241995408","0.0-45.0","1920x1080","","4839.5","100","img/314/2.5/1/bw/001.png","","","complex"
"","","","","","animation","46","241999216","0.0-46.0","1920x1080","","3806.699999988079","17.86","img/238/5.5/0.5/bw/001.png","","","complex"
"","","","","","animation","47","242008792","0.0-47.0","1920x1080","","9575.099999964237","50.13","img/117/4/2/bw/001.png","","","complex"
"","","","","","animation","48","242015982","0.0-48.0","1920x1080","","7190.900000035763","100","img/238/2.5/0.5/bw/001.png","","","complex"
"","","","","","animation","49","242021118","0.0-49.0","1920x1080","","5135.199999988079","10.71","img/238/4.5/0.5/bw/001.png","","","complex"
"","","","","","animation","50","242024974","0.0-50.0","1920x1080","","3855.399999976158","52.78","img/117/3.5/1/bw/001.png","","","complex"
"","","","","","animation","51","242028214","0.0-51.0","1920x1080","","3238.5","99","img/238/2.5/1.5/bw/001.png","","","complex"
"","","","","","animation","52","242031214","0.0-52.0","1920x1080","","2998.7999999523163","0","img/117/4.5/2/bw/001.png","","","complex"
"","","","","","animation","53","242034574","0.0-53.0","1920x1080","","3359.5","3.31","img/238/4.5/1/bw/001.png","","","complex"
"","","","","","animation","54","242039870","0.0-54.0","1920x1080","","5294.800000011921","99","img/238/2.5/1/bw/001.png","","","complex"
"","","","","","animation","55","242043702","0.0-55.0","1920x1080","","3831.100000023842","50.13","img/238/4.5/1.5/bw/001.png","","","complex"
"","","","","","animation","56","242046334","0.0-56.0","1920x1080","","2631","91.80","img/314/3.5/0.66667/bw/001.png","","","complex"
"","","","","","animation","57","242049454","0.0-57.0","1920x1080","","3119.2999999523163","98","img/314/2.5/0.5/bw/001.png","","","complex"
"","","","","","animation","58","242052574","0.0-58.0","1920x1080","","3119.199999988079","0","img/238/5.5/1/bw/001.png","","","complex"
"","","","","","animation","59","242055518","0.0-59.0","1920x1080","","2942.5","99","img/238/2.5/0.66667/bw/001.png","","","complex"
"","","","","","animation","60","242058414","0.0-60.0","1920x1080","","2895","1.19","img/117/5.5/1/bw/001.png","","","complex"
"","","","","","animation","61","242067086","0.0-61.0","1920x1080","","8671.199999988079","48.41","img/314/3.5/1.5/bw/001.png","","","complex"
"","","","","","animation","62","242069766","0.0-62.0","1920x1080","","2679","0.53","img/238/4.5/2/bw/001.png","","","complex"
"","","","","","animation","63","242073462","0.0-63.0","1920x1080","","3695.099999964237","34.26","img/314/3.5/2/bw/001.png","","","complex"
"","","","","","animation","64","242075606","0.0-64.0","1920x1080","","2140.600000023842","5.69","img/314/5.5/1/bw/001.png","","","complex"
"","","","","","animation","65","242078690","0.0-65.0","1920x1080","","3087.600000023842","97","img/117/2.5/0.66667/bw/001.png","","","complex"
"","","","","","animation","66","242081266","0.0-66.0","1920x1080","","2574.5","3.97","img/314/4.5/2/bw/001.png","","","complex"
"","","","","","animation","67","242085291","0.0-67.0","1920x1080","","4024.300000011921","6.48","img/117/5.5/0.5/bw/001.png","","","complex"
"","","","","","animation","68","242090201","0.0-68.0","1920x1080","","4909.699999988079","52.51","img/238/4/1.5/bw/001.png","","","complex"
"","","","","","animation","69","242092572","0.0-69.0","1920x1080","","2370.2000000476837","47.35","img/238/4.5/0.66667/bw/001.png","","","complex"
"","","","","","animation","70","242098385","0.0-70.0","1920x1080","","5812.300000011921","22.62","img/238/3.5/2/bw/001.png","","","complex"
"","","","","","animation","71","242104049","0.0-71.0","1920x1080","","5663","6.48","img/314/5.5/2/bw/001.png","","","complex"
"","","","","","animation","72","242109618","0.0-72.0","1920x1080","","5567","93.39","img/117/2.5/1.5/bw/001.png","","","complex"
"","","","","","animation","73","242116577","0.0-73.0","1920x1080","","6958","5.56","img/117/4.5/0.66667/bw/001.png","","","complex"
"","","","","","animation","74","242122955","0.0-74.0","1920x1080","","6377.400000035763","100","img/117/4.5/0.5/bw/001.png","","","complex"
"","","","","","animation","75","242125907","0.0-75.0","1920x1080","","2950.600000023842","99","img/117/2.5/0.5/bw/001.png","","","complex"
"","","","","","animation","76","242129209","0.0-76.0","1920x1080","","3301.399999976158","7.41","img/238/5.5/0.66667/bw/001.png","","","complex"
"","","","","","animation","77","242132202","0.0-77.0","1920x1080","","2991.199999988079","31.88","img/314/4/0.66667/bw/001.png","","","complex"
"","","","","","animation","78","242134306","0.0-78.0","1920x1080","","2103.600000023842","43.52","img/117/3.5/0.5/bw/001.png","","","complex"
"","","","","","animation","79","242137167","0.0-79.0","1920x1080","","2854.5","76.32","img/314/4.5/0.5/bw/001.png","","","complex"
"","","","","","animation","80","242141279","0.0-80.0","1920x1080","","4111.699999988079","91","img/117/4/0.5/bw/001.png","","","complex"
"","","","","","animation","81","242145782","0.0-81.0","1920x1080","","4502.199999988079","99","img/117/2.5/1/bw/001.png","","","complex"
"","","","","","html-button-response","82","242165562","0.0-82.0","1920x1080","","19777.899999976158","","<div class=""intro"">You are about to view a new series of animations.<br><br></div><div class=""intro"">You will evaluate them based on a different descriptor.<br><br></div><div class=""intro"">Move the slider to indicate how <strong style=""text-transform:capitalize"">RELAXING</strong> you find each animation.<br><br></div><div class=""intro"">0 = Least Relaxing<br></div><div class=""intro"">1 = Most Relaxing<br><br></div><div class=""intro"">Remember to use the <strong><em>entire range</em></strong> of the slider to make your ratings.<br></div><div class=""intro"">Please <strong><em>take your time</em></strong> and carefully consider each rating you make.<br><br></div>","0","",""
"","","","","","call-function","83","242165563","0.0-83.0","1920x1080","","","","","","",""
"","","","","","animation","84","242172087","0.0-84.0","1920x1080","","6523.300000011921","1.32","img/314/2.5/2/bw/001.png","","","relaxing"
"","","","","","animation","85","242180055","0.0-85.0","1920x1080","","7967.299999952316","49.74","img/117/2.5/1.5/bw/001.png","","","relaxing"
"","","","","","animation","86","242185230","0.0-86.0","1920x1080","","5174.399999976158","99","img/117/4/1/bw/001.png","","","relaxing"
"","","","","","animation","87","242191551","0.0-87.0","1920x1080","","6319.100000023842","100","img/117/5.5/2/bw/001.png","","","relaxing"
"","","","","","animation","88","242195855","0.0-88.0","1920x1080","","4302.699999988079","72.49","img/117/2.5/2/bw/001.png","","","relaxing"
"","","","","","animation","89","242199563","0.0-89.0","1920x1080","","3710.199999988079","7.41","img/117/4.5/0.5/bw/001.png","","","relaxing"
"","","","","","animation","90","242202883","0.0-90.0","1920x1080","","3319.199999988079","6.61","img/117/4.5/0.66667/bw/001.png","","","relaxing"
"","","","","","animation","91","242205991","0.0-91.0","1920x1080","","3106.7999999523163","88.89","img/314/2.5/0.66667/bw/001.png","","","relaxing"
"","","","","","animation","92","242212435","0.0-92.0","1920x1080","","6443.299999952316","95","img/238/4/2/bw/001.png","","","relaxing"
"","","","","","animation","93","242217235","0.0-93.0","1920x1080","","4798.800000011921","7.54","img/238/4/0.5/bw/001.png","","","relaxing"
"","","","","","animation","94","242223411","0.0-94.0","1920x1080","","6174.399999976158","99","img/314/4/2/bw/001.png","","","relaxing"
"","","","","","animation","95","242227558","0.0-95.0","1920x1080","","4145.600000023842","100","img/238/5.5/2/bw/001.png","","","relaxing"
"","","","","","animation","96","242230819","0.0-96.0","1920x1080","","3260.300000011921","22.22","img/314/3.5/0.5/bw/001.png","","","relaxing"
"","","","","","animation","97","242234027","0.0-97.0","1920x1080","","3206.5","99","img/238/5.5/0.5/bw/001.png","","","relaxing"
"","","","","","animation","98","242236991","0.0-98.0","1920x1080","","2963.699999988079","32.80","img/314/3.5/1/bw/001.png","","","relaxing"
"","","","","","animation","99","242240331","0.0-99.0","1920x1080","","3339","38.10","img/238/4.5/1/bw/001.png","","","relaxing"
"","","","","","animation","100","242243131","0.0-100.0","1920x1080","","2798.300000011921","6.22","img/238/2.5/0.66667/bw/001.png","","","relaxing"
"","","","","","animation","101","242246027","0.0-101.0","1920x1080","","2894.7999999523163","100","img/117/5.5/0.66667/bw/001.png","","","relaxing"
"","","","","","animation","102","242248875","0.0-102.0","1920x1080","","2847.100000023842","8.20","img/314/2.5/0.5/bw/001.png","","","relaxing"
"","","","","","animation","103","242251563","0.0-103.0","1920x1080","","2686.699999988079","45.24","img/117/3.5/2/bw/001.png","","","relaxing"
"","","","","","animation","104","242254635","0.0-104.0","1920x1080","","3071.199999988079","99","img/238/4.5/1.5/bw/001.png","","","relaxing"
"","","","","","animation","105","242258393","0.0-105.0","1920x1080","","3758.800000011921","22.88","img/117/2.5/0.5/bw/001.png","","","relaxing"
"","","","","","animation","106","242262706","0.0-106.0","1920x1080","","4312.100000023842","19.31","img/314/4/0.66667/bw/001.png","","","relaxing"
"","","","","","animation","107","242265649","0.0-107.0","1920x1080","","2942.099999964237","49.21","img/314/4.5/0.5/bw/001.png","","","relaxing"
"","","","","","animation","108","242268473","0.0-108.0","1920x1080","","2822.399999976158","78.97","img/117/4.5/2/bw/001.png","","","relaxing"
"","","","","","animation","109","242274433","0.0-109.0","1920x1080","","5959.600000023842","17.33","img/314/3.5/0.66667/bw/001.png","","","relaxing"
"","","","","","animation","110","242277457","0.0-110.0","1920x1080","","3022.699999988079","18.12","img/238/3.5/0.66667/bw/001.png","","","relaxing"
"","","","","","animation","111","242282073","0.0-111.0","1920x1080","","4615.099999964237","10.58","img/117/2.5/1/bw/001.png","","","relaxing"
"","","","","","animation","112","242285777","0.0-112.0","1920x1080","","3703.5","98","img/238/4.5/2/bw/001.png","","","relaxing"
"","","","","","animation","113","242291665","0.0-113.0","1920x1080","","5886.699999988079","10.32","img/117/3.5/1/bw/001.png","","","relaxing"
"","","","","","animation","114","242294761","0.0-114.0","1920x1080","","3094.800000011921","70.37","img/238/4/0.66667/bw/001.png","","","relaxing"
"","","","","","animation","115","242298433","0.0-115.0","1920x1080","","3671","78.70","img/314/4/1/bw/001.png","","","relaxing"
"","","","","","animation","116","242303993","0.0-116.0","1920x1080","","5558.5","21.03","img/314/3.5/2/bw/001.png","","","relaxing"
"","","","","","animation","117","242307193","0.0-117.0","1920x1080","","3199.100000023842","25.79","img/117/3.5/1.5/bw/001.png","","","relaxing"
"","","","","","animation","118","242313665","0.0-118.0","1920x1080","","6471.199999988079","42.33","img/238/4/1/bw/001.png","","","relaxing"
"","","","","","animation","119","242316429","0.0-119.0","1920x1080","","2758.7999999523163","99","img/238/5.5/0.66667/bw/001.png","","","relaxing"
"","","","","","animation","120","242319854","0.0-120.0","1920x1080","","3423.5","25.26","img/238/4/1.5/bw/001.png","","","relaxing"
"","","","","","animation","121","242323581","0.0-121.0","1920x1080","","3726.899999976158","99","img/238/5.5/1/bw/001.png","","","relaxing"
"","","","","","animation","122","242326759","0.0-122.0","1920x1080","","3177.099999964237","22.75","img/238/4.5/0.66667/bw/001.png","","","relaxing"
"","","","","","animation","123","242328993","0.0-123.0","1920x1080","","2232.699999988079","16.01","img/314/2.5/1.5/bw/001.png","","","relaxing"
"","","","","","animation","124","242331797","0.0-124.0","1920x1080","","2803.300000011921","79.37","img/314/4.5/2/bw/001.png","","","relaxing"
"","","","","","animation","125","242335445","0.0-125.0","1920x1080","","3646.699999988079","52.78","img/238/3.5/1.5/bw/001.png","","","relaxing"
"","","","","","animation","126","242339269","0.0-126.0","1920x1080","","3823.300000011921","8.47","img/238/2.5/1/bw/001.png","","","relaxing"
"","","","","","animation","127","242347710","0.0-127.0","1920x1080","","8440","14.68","img/117/2.5/0.66667/bw/001.png","","","relaxing"
"","","","","","animation","128","242350781","0.0-128.0","1920x1080","","3069.900000035763","98","img/314/5.5/2/bw/001.png","","","relaxing"
"","","","","","animation","129","242357661","0.0-129.0","1920x1080","","6878.299999952316","16.53","img/117/3.5/0.66667/bw/001.png","","","relaxing"
"","","","","","animation","130","242360349","0.0-130.0","1920x1080","","2687.199999988079","32.94","img/238/2.5/2/bw/001.png","","","relaxing"
"","","","","","animation","131","242362997","0.0-131.0","1920x1080","","2646.800000011921","7.41","img/314/4/0.5/bw/001.png","","","relaxing"
"","","","","","animation","132","242365810","0.0-132.0","1920x1080","","2811.2999999523163","7.28","img/238/2.5/0.5/bw/001.png","","","relaxing"
"","","","","","animation","133","242368502","0.0-133.0","1920x1080","","2691.099999964237","0.53","img/238/3.5/0.5/bw/001.png","","","relaxing"
"","","","","","animation","134","242371981","0.0-134.0","1920x1080","","3478.800000011921","100","img/314/5.5/1/bw/001.png","","","relaxing"
"","","","","","animation","135","242376483","0.0-135.0","1920x1080","","4503.299999952316","30.82","img/238/2.5/1.5/bw/001.png","","","relaxing"
"","","","","","animation","136","242381291","0.0-136.0","1920x1080","","4807.300000011921","7.80","img/117/3.5/0.5/bw/001.png","","","relaxing"
"","","","","","animation","137","242386540","0.0-137.0","1920x1080","","5247.399999976158","47.49","img/314/4/1.5/bw/001.png","","","relaxing"
"","","","","","animation","138","242391051","0.0-138.0","1920x1080","","4510.399999976158","87.96","img/314/4.5/1/bw/001.png","","","relaxing"
"","","","","","animation","139","242395083","0.0-139.0","1920x1080","","4030.199999988079","100","img/314/5.5/0.66667/bw/001.png","","","relaxing"
"","","","","","animation","140","242404242","0.0-140.0","1920x1080","","9158.699999988079","94.18","img/117/4.5/1.5/bw/001.png","","","relaxing"
"","","","","","animation","141","242410023","0.0-141.0","1920x1080","","5778.900000035763","82.41","img/238/3.5/2/bw/001.png","","","relaxing"
"","","","","","animation","142","242420090","0.0-142.0","1920x1080","","10066","66.01","img/117/4/1.5/bw/001.png","","","relaxing"
"","","","","","animation","143","242423651","0.0-143.0","1920x1080","","3559.199999988079","63.89","img/314/4.5/0.66667/bw/001.png","","","relaxing"
"","","","","","animation","144","242426410","0.0-144.0","1920x1080","","2758.2999999523163","68.12","img/117/4/2/bw/001.png","","","relaxing"
"","","","","","animation","145","242428426","0.0-145.0","1920x1080","","2015","70.90","img/117/4.5/1/bw/001.png","","","relaxing"
"","","","","","animation","146","242431611","0.0-146.0","1920x1080","","3183.599999964237","99","img/238/5.5/1.5/bw/001.png","","","relaxing"
"","","","","","animation","147","242438160","0.0-147.0","1920x1080","","6546.099999964237","58.33","img/117/5.5/0.5/bw/001.png","","","relaxing"
"","","","","","animation","148","242441641","0.0-148.0","1920x1080","","3480.199999988079","30.95","img/117/4/0.5/bw/001.png","","","relaxing"
"","","","","","animation","149","242447285","0.0-149.0","1920x1080","","5642.799999952316","89.29","img/117/5.5/1/bw/001.png","","","relaxing"
"","","","","","animation","150","242450796","0.0-150.0","1920x1080","","3510.300000011921","5.03","img/314/2.5/1/bw/001.png","","","relaxing"
"","","","","","animation","151","242458709","0.0-151.0","1920x1080","","7911.5","21.16","img/117/4/0.66667/bw/001.png","","","relaxing"
"","","","","","animation","152","242461780","0.0-152.0","1920x1080","","3070.300000011921","92.59","img/117/5.5/1.5/bw/001.png","","","relaxing"
"","","","","","animation","153","242464725","0.0-153.0","1920x1080","","2943.300000011921","86.64","img/314/5.5/0.5/bw/001.png","","","relaxing"
"","","","","","animation","154","242467564","0.0-154.0","1920x1080","","2838.900000035763","11.77","img/238/3.5/1/bw/001.png","","","relaxing"
"","","","","","animation","155","242470460","0.0-155.0","1920x1080","","2894.2999999523163","43.25","img/314/4.5/1.5/bw/001.png","","","relaxing"
"","","","","","animation","156","242474208","0.0-156.0","1920x1080","","3747.100000023842","39.81","img/314/3.5/1.5/bw/001.png","","","relaxing"
"","","","","","animation","157","242477684","0.0-157.0","1920x1080","","3475.400000035763","85.05","img/314/5.5/1.5/bw/001.png","","","relaxing"
"","","","","","animation","158","242485342","0.0-158.0","1920x1080","","7657","76.32","img/238/4.5/0.5/bw/001.png","","","relaxing"
"","","","","","html-button-response","159","242504913","0.0-159.0","1920x1080","","19564.5","","<div class=""intro"">You are about to view a new series of animations.<br><br></div><div class=""intro"">You will evaluate them based on a different descriptor.<br><br></div><div class=""intro"">Move the slider to indicate how <strong style=""text-transform:capitalize"">APPEALING</strong> you find each animation.<br><br></div><div class=""intro"">0 = Least Appealing<br></div><div class=""intro"">1 = Most Appealing<br><br></div><div class=""intro"">Remember to use the <strong><em>entire range</em></strong> of the slider to make your ratings.<br></div><div class=""intro"">Please <strong><em>take your time</em></strong> and carefully consider each rating you make.<br><br></div>","0","",""
"","","","","","call-function","160","242504914","0.0-160.0","1920x1080","","","","","","",""
"","","","","","animation","161","242509249","0.0-161.0","1920x1080","","4334.5","98","img/238/5.5/2/bw/001.png","","","appealing"
"","","","","","animation","162","242513130","0.0-162.0","1920x1080","","3879.400000035763","97","img/238/4.5/2/bw/001.png","","","appealing"
"","","","","","animation","163","242516985","0.0-163.0","1920x1080","","3854.699999988079","27.51","img/238/4/1/bw/001.png","","","appealing"
"","","","","","animation","164","242520030","0.0-164.0","1920x1080","","3042.800000011921","1.59","img/314/3.5/1/bw/001.png","","","appealing"
"","","","","","animation","165","242522546","0.0-165.0","1920x1080","","2515.100000023842","4.63","img/117/4/1.5/bw/001.png","","","appealing"
"","","","","","animation","166","242528433","0.0-166.0","1920x1080","","5886.100000023842","1.19","img/238/4.5/0.5/bw/001.png","","","appealing"
"","","","","","animation","167","242530946","0.0-167.0","1920x1080","","2511.599999964237","0","img/117/3.5/0.5/bw/001.png","","","appealing"
"","","","","","animation","168","242535969","0.0-168.0","1920x1080","","5022.5","99","img/117/5.5/1.5/bw/001.png","","","appealing"
"","","","","","animation","169","242538629","0.0-169.0","1920x1080","","2658.5","39.95","img/314/4/2/bw/001.png","","","appealing"
"","","","","","animation","170","242541196","0.0-170.0","1920x1080","","2565.699999988079","14.02","img/314/4/0.5/bw/001.png","","","appealing"
"","","","","","animation","171","242546097","0.0-171.0","1920x1080","","4899.699999988079","0","img/314/2.5/1.5/bw/001.png","","","appealing"
"","","","","","animation","172","242549721","0.0-172.0","1920x1080","","3623.599999964237","13.76","img/117/4.5/0.66667/bw/001.png","","","appealing"
"","","","","","animation","173","242555505","0.0-173.0","1920x1080","","5782.800000011921","3.44","img/238/2.5/1/bw/001.png","","","appealing"
"","","","","","animation","174","242560101","0.0-174.0","1920x1080","","4599.099999964237","98","img/314/5.5/1/bw/001.png","","","appealing"
"","","","","","animation","175","242562108","0.0-175.0","1920x1080","","2006.5","64.15","img/117/4.5/1/bw/001.png","","","appealing"
"","","","","","animation","176","242567292","0.0-176.0","1920x1080","","5183.300000011921","6.61","img/117/3.5/0.66667/bw/001.png","","","appealing"
"","","","","","animation","177","242571044","0.0-177.0","1920x1080","","3750.800000011921","5.82","img/117/2.5/0.66667/bw/001.png","","","appealing"
"","","","","","animation","178","242573628","0.0-178.0","1920x1080","","2582.899999976158","4.76","img/117/2.5/2/bw/001.png","","","appealing"
"","","","","","animation","179","242577925","0.0-179.0","1920x1080","","4295.300000011921","40.34","img/238/4/2/bw/001.png","","","appealing"
"","","","","","animation","180","242581028","0.0-180.0","1920x1080","","3102.800000011921","3.97","img/314/2.5/0.5/bw/001.png","","","appealing"
"","","","","","animation","181","242583501","0.0-181.0","1920x1080","","2471.100000023842","3.17","img/117/2.5/1.5/bw/001.png","","","appealing"
"","","","","","animation","182","242589717","0.0-182.0","1920x1080","","6214.699999988079","32.80","img/117/3.5/1.5/bw/001.png","","","appealing"
"","","","","","animation","183","242596317","0.0-183.0","1920x1080","","6598.900000035763","23.28","img/314/3.5/1.5/bw/001.png","","","appealing"
"","","","","","animation","184","242601929","0.0-184.0","1920x1080","","5610.600000023842","4.10","img/238/2.5/0.66667/bw/001.png","","","appealing"
"","","","","","animation","185","242605933","0.0-185.0","1920x1080","","4001.399999976158","6.88","img/314/2.5/2/bw/001.png","","","appealing"
"","","","","","animation","186","242610010","0.0-186.0","1920x1080","","4076.300000011921","92.33","img/238/5.5/0.5/bw/001.png","","","appealing"
"","","","","","animation","187","242614501","0.0-187.0","1920x1080","","4489.299999952316","92.20","img/314/4.5/0.5/bw/001.png","","","appealing"
"","","","","","animation","188","242619222","0.0-188.0","1920x1080","","4722.899999976158","16.40","img/238/2.5/2/bw/001.png","","","appealing"
"","","","","","animation","189","242627698","0.0-189.0","1920x1080","","8474.600000023842","79.10","img/117/4/2/bw/001.png","","","appealing"
"","","","","","animation","190","242631746","0.0-190.0","1920x1080","","4046.7999999523163","88.36","img/117/4.5/2/bw/001.png","","","appealing"
"","","","","","animation","191","242635421","0.0-191.0","1920x1080","","3674","71.43","img/238/4/1.5/bw/001.png","","","appealing"
"","","","","","animation","192","242641057","0.0-192.0","1920x1080","","5634.699999988079","65.34","img/314/4.5/0.66667/bw/001.png","","","appealing"
"","","","","","animation","193","242646514","0.0-193.0","1920x1080","","5455.299999952316","61.11","img/117/4.5/1.5/bw/001.png","","","appealing"
"","","","","","animation","194","242650146","0.0-194.0","1920x1080","","3630.600000023842","25.00","img/314/5.5/0.5/bw/001.png","","","appealing"
"","","","","","animation","195","242653241","0.0-195.0","1920x1080","","3094.5","26.32","img/238/4/0.66667/bw/001.png","","","appealing"
"","","","","","animation","196","242655962","0.0-196.0","1920x1080","","2719.399999976158","25.53","img/117/4.5/0.5/bw/001.png","","","appealing"
"","","","","","animation","197","242661641","0.0-197.0","1920x1080","","5678.5","33.07","img/238/4.5/1/bw/001.png","","","appealing"
"","","","","","animation","198","242665993","0.0-198.0","1920x1080","","4350.699999988079","72.49","img/238/5.5/1/bw/001.png","","","appealing"
"","","","","","animation","199","242672657","0.0-199.0","1920x1080","","6662.699999988079","2.38","img/117/2.5/0.5/bw/001.png","","","appealing"
"","","","","","animation","200","242679957","0.0-200.0","1920x1080","","7296.199999988079","19.31","img/117/4/0.66667/bw/001.png","","","appealing"
"","","","","","animation","201","242683375","0.0-201.0","1920x1080","","3416.699999988079","34.92","img/314/4.5/1/bw/001.png","","","appealing"
"","","","","","animation","202","242688028","0.0-202.0","1920x1080","","4652.399999976158","8.73","img/238/3.5/1/bw/001.png","","","appealing"
"","","","","","animation","203","242692158","0.0-203.0","1920x1080","","4128.399999976158","72.62","img/314/5.5/0.66667/bw/001.png","","","appealing"
"","","","","","animation","204","242696148","0.0-204.0","1920x1080","","3989.399999976158","37.57","img/314/4.5/2/bw/001.png","","","appealing"
"","","","","","animation","205","242699012","0.0-205.0","1920x1080","","2862.5","47.22","img/314/4/1.5/bw/001.png","","","appealing"
"","","","","","animation","206","242703074","0.0-206.0","1920x1080","","4060.600000023842","3.44","img/238/2.5/1.5/bw/001.png","","","appealing"
"","","","","","animation","207","242706492","0.0-207.0","1920x1080","","3416.7999999523163","60.32","img/117/5.5/0.5/bw/001.png","","","appealing"
"","","","","","animation","208","242710748","0.0-208.0","1920x1080","","4255.199999988079","98","img/314/5.5/2/bw/001.png","","","appealing"
"","","","","","animation","209","242715700","0.0-209.0","1920x1080","","4950.800000011921","7.80","img/314/3.5/2/bw/001.png","","","appealing"
"","","","","","animation","210","242718660","0.0-210.0","1920x1080","","2958.199999988079","6.48","img/238/3.5/0.66667/bw/001.png","","","appealing"
"","","","","","animation","211","242722564","0.0-211.0","1920x1080","","3903.099999964237","96","img/314/5.5/1.5/bw/001.png","","","appealing"
"","","","","","animation","212","242726207","0.0-212.0","1920x1080","","3641.300000011921","13.62","img/117/3.5/2/bw/001.png","","","appealing"
"","","","","","animation","213","242729564","0.0-213.0","1920x1080","","3355.800000011921","12.96","img/117/3.5/1/bw/001.png","","","appealing"
"","","","","","animation","214","242733158","0.0-214.0","1920x1080","","3592.100000023842","41.27","img/238/4.5/1.5/bw/001.png","","","appealing"
"","","","","","animation","215","242735412","0.0-215.0","1920x1080","","2253.5","93.78","img/117/5.5/0.66667/bw/001.png","","","appealing"
"","","","","","animation","216","242738964","0.0-216.0","1920x1080","","3550.800000011921","10.19","img/238/3.5/1.5/bw/001.png","","","appealing"
"","","","","","animation","217","242742980","0.0-217.0","1920x1080","","4014.699999988079","15.21","img/238/4/0.5/bw/001.png","","","appealing"
"","","","","","animation","218","242753796","0.0-218.0","1920x1080","","10815.199999988079","4.10","img/314/4/0.66667/bw/001.png","","","appealing"
"","","","","","animation","219","242756091","0.0-219.0","1920x1080","","2294.099999964237","2.91","img/238/2.5/0.5/bw/001.png","","","appealing"
"","","","","","animation","220","242758548","0.0-220.0","1920x1080","","2455.2999999523163","5.03","img/117/2.5/1/bw/001.png","","","appealing"
"","","","","","animation","221","242761732","0.0-221.0","1920x1080","","3182.699999988079","90.21","img/117/5.5/1/bw/001.png","","","appealing"
"","","","","","animation","222","242764190","0.0-222.0","1920x1080","","2457.300000011921","25.26","img/238/3.5/0.5/bw/001.png","","","appealing"
"","","","","","animation","223","242771040","0.0-223.0","1920x1080","","6848.099999964237","34.39","img/314/4/1/bw/001.png","","","appealing"
"","","","","","animation","224","242774875","0.0-224.0","1920x1080","","3834.199999988079","92.20","img/238/5.5/0.66667/bw/001.png","","","appealing"
"","","","","","animation","225","242777780","0.0-225.0","1920x1080","","2903","13.76","img/117/4/0.5/bw/001.png","","","appealing"
"","","","","","animation","226","242783506","0.0-226.0","1920x1080","","5725.5","61.51","img/238/5.5/1.5/bw/001.png","","","appealing"
"","","","","","animation","227","242787043","0.0-227.0","1920x1080","","3535.800000011921","14.29","img/238/3.5/2/bw/001.png","","","appealing"
"","","","","","animation","228","242790607","0.0-228.0","1920x1080","","3562.400000035763","9.92","img/314/2.5/0.66667/bw/001.png","","","appealing"
"","","","","","animation","229","242793332","0.0-229.0","1920x1080","","2723.199999988079","0","img/314/3.5/0.66667/bw/001.png","","","appealing"
"","","","","","animation","230","242797657","0.0-230.0","1920x1080","","4326.399999976158","2.65","img/314/2.5/1/bw/001.png","","","appealing"
"","","","","","animation","231","242800737","0.0-231.0","1920x1080","","3079.599999964237","2.12","img/314/3.5/0.5/bw/001.png","","","appealing"
"","","","","","animation","232","242804761","0.0-232.0","1920x1080","","4022.2999999523163","100","img/117/5.5/2/bw/001.png","","","appealing"
"","","","","","animation","233","242807521","0.0-233.0","1920x1080","","2758.599999964237","91.53","img/314/4.5/1.5/bw/001.png","","","appealing"
"","","","","","animation","234","242809945","0.0-234.0","1920x1080","","2422.699999988079","60.05","img/117/4/1/bw/001.png","","","appealing"
"","","","","","animation","235","242813887","0.0-235.0","1920x1080","","3941.400000035763","51.46","img/238/4.5/0.66667/bw/001.png","","","appealing"
"","","","","","html-button-response","236","242833786","0.0-236.0","1920x1080","","19897.5","","<div class=""intro"">You are about to view a new series of animations.<br><br></div><div class=""intro"">You will evaluate them based on a different descriptor.<br><br></div><div class=""intro"">Move the slider to indicate how <strong style=""text-transform:capitalize"">INTERESTING</strong> you find each animation.<br><br></div><div class=""intro"">0 = Least Interesting<br></div><div class=""intro"">1 = Most Interesting<br><br></div><div class=""intro"">Remember to use the <strong><em>entire range</em></strong> of the slider to make your ratings.<br></div><div class=""intro"">Please <strong><em>take your time</em></strong> and carefully consider each rating you make.<br><br></div>","0","",""
"","","","","","call-function","237","242833787","0.0-237.0","1920x1080","","","","","","",""
"","","","","","animation","238","242837977","0.0-238.0","1920x1080","","4188.800000011921","92.46","img/117/5.5/2/bw/001.png","","","interesting"
"","","","","","animation","239","242840113","0.0-239.0","1920x1080","","2134.899999976158","95","img/238/5.5/2/bw/001.png","","","interesting"
"","","","","","animation","240","242842537","0.0-240.0","1920x1080","","2422.399999976158","85.58","img/314/4.5/2/bw/001.png","","","interesting"
"","","","","","animation","241","242845825","0.0-241.0","1920x1080","","3286.5","95","img/117/4.5/0.5/bw/001.png","","","interesting"
"","","","","","animation","242","242848472","0.0-242.0","1920x1080","","2646.5","25.66","img/314/2.5/0.66667/bw/001.png","","","interesting"
"","","","","","animation","243","242851345","0.0-243.0","1920x1080","","2871.199999988079","91.27","img/238/4.5/2/bw/001.png","","","interesting"
"","","","","","animation","244","242854171","0.0-244.0","1920x1080","","2824.100000023842","97","img/314/4.5/1/bw/001.png","","","interesting"
"","","","","","animation","245","242860589","0.0-245.0","1920x1080","","6415.5","51.19","img/117/3.5/1.5/bw/001.png","","","interesting"
"","","","","","animation","246","242862623","0.0-246.0","1920x1080","","2032.300000011921","68.92","img/238/4.5/0.66667/bw/001.png","","","interesting"
"","","","","","animation","247","242865356","0.0-247.0","1920x1080","","2732.199999988079","88.36","img/117/4.5/1.5/bw/001.png","","","interesting"
"","","","","","animation","248","242868747","0.0-248.0","1920x1080","","3389.7999999523163","20.50","img/314/2.5/1.5/bw/001.png","","","interesting"
"","","","","","animation","249","242871195","0.0-249.0","1920x1080","","2446.699999988079","78.57","img/314/4.5/0.5/bw/001.png","","","interesting"
"","","","","","animation","250","242880907","0.0-250.0","1920x1080","","9710.300000011921","46","img/314/3.5/0.66667/bw/001.png","","","interesting"
"","","","","","animation","251","242884675","0.0-251.0","1920x1080","","3766.599999964237","69.58","img/238/3.5/2/bw/001.png","","","interesting"
"","","","","","animation","252","242887389","0.0-252.0","1920x1080","","2713.400000035763","92.59","img/314/5.5/0.5/bw/001.png","","","interesting"
"","","","","","animation","253","242892040","0.0-253.0","1920x1080","","4649","53.84","img/314/4/1.5/bw/001.png","","","interesting"
"","","","","","animation","254","242895275","0.0-254.0","1920x1080","","3233.5","68.52","img/238/3.5/1/bw/001.png","","","interesting"
"","","","","","animation","255","242897547","0.0-255.0","1920x1080","","2270.699999988079","71.43","img/238/4.5/1/bw/001.png","","","interesting"
"","","","","","animation","256","242900123","0.0-256.0","1920x1080","","2574.5","90.74","img/117/5.5/1.5/bw/001.png","","","interesting"
"","","","","","animation","257","242902579","0.0-257.0","1920x1080","","2455.199999988079","92.20","img/117/5.5/0.66667/bw/001.png","","","interesting"
"","","","","","animation","258","242905490","0.0-258.0","1920x1080","","2908.900000035763","80.16","img/314/4/2/bw/001.png","","","interesting"
"","","","","","animation","259","242910611","0.0-259.0","1920x1080","","5119.900000035763","81.35","img/314/5.5/1/bw/001.png","","","interesting"
"","","","","","animation","260","242914773","0.0-260.0","1920x1080","","4160.5","67.33","img/238/4/0.66667/bw/001.png","","","interesting"
"","","","","","animation","261","242917426","0.0-261.0","1920x1080","","2653","93.39","img/117/5.5/0.5/bw/001.png","","","interesting"
"","","","","","animation","262","242921010","0.0-262.0","1920x1080","","3582.7999999523163","21.43","img/117/2.5/0.5/bw/001.png","","","interesting"
"","","","","","animation","263","242924122","0.0-263.0","1920x1080","","3109.699999988079","72.35","img/314/4.5/1.5/bw/001.png","","","interesting"
"","","","","","animation","264","242926838","0.0-264.0","1920x1080","","2714.600000023842","98","img/117/5.5/1/bw/001.png","","","interesting"
"","","","","","animation","265","242929322","0.0-265.0","1920x1080","","2482.199999988079","86.38","img/238/3.5/0.5/bw/001.png","","","interesting"
"","","","","","animation","266","242931594","0.0-266.0","1920x1080","","2271.100000023842","91.93","img/238/5.5/1/bw/001.png","","","interesting"
"","","","","","animation","267","242937746","0.0-267.0","1920x1080","","6150.799999952316","65.21","img/117/4.5/1/bw/001.png","","","interesting"
"","","","","","animation","268","242940405","0.0-268.0","1920x1080","","2657.5","53.97","img/238/2.5/1.5/bw/001.png","","","interesting"
"","","","","","animation","269","242943194","0.0-269.0","1920x1080","","2787.7999999523163","88.89","img/117/4.5/2/bw/001.png","","","interesting"
"","","","","","animation","270","242946088","0.0-270.0","1920x1080","","2892.800000011921","99","img/238/5.5/0.5/bw/001.png","","","interesting"
"","","","","","animation","271","242948658","0.0-271.0","1920x1080","","2568.2000000476837","76.72","img/117/3.5/2/bw/001.png","","","interesting"
"","","","","","animation","272","242951239","0.0-272.0","1920x1080","","2579.5","87.96","img/117/4/1.5/bw/001.png","","","interesting"
"","","","","","animation","273","242955205","0.0-273.0","1920x1080","","3965.399999976158","50.79","img/314/2.5/1/bw/001.png","","","interesting"
"","","","","","animation","274","242958139","0.0-274.0","1920x1080","","2932.199999988079","49.47","img/238/2.5/1/bw/001.png","","","interesting"
"","","","","","animation","275","242960789","0.0-275.0","1920x1080","","2648.7999999523163","64.15","img/117/4/0.5/bw/001.png","","","interesting"
"","","","","","animation","276","242963522","0.0-276.0","1920x1080","","2732","78.31","img/238/4/1/bw/001.png","","","interesting"
"","","","","","animation","277","242968489","0.0-277.0","1920x1080","","4965.400000035763","46.43","img/238/3.5/1.5/bw/001.png","","","interesting"
"","","","","","animation","278","242970822","0.0-278.0","1920x1080","","2332.199999988079","64.55","img/117/3.5/1/bw/001.png","","","interesting"
"","","","","","animation","279","242975822","0.0-279.0","1920x1080","","4998.599999964237","43.12","img/314/2.5/0.5/bw/001.png","","","interesting"
"","","","","","animation","280","242978520","0.0-280.0","1920x1080","","2696.399999976158","71.69","img/238/4.5/1.5/bw/001.png","","","interesting"
"","","","","","animation","281","242985656","0.0-281.0","1920x1080","","7134.800000011921","41.93","img/117/4/1/bw/001.png","","","interesting"
"","","","","","animation","282","242990203","0.0-282.0","1920x1080","","4544.199999988079","50.93","img/117/2.5/0.66667/bw/001.png","","","interesting"
"","","","","","animation","283","242997820","0.0-283.0","1920x1080","","7615.400000035763","51.06","img/314/3.5/1/bw/001.png","","","interesting"
"","","","","","animation","284","243001020","0.0-284.0","1920x1080","","3198.7000000476837","46.30","img/314/4/1/bw/001.png","","","interesting"
"","","","","","animation","285","243003836","0.0-285.0","1920x1080","","2815.300000011921","58.33","img/314/4.5/0.66667/bw/001.png","","","interesting"
"","","","","","animation","286","243007286","0.0-286.0","1920x1080","","3448.900000035763","40.61","img/117/3.5/0.66667/bw/001.png","","","interesting"
"","","","","","animation","287","243009976","0.0-287.0","1920x1080","","2688.5","41.01","img/117/3.5/0.5/bw/001.png","","","interesting"
"","","","","","animation","288","243014392","0.0-288.0","1920x1080","","4414.300000011921","50.79","img/314/3.5/2/bw/001.png","","","interesting"
"","","","","","animation","289","243020270","0.0-289.0","1920x1080","","5876.899999976158","74","img/238/4.5/0.5/bw/001.png","","","interesting"
"","","","","","animation","290","243022920","0.0-290.0","1920x1080","","2649","67.46","img/314/4/0.66667/bw/001.png","","","interesting"
"","","","","","animation","291","243026760","0.0-291.0","1920x1080","","3838.199999988079","99","img/314/5.5/1.5/bw/001.png","","","interesting"
"","","","","","animation","292","243029772","0.0-292.0","1920x1080","","3010.300000011921","50.13","img/238/2.5/0.5/bw/001.png","","","interesting"
"","","","","","animation","293","243032403","0.0-293.0","1920x1080","","2629.800000011921","41.93","img/238/2.5/0.66667/bw/001.png","","","interesting"
"","","","","","animation","294","243035819","0.0-294.0","1920x1080","","3415","94.18","img/314/5.5/2/bw/001.png","","","interesting"
"","","","","","animation","295","243040065","0.0-295.0","1920x1080","","4234.5","33.99","img/314/2.5/2/bw/001.png","","","interesting"
"","","","","","animation","296","243047446","0.0-296.0","1920x1080","","7378.800000011921","39.81","img/238/3.5/0.66667/bw/001.png","","","interesting"
"","","","","","animation","297","243050746","0.0-297.0","1920x1080","","3298.5","26.19","img/117/2.5/1/bw/001.png","","","interesting"
"","","","","","animation","298","243055229","0.0-298.0","1920x1080","","4482.299999952316","87.30","img/238/5.5/0.66667/bw/001.png","","","interesting"
"","","","","","animation","299","243058246","0.0-299.0","1920x1080","","3014.300000011921","72.75","img/238/4/0.5/bw/001.png","","","interesting"
"","","","","","animation","300","243066618","0.0-300.0","1920x1080","","8370.299999952316","67","img/238/4/2/bw/001.png","","","interesting"
"","","","","","animation","301","243068618","0.0-301.0","1920x1080","","1998.699999988079","53.57","img/314/3.5/0.5/bw/001.png","","","interesting"
"","","","","","animation","302","243072046","0.0-302.0","1920x1080","","3427.2999999523163","41","img/117/4/0.66667/bw/001.png","","","interesting"
"","","","","","animation","303","243082434","0.0-303.0","1920x1080","","10386.100000023842","79","img/238/4/1.5/bw/001.png","","","interesting"
"","","","","","animation","304","243084402","0.0-304.0","1920x1080","","1966.699999988079","54.10","img/117/2.5/1.5/bw/001.png","","","interesting"
"","","","","","animation","305","243086929","0.0-305.0","1920x1080","","2526.300000011921","80.56","img/117/4.5/0.66667/bw/001.png","","","interesting"
"","","","","","animation","306","243089546","0.0-306.0","1920x1080","","2615.300000011921","69.05","img/117/4/2/bw/001.png","","","interesting"
"","","","","","animation","307","243093018","0.0-307.0","1920x1080","","3470.399999976158","86.38","img/238/5.5/1.5/bw/001.png","","","interesting"
"","","","","","animation","308","243098938","0.0-308.0","1920x1080","","5926.300000011921","69.05","img/314/4/0.5/bw/001.png","","","interesting"
"","","","","","animation","309","243103178","0.0-309.0","1920x1080","","4238.5","88.76","img/314/3.5/1.5/bw/001.png","","","interesting"
"","","","","","animation","310","243108214","0.0-310.0","1920x1080","","5033.300000011921","100","img/314/5.5/0.66667/bw/001.png","","","interesting"
"","","","","","animation","311","243110954","0.0-311.0","1920x1080","","2738.199999988079","49.21","img/117/2.5/2/bw/001.png","","","interesting"
"","","","","","animation","312","243114221","0.0-312.0","1920x1080","","3265.399999976158","52.51","img/238/2.5/2/bw/001.png","","","interesting"
"","","","","","html-button-response","313","243133137","0.0-313.0","1920x1080","","18914.799999952316","","<div class=""intro"">You are about to view a new series of animations.<br><br></div><div class=""intro"">You will evaluate them based on a different descriptor.<br><br></div><div class=""intro"">Move the slider to indicate how <strong style=""text-transform:capitalize"">NATURAL</strong> you find each animation.<br><br></div><div class=""intro"">0 = Least Natural<br></div><div class=""intro"">1 = Most Natural<br><br></div><div class=""intro"">Remember to use the <strong><em>entire range</em></strong> of the slider to make your ratings.<br></div><div class=""intro"">Please <strong><em>take your time</em></strong> and carefully consider each rating you make.<br><br></div>","0","",""
"","","","","","call-function","314","243133138","0.0-314.0","1920x1080","","","","","","",""
"","","","","","animation","315","243139571","0.0-315.0","1920x1080","","6431.800000011921","8.33","img/314/3.5/0.5/bw/001.png","","","natural"
"","","","","","animation","316","243143254","0.0-316.0","1920x1080","","3682.400000035763","14.55","img/314/4/0.5/bw/001.png","","","natural"
"","","","","","animation","317","243147421","0.0-317.0","1920x1080","","4165","19.18","img/117/4/0.5/bw/001.png","","","natural"
"","","","","","animation","318","243150225","0.0-318.0","1920x1080","","2803.2999999523163","2.91","img/238/2.5/1/bw/001.png","","","natural"
"","","","","","animation","319","243152954","0.0-319.0","1920x1080","","2727.100000023842","70.90","img/117/3.5/2/bw/001.png","","","natural"
"","","","","","animation","320","243155675","0.0-320.0","1920x1080","","2719.900000035763","44.44","img/238/4/0.5/bw/001.png","","","natural"
"","","","","","animation","321","243161297","0.0-321.0","1920x1080","","5621.5","83.07","img/238/5.5/1/bw/001.png","","","natural"
"","","","","","animation","322","243165437","0.0-322.0","1920x1080","","4137","92.33","img/238/5.5/1.5/bw/001.png","","","natural"
"","","","","","animation","323","243169154","0.0-323.0","1920x1080","","3714.599999964237","48.94","img/314/3.5/1.5/bw/001.png","","","natural"
"","","","","","animation","324","243174970","0.0-324.0","1920x1080","","5815.400000035763","24.60","img/314/3.5/0.66667/bw/001.png","","","natural"
"","","","","","animation","325","243181075","0.0-325.0","1920x1080","","6103.200000047684","15.21","img/314/3.5/1/bw/001.png","","","natural"
"","","","","","animation","326","243191092","0.0-326.0","1920x1080","","10014.900000035763","53.44","img/314/4.5/2/bw/001.png","","","natural"
"","","","","","animation","327","243197641","0.0-327.0","1920x1080","","6545.599999964237","82.01","img/314/5.5/1/bw/001.png","","","natural"
"","","","","","animation","328","243203493","0.0-328.0","1920x1080","","5848.699999988079","54.23","img/238/5.5/0.66667/bw/001.png","","","natural"
"","","","","","animation","329","243205809","0.0-329.0","1920x1080","","2315","31.08","img/238/3.5/0.5/bw/001.png","","","natural"
"","","","","","animation","330","243210553","0.0-330.0","1920x1080","","4742.600000023842","80.03","img/117/5.5/1.5/bw/001.png","","","natural"
"","","","","","animation","331","243212970","0.0-331.0","1920x1080","","2414.600000023842","61.64","img/314/4.5/0.5/bw/001.png","","","natural"
"","","","","","animation","332","243215454","0.0-332.0","1920x1080","","2482","14.95","img/238/2.5/2/bw/001.png","","","natural"
"","","","","","animation","333","243219097","0.0-333.0","1920x1080","","3633.699999988079","35.05","img/314/3.5/2/bw/001.png","","","natural"
"","","","","","animation","334","243222201","0.0-334.0","1920x1080","","3102","43.52","img/117/3.5/1.5/bw/001.png","","","natural"
"","","","","","animation","335","243226131","0.0-335.0","1920x1080","","3929.199999988079","54.89","img/314/4.5/1/bw/001.png","","","natural"
"","","","","","animation","336","243229113","0.0-336.0","1920x1080","","2980.2000000476837","56.61","img/117/4.5/0.5/bw/001.png","","","natural"
"","","","","","animation","337","243235611","0.0-337.0","1920x1080","","6497","55.16","img/314/4/1.5/bw/001.png","","","natural"
"","","","","","animation","338","243242361","0.0-338.0","1920x1080","","6748.299999952316","17.86","img/238/3.5/0.66667/bw/001.png","","","natural"
"","","","","","animation","339","243245385","0.0-339.0","1920x1080","","3022.699999988079","14.95","img/314/4/0.66667/bw/001.png","","","natural"
"","","","","","animation","340","243248817","0.0-340.0","1920x1080","","3430.800000011921","9.26","img/117/3.5/0.5/bw/001.png","","","natural"
"","","","","","animation","341","243253179","0.0-341.0","1920x1080","","4360.5","11.38","img/117/4.5/0.66667/bw/001.png","","","natural"
"","","","","","animation","342","243258634","0.0-342.0","1920x1080","","5453.699999988079","40","img/238/4/1.5/bw/001.png","","","natural"
"","","","","","animation","343","243270412","0.0-343.0","1920x1080","","11776.5","63","img/314/4.5/1.5/bw/001.png","","","natural"
"","","","","","animation","344","243273580","0.0-344.0","1920x1080","","3166.5","5.56","img/117/2.5/2/bw/001.png","","","natural"
"","","","","","animation","345","243278286","0.0-345.0","1920x1080","","4712.699999988079","91.40","img/117/5.5/2/bw/001.png","","","natural"
"","","","","","animation","346","243281786","0.0-346.0","1920x1080","","3498.399999976158","77.25","img/117/4.5/1.5/bw/001.png","","","natural"
"","","","","","animation","347","243284169","0.0-347.0","1920x1080","","2381.300000011921","12.57","img/117/2.5/1/bw/001.png","","","natural"
"","","","","","animation","348","243287442","0.0-348.0","1920x1080","","3271.199999988079","57.14","img/117/5.5/1/bw/001.png","","","natural"
"","","","","","animation","349","243290703","0.0-349.0","1920x1080","","3259.699999988079","11.51","img/238/2.5/0.66667/bw/001.png","","","natural"
"","","","","","animation","350","243292736","0.0-350.0","1920x1080","","2031.4000000357628","43.65","img/117/4/2/bw/001.png","","","natural"
"","","","","","animation","351","243296008","0.0-351.0","1920x1080","","3270.899999976158","74.60","img/238/4/2/bw/001.png","","","natural"
"","","","","","animation","352","243298920","0.0-352.0","1920x1080","","2910.2000000476837","80.03","img/238/4.5/2/bw/001.png","","","natural"
"","","","","","animation","353","243303170","0.0-353.0","1920x1080","","4247.699999988079","25.40","img/238/4.5/0.66667/bw/001.png","","","natural"
"","","","","","animation","354","243306320","0.0-354.0","1920x1080","","3149.100000023842","10.58","img/314/2.5/0.66667/bw/001.png","","","natural"
"","","","","","animation","355","243311477","0.0-355.0","1920x1080","","5155.300000011921","59","img/314/4/1/bw/001.png","","","natural"
"","","","","","animation","356","243339006","0.0-356.0","1920x1080","","27531.19999998808","23.81","img/117/3.5/0.66667/bw/001.png","","","natural"
"","","","","","animation","357","243344085","0.0-357.0","1920x1080","","5075.800000011921","67.20","img/117/4.5/2/bw/001.png","","","natural"
"","","","","","animation","358","243348206","0.0-358.0","1920x1080","","4119.099999964237","58.33","img/314/5.5/0.5/bw/001.png","","","natural"
"","","","","","animation","359","243353850","0.0-359.0","1920x1080","","5642.800000011921","36.24","img/238/4/0.66667/bw/001.png","","","natural"
"","","","","","animation","360","243356101","0.0-360.0","1920x1080","","2249.400000035763","12.70","img/117/2.5/0.5/bw/001.png","","","natural"
"","","","","","animation","361","243359167","0.0-361.0","1920x1080","","3064.100000023842","95","img/314/5.5/2/bw/001.png","","","natural"
"","","","","","animation","362","243362269","0.0-362.0","1920x1080","","3100.7000000476837","83.73","img/314/5.5/0.66667/bw/001.png","","","natural"
"","","","","","animation","363","243365983","0.0-363.0","1920x1080","","3711.899999976158","10.05","img/238/2.5/0.5/bw/001.png","","","natural"
"","","","","","animation","364","243368533","0.0-364.0","1920x1080","","2548.400000035763","84.39","img/314/5.5/1.5/bw/001.png","","","natural"
"","","","","","animation","365","243372705","0.0-365.0","1920x1080","","4171","53.31","img/238/3.5/2/bw/001.png","","","natural"
"","","","","","animation","366","243375237","0.0-366.0","1920x1080","","2530.7000000476837","84.39","img/238/5.5/0.5/bw/001.png","","","natural"
"","","","","","animation","367","243378670","0.0-367.0","1920x1080","","3431.5","14.81","img/314/2.5/1.5/bw/001.png","","","natural"
"","","","","","animation","368","243380953","0.0-368.0","1920x1080","","2281.100000023842","27.78","img/238/3.5/1/bw/001.png","","","natural"
"","","","","","animation","369","243386450","0.0-369.0","1920x1080","","5495.800000011921","68.12","img/314/4.5/0.66667/bw/001.png","","","natural"
"","","","","","animation","370","243397745","0.0-370.0","1920x1080","","11282","34.79","img/238/4.5/1.5/bw/001.png","","","natural"
"","","","","","animation","371","243400634","0.0-371.0","1920x1080","","2885","17.59","img/238/4.5/0.5/bw/001.png","","","natural"
"","","","","","animation","372","243403662","0.0-372.0","1920x1080","","3026","84.26","img/238/5.5/2/bw/001.png","","","natural"
"","","","","","animation","373","243408345","0.0-373.0","1920x1080","","4681.5","4","img/238/2.5/1.5/bw/001.png","","","natural"
"","","","","","animation","374","243411308","0.0-374.0","1920x1080","","2961.100000023842","48.54","img/238/4.5/1/bw/001.png","","","natural"
"","","","","","animation","375","243417521","0.0-375.0","1920x1080","","6189.5","57","img/238/3.5/1.5/bw/001.png","","","natural"
"","","","","","animation","376","243420795","0.0-376.0","1920x1080","","3273.199999988079","56.61","img/117/3.5/1/bw/001.png","","","natural"
"","","","","","animation","377","243426152","0.0-377.0","1920x1080","","5355.800000011921","60.58","img/117/5.5/0.66667/bw/001.png","","","natural"
"","","","","","animation","378","243428803","0.0-378.0","1920x1080","","2649","12.17","img/117/2.5/1.5/bw/001.png","","","natural"
"","","","","","animation","379","243435278","0.0-379.0","1920x1080","","6473.199999988079","65.87","img/117/4.5/1/bw/001.png","","","natural"
"","","","","","animation","380","243437913","0.0-380.0","1920x1080","","2631.7000000476837","9.66","img/314/2.5/2/bw/001.png","","","natural"
"","","","","","animation","381","243441629","0.0-381.0","1920x1080","","3714.300000011921","21.43","img/238/4/1/bw/001.png","","","natural"
"","","","","","animation","382","243443833","0.0-382.0","1920x1080","","2202.5","11.11","img/314/2.5/1/bw/001.png","","","natural"
"","","","","","animation","383","243446428","0.0-383.0","1920x1080","","2593.199999988079","11.90","img/117/2.5/0.66667/bw/001.png","","","natural"
"","","","","","animation","384","243449396","0.0-384.0","1920x1080","","2966","30.03","img/117/4/1/bw/001.png","","","natural"
"","","","","","animation","385","243453345","0.0-385.0","1920x1080","","3948.699999988079","3.57","img/314/2.5/0.5/bw/001.png","","","natural"
"","","","","","animation","386","243457053","0.0-386.0","1920x1080","","3713.699999988079","38.23","img/117/4/0.66667/bw/001.png","","","natural"
"","","","","","animation","387","243461044","0.0-387.0","1920x1080","","3989","63.36","img/314/4/2/bw/001.png","","","natural"
"","","","","","animation","388","243464837","0.0-388.0","1920x1080","","3791.300000011921","61.64","img/117/4/1.5/bw/001.png","","","natural"
"","","","","","animation","389","243468554","0.0-389.0","1920x1080","","3715.800000011921","65.08","img/117/5.5/0.5/bw/001.png","","","natural"
"","","","","","html-button-response","390","243487116","0.0-390.0","1920x1080","","18558.299999952316","","<strong>Study Debriefing</strong><br><p class=""debrief""><strong>Background:</strong> The patterns you rated are called <em>fractals</em>. The term fractal describes a class of irregular curves or shapes for which any suitably chosen part is similar in shape to a given larger or smaller part when magnified or reduced to the same size. Fractal properties are found throughout the natural and manmade world. The series of animations you saw today displayed animated fractal patterns of a varying complexity.</p><p class=""debrief""><strong>Purpose of this study:</strong> We hope to better understand how the perception of static fractals differs from the perception of animated fractals, and how the speed of the animated patterns influences people&apos;s perception of them. Fractals allow us to study the perception of aesthetic properties (e.g. the perceived level of beauty in an image) without using recognizable content, which makes them an excellent tool for studying abstract aesthetic judgement.</p><p class=""debrief""><strong>Your part:</strong> Your participation has helped us to further understand how humans perceive these patterns across different levels of speed and complexity. This research with allow us to better understand how the visual system and brain process our ever-changing visual environments.<p class=""debrief""><strong>Feedback and Further information:</strong> If you have additional questions about this study, please feel free to ask the researcher, Nathan Gonzales-Hess at nhess @ uoregon.edu. If you have any questions concerning your rights as a research participant, please contact Research Compliance Services, 5237 University of Oregon, Eugene, OR 97403, 541-346-2510, or email researchCompliance @ uoregon.edu. You can also email the Human Subjects Coordinator for psychology and linguistics research at hscoord @ uoregon.edu. ","0","",""
"","","","","","html-button-response","391","243493402","0.0-391.0","1920x1080","","6282.800000011921","","Thank you for participating in this study. <br>Please click below to finish the experiment and submit your responses.<br><br>","0","",""
"true","","","","","fullscreen","392","243494413","0.0-392.0","1920x1080","9:37 10/10/2022","","","","","",""
