"success","timeout","failed_images","failed_audio","failed_video","trial_type","trial_index","time_elapsed","internal_node_id","resolution","timeStamp","rt","response","stimulus","button_pressed","value","descriptor"
"true","false","[]","[]","[]","preload","0","3773","0.0-0.0","1920x1080","","","","","","",""
"true","false","[]","[]","[]","preload","1","7733","0.0-1.0","1920x1080","","","","","","",""
"true","false","[]","[]","[]","preload","2","11321","0.0-2.0","1920x1080","","","","","","",""
"true","","","","","fullscreen","3","797992","0.0-3.0","1920x1080","15:19 23/5/2022","","","","","",""
"","","","","","survey-html-form","4","806809","0.0-4.0","1920x1080","","8811.599999964237","{""age"":""20"",""gender"":""Female""}","","","",""
"","","","","","html-button-response","5","857993","0.0-5.0","1920x1080","","51183.09999996424","","<div class=""complex"">You are going to see a series of animations.<br><br></div><div class=""complex"">Move the slider to indicate how <strong style=""text-transform:capitalize"">COMPLEX</strong> you find each animation.<br><br></div><div class=""complex"">0 = Least Complex<br></div><div class=""complex"">1 = Most Complex<br><br></div><div class=""complex"">Remember to use the <strong><em>entire range</em></strong> of the slider to make your ratings.<br></div><div class=""complex"">Please <strong><em>take your time</em></strong> and carefully consider each rating you make.<br><br></div><div class=""complex"">The study has five sections and will take about 45 minutes to complete.<br><br></div>","0","",""
"","","","","","call-function","6","857994","0.0-6.0","1920x1080","","","","","","",""
"","","","","","animation","7","884552","0.0-7.0","1920x1080","","26556.099999964237","19.71","img/117/4/0.5/bw/001.png","","","complex"
"","","","","","animation","8","892488","0.0-8.0","1920x1080","","7935.199999988079","44.18","img/238/3.5/0.66667/bw/001.png","","","complex"
"","","","","","animation","9","899968","0.0-9.0","1920x1080","","7478.600000023842","19.05","img/238/4/2/bw/001.png","","","complex"
"","","","","","animation","10","906632","0.0-10.0","1920x1080","","6663.200000047684","2.51","img/117/5.5/1/bw/001.png","","","complex"
"","","","","","animation","11","911544","0.0-11.0","1920x1080","","4911.099999964237","81.61","img/117/2.5/1.5/bw/001.png","","","complex"
"","","","","","animation","12","916688","0.0-12.0","1920x1080","","5142.5","51.98","img/314/3.5/2/bw/001.png","","","complex"
"","","","","","animation","13","921552","0.0-13.0","1920x1080","","4863","66.53","img/314/3.5/0.66667/bw/001.png","","","complex"
"","","","","","animation","14","927048","0.0-14.0","1920x1080","","5495","13.23","img/117/5.5/0.66667/bw/001.png","","","complex"
"","","","","","animation","15","932312","0.0-15.0","1920x1080","","5264","56.48","img/117/3.5/0.66667/bw/001.png","","","complex"
"","","","","","animation","16","937560","0.0-16.0","1920x1080","","5246.900000035763","0.93","img/238/5.5/2/bw/001.png","","","complex"
"","","","","","animation","17","947088","0.0-17.0","1920x1080","","9526.800000011921","50.53","img/314/4/0.5/bw/001.png","","","complex"
"","","","","","animation","18","956672","0.0-18.0","1920x1080","","9582.600000023842","8.60","img/314/5.5/1/bw/001.png","","","complex"
"","","","","","animation","19","960864","0.0-19.0","1920x1080","","4191.399999976158","31.08","img/117/4.5/2/bw/001.png","","","complex"
"","","","","","animation","20","968881","0.0-20.0","1920x1080","","8015.799999952316","25.26","img/238/4.5/1.5/bw/001.png","","","complex"
"","","","","","animation","21","974208","0.0-21.0","1920x1080","","5326.699999988079","38.62","img/238/4.5/0.66667/bw/001.png","","","complex"
"","","","","","animation","22","981520","0.0-22.0","1920x1080","","7310.800000011921","4.10","img/238/5.5/1.5/bw/001.png","","","complex"
"","","","","","animation","23","993272","0.0-23.0","1920x1080","","11751.300000011921","54.50","img/238/4/1.5/bw/001.png","","","complex"
"","","","","","animation","24","999800","0.0-24.0","1920x1080","","6526.900000035763","46.83","img/238/4.5/1/bw/001.png","","","complex"
"","","","","","animation","25","1011560","0.0-25.0","1920x1080","","11759.699999988079","63.62","img/314/4.5/0.5/bw/001.png","","","complex"
"","","","","","animation","26","1019904","0.0-26.0","1920x1080","","8342.600000023842","94","img/238/2.5/0.66667/bw/001.png","","","complex"
"","","","","","animation","27","1028624","0.0-27.0","1920x1080","","8719","69.97","img/117/4/1/bw/001.png","","","complex"
"","","","","","animation","28","1033688","0.0-28.0","1920x1080","","5063.200000047684","45.37","img/314/4.5/1/bw/001.png","","","complex"
"","","","","","animation","29","1040184","0.0-29.0","1920x1080","","6495","68.65","img/117/3.5/2/bw/001.png","","","complex"
"","","","","","animation","30","1046873","0.0-30.0","1920x1080","","6687.300000011921","80.42","img/117/3.5/0.5/bw/001.png","","","complex"
"","","","","","animation","31","1052473","0.0-31.0","1920x1080","","5599.399999976158","66.01","img/117/4/1.5/bw/001.png","","","complex"
"","","","","","animation","32","1058009","0.0-32.0","1920x1080","","5535.099999964237","58.47","img/314/4/0.66667/bw/001.png","","","complex"
"","","","","","animation","33","1065281","0.0-33.0","1920x1080","","7271.199999988079","37.17","img/238/4.5/2/bw/001.png","","","complex"
"","","","","","animation","34","1070968","0.0-34.0","1920x1080","","5686.800000011921","45","img/314/4.5/2/bw/001.png","","","complex"
"","","","","","animation","35","1078752","0.0-35.0","1920x1080","","7783.100000023842","46.56","img/117/4.5/1.5/bw/001.png","","","complex"
"","","","","","animation","36","1085289","0.0-36.0","1920x1080","","6535.399999976158","52.38","img/117/4/2/bw/001.png","","","complex"
"","","","","","animation","37","1094120","0.0-37.0","1920x1080","","8830.800000011921","9","img/314/5.5/1.5/bw/001.png","","","complex"
"","","","","","animation","38","1104145","0.0-38.0","1920x1080","","10022.5","90.08","img/238/2.5/2/bw/001.png","","","complex"
"","","","","","animation","39","1108400","0.0-39.0","1920x1080","","4254.900000035763","17.59","img/117/5.5/2/bw/001.png","","","complex"
"","","","","","animation","40","1114401","0.0-40.0","1920x1080","","5999.5","98","img/314/2.5/0.5/bw/001.png","","","complex"
"","","","","","animation","41","1123833","0.0-41.0","1920x1080","","9431.300000011921","59.66","img/238/4.5/0.5/bw/001.png","","","complex"
"","","","","","animation","42","1128753","0.0-42.0","1920x1080","","4919.100000023842","83.60","img/238/2.5/1.5/bw/001.png","","","complex"
"","","","","","animation","43","1139961","0.0-43.0","1920x1080","","11207.5","34.66","img/117/5.5/0.5/bw/001.png","","","complex"
"","","","","","animation","44","1149515","0.0-44.0","1920x1080","","9552.800000011921","89.55","img/314/2.5/2/bw/001.png","","","complex"
"","","","","","animation","45","1155378","0.0-45.0","1920x1080","","5861.300000011921","85.05","img/117/4/0.66667/bw/001.png","","","complex"
"","","","","","animation","46","1161274","0.0-46.0","1920x1080","","5895.300000011921","81","img/314/4/1/bw/001.png","","","complex"
"","","","","","animation","47","1168433","0.0-47.0","1920x1080","","7158.600000023842","77.78","img/314/4/1.5/bw/001.png","","","complex"
"","","","","","animation","48","1172442","0.0-48.0","1920x1080","","4007.5","96","img/314/2.5/1/bw/001.png","","","complex"
"","","","","","animation","49","1178842","0.0-49.0","1920x1080","","6398.899999976158","85.98","img/117/3.5/1/bw/001.png","","","complex"
"","","","","","animation","50","1186538","0.0-50.0","1920x1080","","7695.199999988079","78.57","img/238/3.5/2/bw/001.png","","","complex"
"","","","","","animation","51","1189994","0.0-51.0","1920x1080","","3455.199999988079","84.66","img/314/3.5/1/bw/001.png","","","complex"
"","","","","","animation","52","1205322","0.0-52.0","1920x1080","","15327.299999952316","20.11","img/314/5.5/0.5/bw/001.png","","","complex"
"","","","","","animation","53","1212194","0.0-53.0","1920x1080","","6871.300000011921","34.13","img/314/4.5/1.5/bw/001.png","","","complex"
"","","","","","animation","54","1221161","0.0-54.0","1920x1080","","8967.300000011921","51.06","img/117/4.5/0.66667/bw/001.png","","","complex"
"","","","","","animation","55","1225705","0.0-55.0","1920x1080","","4542.400000035763","89.29","img/117/2.5/0.66667/bw/001.png","","","complex"
"","","","","","animation","56","1231257","0.0-56.0","1920x1080","","5551.099999964237","78.70","img/314/3.5/1.5/bw/001.png","","","complex"
"","","","","","animation","57","1244249","0.0-57.0","1920x1080","","12990.5","76.19","img/238/4/0.5/bw/001.png","","","complex"
"","","","","","animation","58","1251331","0.0-58.0","1920x1080","","7081.699999988079","91.80","img/314/2.5/0.66667/bw/001.png","","","complex"
"","","","","","animation","59","1261905","0.0-59.0","1920x1080","","10572.699999988079","99","img/117/2.5/2/bw/001.png","","","complex"
"","","","","","animation","60","1268689","0.0-60.0","1920x1080","","6783.099999964237","87.70","img/238/3.5/0.5/bw/001.png","","","complex"
"","","","","","animation","61","1278618","0.0-61.0","1920x1080","","9926.699999988079","13.10","img/314/5.5/0.66667/bw/001.png","","","complex"
"","","","","","animation","62","1288099","0.0-62.0","1920x1080","","9480.5","72.35","img/314/3.5/0.5/bw/001.png","","","complex"
"","","","","","animation","63","1294818","0.0-63.0","1920x1080","","6717.599999964237","17.20","img/238/5.5/0.66667/bw/001.png","","","complex"
"","","","","","animation","64","1304690","0.0-64.0","1920x1080","","9871.300000011921","77.25","img/238/3.5/1.5/bw/001.png","","","complex"
"","","","","","animation","65","1309442","0.0-65.0","1920x1080","","4750.900000035763","90.74","img/238/2.5/0.5/bw/001.png","","","complex"
"","","","","","animation","66","1317626","0.0-66.0","1920x1080","","8183.399999976158","68.78","img/117/4.5/1/bw/001.png","","","complex"
"","","","","","animation","67","1325099","0.0-67.0","1920x1080","","7472.399999976158","75.79","img/314/4/2/bw/001.png","","","complex"
"","","","","","animation","68","1330858","0.0-68.0","1920x1080","","5757.299999952316","92.20","img/117/2.5/0.5/bw/001.png","","","complex"
"","","","","","animation","69","1335690","0.0-69.0","1920x1080","","4831.300000011921","97","img/238/2.5/1/bw/001.png","","","complex"
"","","","","","animation","70","1344978","0.0-70.0","1920x1080","","9287.399999976158","33.33","img/238/5.5/0.5/bw/001.png","","","complex"
"","","","","","animation","71","1356570","0.0-71.0","1920x1080","","11590.5","60.85","img/238/3.5/1/bw/001.png","","","complex"
"","","","","","animation","72","1364834","0.0-72.0","1920x1080","","8262.900000035763","57.14","img/314/4.5/0.66667/bw/001.png","","","complex"
"","","","","","animation","73","1377466","0.0-73.0","1920x1080","","12631.400000035763","1.32","img/314/5.5/2/bw/001.png","","","complex"
"","","","","","animation","74","1383954","0.0-74.0","1920x1080","","6486.699999988079","6","img/117/5.5/1.5/bw/001.png","","","complex"
"","","","","","animation","75","1390410","0.0-75.0","1920x1080","","6455.299999952316","35.71","img/117/4.5/0.5/bw/001.png","","","complex"
"","","","","","animation","76","1398898","0.0-76.0","1920x1080","","8487","47.49","img/238/4/1/bw/001.png","","","complex"
"","","","","","animation","77","1406658","0.0-77.0","1920x1080","","7759.199999988079","58.33","img/238/4/0.66667/bw/001.png","","","complex"
"","","","","","animation","78","1416754","0.0-78.0","1920x1080","","10094.899999976158","98","img/314/2.5/1.5/bw/001.png","","","complex"
"","","","","","animation","79","1420226","0.0-79.0","1920x1080","","3470.800000011921","89.29","img/117/3.5/1.5/bw/001.png","","","complex"
"","","","","","animation","80","1428716","0.0-80.0","1920x1080","","8489.099999964237","100","img/117/2.5/1/bw/001.png","","","complex"
"","","","","","animation","81","1438498","0.0-81.0","1920x1080","","9781.100000023842","6.22","img/238/5.5/1/bw/001.png","","","complex"
"","","","","","html-button-response","82","1458003","0.0-82.0","1920x1080","","19502.900000035763","","<div class=""intro"">You are about to view a new series of animations.<br><br></div><div class=""intro"">You will evaluate them based on a different descriptor.<br><br></div><div class=""intro"">Move the slider to indicate how <strong style=""text-transform:capitalize"">RELAXING</strong> you find each animation.<br><br></div><div class=""intro"">0 = Least Relaxing<br></div><div class=""intro"">1 = Most Relaxing<br><br></div><div class=""intro"">Remember to use the <strong><em>entire range</em></strong> of the slider to make your ratings.<br></div><div class=""intro"">Please <strong><em>take your time</em></strong> and carefully consider each rating you make.<br><br></div>","0","",""
"","","","","","call-function","83","1458004","0.0-83.0","1920x1080","","","","","","",""
"","","","","","animation","84","1479306","0.0-84.0","1920x1080","","21301.900000035763","84","img/238/5.5/0.5/bw/001.png","","","relaxing"
"","","","","","animation","85","1487666","0.0-85.0","1920x1080","","8357.5","4","img/314/2.5/1/bw/001.png","","","relaxing"
"","","","","","animation","86","1497610","0.0-86.0","1920x1080","","9943.5","25.79","img/117/3.5/0.66667/bw/001.png","","","relaxing"
"","","","","","animation","87","1501634","0.0-87.0","1920x1080","","4022.100000023842","10.71","img/314/2.5/0.5/bw/001.png","","","relaxing"
"","","","","","animation","88","1518155","0.0-88.0","1920x1080","","16519.099999964237","92","img/314/4.5/2/bw/001.png","","","relaxing"
"","","","","","animation","89","1524587","0.0-89.0","1920x1080","","6430.899999976158","97","img/117/5.5/1.5/bw/001.png","","","relaxing"
"","","","","","animation","90","1531411","0.0-90.0","1920x1080","","6822.899999976158","58.47","img/314/4.5/0.66667/bw/001.png","","","relaxing"
"","","","","","animation","91","1536349","0.0-91.0","1920x1080","","4937.599999964237","38.89","img/314/4/0.66667/bw/001.png","","","relaxing"
"","","","","","animation","92","1543787","0.0-92.0","1920x1080","","7436.800000011921","65.34","img/314/5.5/0.66667/bw/001.png","","","relaxing"
"","","","","","animation","93","1549115","0.0-93.0","1920x1080","","5326.800000011921","9.13","img/117/2.5/0.5/bw/001.png","","","relaxing"
"","","","","","animation","94","1558603","0.0-94.0","1920x1080","","9485.699999988079","97","img/314/5.5/2/bw/001.png","","","relaxing"
"","","","","","animation","95","1566714","0.0-95.0","1920x1080","","8110.300000011921","80.16","img/314/5.5/1.5/bw/001.png","","","relaxing"
"","","","","","animation","96","1571515","0.0-96.0","1920x1080","","4800.100000023842","34.79","img/314/3.5/1/bw/001.png","","","relaxing"
"","","","","","animation","97","1579291","0.0-97.0","1920x1080","","7774.699999988079","55.69","img/238/4.5/1.5/bw/001.png","","","relaxing"
"","","","","","animation","98","1586215","0.0-98.0","1920x1080","","6922.299999952316","44.31","img/314/4.5/1/bw/001.png","","","relaxing"
"","","","","","animation","99","1592443","0.0-99.0","1920x1080","","6227.399999976158","29.63","img/117/4/1/bw/001.png","","","relaxing"
"","","","","","animation","100","1602282","0.0-100.0","1920x1080","","9838.400000035763","19.58","img/314/4/1/bw/001.png","","","relaxing"
"","","","","","animation","101","1610418","0.0-101.0","1920x1080","","8134.5","51.06","img/117/5.5/1/bw/001.png","","","relaxing"
"","","","","","animation","102","1624766","0.0-102.0","1920x1080","","14346.899999976158","35.58","img/314/3.5/2/bw/001.png","","","relaxing"
"","","","","","animation","103","1636203","0.0-103.0","1920x1080","","11434.899999976158","85.05","img/117/5.5/2/bw/001.png","","","relaxing"
"","","","","","animation","104","1643411","0.0-104.0","1920x1080","","7207.199999988079","63.23","img/238/4.5/1/bw/001.png","","","relaxing"
"","","","","","animation","105","1650042","0.0-105.0","1920x1080","","6630.600000023842","46.96","img/238/4.5/0.66667/bw/001.png","","","relaxing"
"","","","","","animation","106","1655781","0.0-106.0","1920x1080","","5737.699999988079","5.03","img/238/2.5/0.5/bw/001.png","","","relaxing"
"","","","","","animation","107","1662564","0.0-107.0","1920x1080","","6782.300000011921","1.72","img/314/2.5/0.66667/bw/001.png","","","relaxing"
"","","","","","animation","108","1667834","0.0-108.0","1920x1080","","5269.099999964237","17.06","img/238/4/1.5/bw/001.png","","","relaxing"
"","","","","","animation","109","1674866","0.0-109.0","1920x1080","","7031","38.36","img/314/4/2/bw/001.png","","","relaxing"
"","","","","","animation","110","1681891","0.0-110.0","1920x1080","","7022.899999976158","59.92","img/238/5.5/1.5/bw/001.png","","","relaxing"
"","","","","","animation","111","1689155","0.0-111.0","1920x1080","","7263.200000047684","34.39","img/314/3.5/1.5/bw/001.png","","","relaxing"
"","","","","","animation","112","1693955","0.0-112.0","1920x1080","","4799.100000023842","26.06","img/238/4/1/bw/001.png","","","relaxing"
"","","","","","animation","113","1697772","0.0-113.0","1920x1080","","3815.199999988079","22","img/117/4/0.66667/bw/001.png","","","relaxing"
"","","","","","animation","114","1704140","0.0-114.0","1920x1080","","6366.899999976158","9.39","img/238/2.5/0.66667/bw/001.png","","","relaxing"
"","","","","","animation","115","1713549","0.0-115.0","1920x1080","","9408.399999976158","1.72","img/314/3.5/0.5/bw/001.png","","","relaxing"
"","","","","","animation","116","1721932","0.0-116.0","1920x1080","","8381.699999988079","3.84","img/117/4/0.5/bw/001.png","","","relaxing"
"","","","","","animation","117","1729683","0.0-117.0","1920x1080","","7750.5","16.80","img/117/2.5/2/bw/001.png","","","relaxing"
"","","","","","animation","118","1735982","0.0-118.0","1920x1080","","6298.100000023842","11.90","img/238/4/0.66667/bw/001.png","","","relaxing"
"","","","","","animation","119","1743460","0.0-119.0","1920x1080","","7476.100000023842","28.84","img/314/4.5/1.5/bw/001.png","","","relaxing"
"","","","","","animation","120","1752524","0.0-120.0","1920x1080","","9062.300000011921","37.30","img/117/3.5/1/bw/001.png","","","relaxing"
"","","","","","animation","121","1762182","0.0-121.0","1920x1080","","9657.399999976158","17.59","img/238/4.5/0.5/bw/001.png","","","relaxing"
"","","","","","animation","122","1774572","0.0-122.0","1920x1080","","12388.800000011921","52.38","img/117/4/2/bw/001.png","","","relaxing"
"","","","","","animation","123","1784616","0.0-123.0","1920x1080","","10043.199999988079","38.36","img/314/4.5/0.5/bw/001.png","","","relaxing"
"","","","","","animation","124","1791748","0.0-124.0","1920x1080","","7131.099999964237","23.54","img/238/3.5/0.5/bw/001.png","","","relaxing"
"","","","","","animation","125","1798581","0.0-125.0","1920x1080","","6831.899999976158","21.56","img/238/4/0.5/bw/001.png","","","relaxing"
"","","","","","animation","126","1806332","0.0-126.0","1920x1080","","7749.5","20.77","img/238/3.5/0.66667/bw/001.png","","","relaxing"
"","","","","","animation","127","1814886","0.0-127.0","1920x1080","","8553.5","13.89","img/314/4/0.5/bw/001.png","","","relaxing"
"","","","","","animation","128","1827015","0.0-128.0","1920x1080","","12127.5","24.74","img/117/2.5/1.5/bw/001.png","","","relaxing"
"","","","","","animation","129","1839475","0.0-129.0","1920x1080","","12459.400000035763","91.93","img/314/5.5/1/bw/001.png","","","relaxing"
"","","","","","animation","130","1844765","0.0-130.0","1920x1080","","5289","28.44","img/314/2.5/1.5/bw/001.png","","","relaxing"
"","","","","","animation","131","1852124","0.0-131.0","1920x1080","","7357.299999952316","41.27","img/314/4/1.5/bw/001.png","","","relaxing"
"","","","","","animation","132","1862651","0.0-132.0","1920x1080","","10526.700000047684","87","img/117/5.5/0.66667/bw/001.png","","","relaxing"
"","","","","","animation","133","1867051","0.0-133.0","1920x1080","","4398","15.87","img/238/2.5/2/bw/001.png","","","relaxing"
"","","","","","animation","134","1872631","0.0-134.0","1920x1080","","5579.100000023842","55.82","img/117/4.5/1.5/bw/001.png","","","relaxing"
"","","","","","animation","135","1877356","0.0-135.0","1920x1080","","4723.5","31.88","img/314/2.5/2/bw/001.png","","","relaxing"
"","","","","","animation","136","1885217","0.0-136.0","1920x1080","","7859.300000011921","28.70","img/238/3.5/1/bw/001.png","","","relaxing"
"","","","","","animation","137","1895636","0.0-137.0","1920x1080","","10418.799999952316","66.01","img/117/5.5/0.5/bw/001.png","","","relaxing"
"","","","","","animation","138","1903668","0.0-138.0","1920x1080","","8030.600000023842","69.84","img/117/4/1.5/bw/001.png","","","relaxing"
"","","","","","animation","139","1910832","0.0-139.0","1920x1080","","7163.300000011921","35.45","img/117/3.5/0.5/bw/001.png","","","relaxing"
"","","","","","animation","140","1918836","0.0-140.0","1920x1080","","8002.899999976158","47.09","img/117/4.5/1/bw/001.png","","","relaxing"
"","","","","","animation","141","1924324","0.0-141.0","1920x1080","","5485.800000011921","38.76","img/238/3.5/2/bw/001.png","","","relaxing"
"","","","","","animation","142","1927916","0.0-142.0","1920x1080","","3590.600000023842","9.13","img/117/2.5/0.66667/bw/001.png","","","relaxing"
"","","","","","animation","143","1933799","0.0-143.0","1920x1080","","5881.300000011921","28.31","img/117/3.5/1.5/bw/001.png","","","relaxing"
"","","","","","animation","144","1944276","0.0-144.0","1920x1080","","10477.100000023842","62.43","img/238/4.5/2/bw/001.png","","","relaxing"
"","","","","","animation","145","1958108","0.0-145.0","1920x1080","","13830.800000011921","67.20","img/238/4/2/bw/001.png","","","relaxing"
"","","","","","animation","146","1967282","0.0-146.0","1920x1080","","9172.899999976158","72","img/117/4.5/2/bw/001.png","","","relaxing"
"","","","","","animation","147","1977509","0.0-147.0","1920x1080","","10225.200000047684","1.72","img/117/2.5/1/bw/001.png","","","relaxing"
"","","","","","animation","148","1991300","0.0-148.0","1920x1080","","13790.5","50.00","img/238/5.5/0.66667/bw/001.png","","","relaxing"
"","","","","","animation","149","2002452","0.0-149.0","1920x1080","","11150.5","30.29","img/238/2.5/1.5/bw/001.png","","","relaxing"
"","","","","","animation","150","2009884","0.0-150.0","1920x1080","","7431.099999964237","53.44","img/314/5.5/0.5/bw/001.png","","","relaxing"
"","","","","","animation","151","2017308","0.0-151.0","1920x1080","","7423.399999976158","33.20","img/117/4.5/0.66667/bw/001.png","","","relaxing"
"","","","","","animation","152","2024182","0.0-152.0","1920x1080","","6872.200000047684","43.92","img/238/3.5/1.5/bw/001.png","","","relaxing"
"","","","","","animation","153","2035665","0.0-153.0","1920x1080","","11482","100","img/238/5.5/2/bw/001.png","","","relaxing"
"","","","","","animation","154","2051372","0.0-154.0","1920x1080","","15706.400000035763","78.31","img/117/3.5/2/bw/001.png","","","relaxing"
"","","","","","animation","155","2068852","0.0-155.0","1920x1080","","17478.799999952316","98","img/238/5.5/1/bw/001.png","","","relaxing"
"","","","","","animation","156","2076709","0.0-156.0","1920x1080","","7854.799999952316","62.30","img/117/4.5/0.5/bw/001.png","","","relaxing"
"","","","","","animation","157","2080709","0.0-157.0","1920x1080","","3999.199999988079","29.23","img/314/3.5/0.66667/bw/001.png","","","relaxing"
"","","","","","animation","158","2085109","0.0-158.0","1920x1080","","4398.700000047684","17.59","img/238/2.5/1/bw/001.png","","","relaxing"
"","","","","","html-button-response","159","2105271","0.0-159.0","1920x1080","","20160.099999964237","","<div class=""intro"">You are about to view a new series of animations.<br><br></div><div class=""intro"">You will evaluate them based on a different descriptor.<br><br></div><div class=""intro"">Move the slider to indicate how <strong style=""text-transform:capitalize"">NATURAL</strong> you find each animation.<br><br></div><div class=""intro"">0 = Least Natural<br></div><div class=""intro"">1 = Most Natural<br><br></div><div class=""intro"">Remember to use the <strong><em>entire range</em></strong> of the slider to make your ratings.<br></div><div class=""intro"">Please <strong><em>take your time</em></strong> and carefully consider each rating you make.<br><br></div>","0","",""
"","","","","","call-function","160","2105272","0.0-160.0","1920x1080","","","","","","",""
"","","","","","animation","161","2128805","0.0-161.0","1920x1080","","23532.5","8.20","img/314/2.5/1/bw/001.png","","","natural"
"","","","","","animation","162","2133637","0.0-162.0","1920x1080","","4830.699999988079","14.55","img/117/4.5/0.66667/bw/001.png","","","natural"
"","","","","","animation","163","2136899","0.0-163.0","1920x1080","","3260.199999988079","3.04","img/314/2.5/0.66667/bw/001.png","","","natural"
"","","","","","animation","164","2140449","0.0-164.0","1920x1080","","3549.100000023842","38.23","img/314/2.5/1.5/bw/001.png","","","natural"
"","","","","","animation","165","2143649","0.0-165.0","1920x1080","","3198.7999999523163","23.28","img/238/2.5/2/bw/001.png","","","natural"
"","","","","","animation","166","2151215","0.0-166.0","1920x1080","","7565.800000011921","6.08","img/117/3.5/0.66667/bw/001.png","","","natural"
"","","","","","animation","167","2155633","0.0-167.0","1920x1080","","4416","67.33","img/238/4.5/2/bw/001.png","","","natural"
"","","","","","animation","168","2159899","0.0-168.0","1920x1080","","4265.200000047684","29.10","img/117/4.5/0.5/bw/001.png","","","natural"
"","","","","","animation","169","2162405","0.0-169.0","1920x1080","","2505.899999976158","16.14","img/238/3.5/0.5/bw/001.png","","","natural"
"","","","","","animation","170","2165069","0.0-170.0","1920x1080","","2663.099999964237","11.11","img/238/4/0.5/bw/001.png","","","natural"
"","","","","","animation","171","2171253","0.0-171.0","1920x1080","","6183.100000023842","96","img/117/5.5/1.5/bw/001.png","","","natural"
"","","","","","animation","172","2177126","0.0-172.0","1920x1080","","5870.900000035763","49.21","img/117/4/0.5/bw/001.png","","","natural"
"","","","","","animation","173","2180526","0.0-173.0","1920x1080","","3398.900000035763","46.43","img/314/4/0.66667/bw/001.png","","","natural"
"","","","","","animation","174","2186517","0.0-174.0","1920x1080","","5990.599999964237","7.41","img/238/2.5/0.5/bw/001.png","","","natural"
"","","","","","animation","175","2191038","0.0-175.0","1920x1080","","4518.900000035763","32.01","img/117/2.5/1.5/bw/001.png","","","natural"
"","","","","","animation","176","2202238","0.0-176.0","1920x1080","","11198.800000011921","30.42","img/117/3.5/0.5/bw/001.png","","","natural"
"","","","","","animation","177","2205999","0.0-177.0","1920x1080","","3760.199999988079","13.10","img/117/2.5/0.66667/bw/001.png","","","natural"
"","","","","","animation","178","2210021","0.0-178.0","1920x1080","","4021.7000000476837","69.58","img/238/4/1.5/bw/001.png","","","natural"
"","","","","","animation","179","2214790","0.0-179.0","1920x1080","","4767.300000011921","8.60","img/314/2.5/0.5/bw/001.png","","","natural"
"","","","","","animation","180","2221654","0.0-180.0","1920x1080","","6862.800000011921","12.04","img/238/4.5/0.66667/bw/001.png","","","natural"
"","","","","","animation","181","2228149","0.0-181.0","1920x1080","","6494.300000011921","39.55","img/117/4.5/1/bw/001.png","","","natural"
"","","","","","animation","182","2233990","0.0-182.0","1920x1080","","5839.5","23.28","img/314/3.5/0.5/bw/001.png","","","natural"
"","","","","","animation","183","2241021","0.0-183.0","1920x1080","","7031","58.60","img/117/3.5/1.5/bw/001.png","","","natural"
"","","","","","animation","184","2248565","0.0-184.0","1920x1080","","7542.5","90.74","img/117/5.5/0.5/bw/001.png","","","natural"
"","","","","","animation","185","2259082","0.0-185.0","1920x1080","","10515.799999952316","2","img/238/2.5/1/bw/001.png","","","natural"
"","","","","","animation","186","2264141","0.0-186.0","1920x1080","","5057.5","67","img/117/5.5/0.66667/bw/001.png","","","natural"
"","","","","","animation","187","2268927","0.0-187.0","1920x1080","","4784.5","87.96","img/117/5.5/1/bw/001.png","","","natural"
"","","","","","animation","188","2273149","0.0-188.0","1920x1080","","4220.5","75.66","img/238/5.5/1/bw/001.png","","","natural"
"","","","","","animation","189","2279589","0.0-189.0","1920x1080","","6439.399999976158","60.85","img/314/3.5/2/bw/001.png","","","natural"
"","","","","","animation","190","2289501","0.0-190.0","1920x1080","","9910.400000035763","51.98","img/117/4/0.66667/bw/001.png","","","natural"
"","","","","","animation","191","2295966","0.0-191.0","1920x1080","","6463.300000011921","46.83","img/117/3.5/1/bw/001.png","","","natural"
"","","","","","animation","192","2303270","0.0-192.0","1920x1080","","7303","65.74","img/314/5.5/0.5/bw/001.png","","","natural"
"","","","","","animation","193","2308717","0.0-193.0","1920x1080","","5445.5","75.66","img/314/4/2/bw/001.png","","","natural"
"","","","","","animation","194","2315516","0.0-194.0","1920x1080","","6797.800000011921","73.68","img/117/4.5/1.5/bw/001.png","","","natural"
"","","","","","animation","195","2321438","0.0-195.0","1920x1080","","5921.300000011921","62.17","img/117/4/2/bw/001.png","","","natural"
"","","","","","animation","196","2332082","0.0-196.0","1920x1080","","10642.899999976158","100","img/238/5.5/2/bw/001.png","","","natural"
"","","","","","animation","197","2343349","0.0-197.0","1920x1080","","11265.300000011921","21","img/314/2.5/2/bw/001.png","","","natural"
"","","","","","animation","198","2351850","0.0-198.0","1920x1080","","8499.899999976158","37.70","img/238/4/1/bw/001.png","","","natural"
"","","","","","animation","199","2359754","0.0-199.0","1920x1080","","7904.100000023842","89.02","img/238/5.5/0.5/bw/001.png","","","natural"
"","","","","","animation","200","2367748","0.0-200.0","1920x1080","","7992.900000035763","61.24","img/117/4.5/2/bw/001.png","","","natural"
"","","","","","animation","201","2375974","0.0-201.0","1920x1080","","8224.600000023842","78.84","img/117/5.5/2/bw/001.png","","","natural"
"","","","","","animation","202","2384301","0.0-202.0","1920x1080","","8326.599999964237","13.10","img/238/2.5/0.66667/bw/001.png","","","natural"
"","","","","","animation","203","2389638","0.0-203.0","1920x1080","","5335.200000047684","10.05","img/238/4.5/0.5/bw/001.png","","","natural"
"","","","","","animation","204","2394716","0.0-204.0","1920x1080","","5076.400000035763","31.88","img/314/4.5/1/bw/001.png","","","natural"
"","","","","","animation","205","2429255","0.0-205.0","1920x1080","","34537","63.36","img/314/4.5/1.5/bw/001.png","","","natural"
"","","","","","animation","206","2436566","0.0-206.0","1920x1080","","7310.5","69.71","img/314/4.5/2/bw/001.png","","","natural"
"","","","","","animation","207","2444916","0.0-207.0","1920x1080","","8348.400000035763","14","img/314/3.5/0.66667/bw/001.png","","","natural"
"","","","","","animation","208","2453399","0.0-208.0","1920x1080","","8481.5","51.19","img/117/3.5/2/bw/001.png","","","natural"
"","","","","","animation","209","2459588","0.0-209.0","1920x1080","","6187.5","56.88","img/238/4.5/1/bw/001.png","","","natural"
"","","","","","animation","210","2481249","0.0-210.0","1920x1080","","21659.100000023842","81.08","img/314/5.5/2/bw/001.png","","","natural"
"","","","","","animation","211","2486766","0.0-211.0","1920x1080","","5515.800000011921","3.84","img/117/2.5/0.5/bw/001.png","","","natural"
"","","","","","animation","212","2491038","0.0-212.0","1920x1080","","4271.199999988079","27.12","img/238/3.5/1/bw/001.png","","","natural"
"","","","","","animation","213","2495054","0.0-213.0","1920x1080","","4014.699999988079","29.37","img/314/3.5/1.5/bw/001.png","","","natural"
"","","","","","animation","214","2504190","0.0-214.0","1920x1080","","9134.800000011921","25.93","img/238/3.5/1.5/bw/001.png","","","natural"
"","","","","","animation","215","2510332","0.0-215.0","1920x1080","","6140","8.47","img/238/4/0.66667/bw/001.png","","","natural"
"","","","","","animation","216","2519134","0.0-216.0","1920x1080","","8800.399999976158","51.98","img/238/4.5/1.5/bw/001.png","","","natural"
"","","","","","animation","217","2534132","0.0-217.0","1920x1080","","14996.400000035763","40.48","img/314/4/1.5/bw/001.png","","","natural"
"","","","","","animation","218","2545749","0.0-218.0","1920x1080","","11615.600000023842","20.77","img/314/4.5/0.66667/bw/001.png","","","natural"
"","","","","","animation","219","2553399","0.0-219.0","1920x1080","","7648.699999988079","99","img/238/5.5/1.5/bw/001.png","","","natural"
"","","","","","animation","220","2558287","0.0-220.0","1920x1080","","4886.300000011921","17.59","img/238/2.5/1.5/bw/001.png","","","natural"
"","","","","","animation","221","2564039","0.0-221.0","1920x1080","","5750.900000035763","80.95","img/314/5.5/0.66667/bw/001.png","","","natural"
"","","","","","animation","222","2570199","0.0-222.0","1920x1080","","6158.600000023842","24.07","img/117/2.5/1/bw/001.png","","","natural"
"","","","","","animation","223","2576134","0.0-223.0","1920x1080","","5934.599999964237","26.85","img/314/4/1/bw/001.png","","","natural"
"","","","","","animation","224","2593635","0.0-224.0","1920x1080","","17498.900000035763","36.24","img/314/3.5/1/bw/001.png","","","natural"
"","","","","","animation","225","2598487","0.0-225.0","1920x1080","","4851.199999988079","27.91","img/238/3.5/0.66667/bw/001.png","","","natural"
"","","","","","animation","226","2603782","0.0-226.0","1920x1080","","5294","86.24","img/314/5.5/1/bw/001.png","","","natural"
"","","","","","animation","227","2611682","0.0-227.0","1920x1080","","7898.899999976158","19.97","img/314/4/0.5/bw/001.png","","","natural"
"","","","","","animation","228","2616216","0.0-228.0","1920x1080","","4532.400000035763","36.90","img/117/4/1.5/bw/001.png","","","natural"
"","","","","","animation","229","2623550","0.0-229.0","1920x1080","","7333.699999988079","30.82","img/117/4/1/bw/001.png","","","natural"
"","","","","","animation","230","2632316","0.0-230.0","1920x1080","","8763.600000023842","85.58","img/314/5.5/1.5/bw/001.png","","","natural"
"","","","","","animation","231","2641232","0.0-231.0","1920x1080","","8914.699999988079","41.67","img/314/4.5/0.5/bw/001.png","","","natural"
"","","","","","animation","232","2651839","0.0-232.0","1920x1080","","10605.600000023842","71.03","img/238/5.5/0.66667/bw/001.png","","","natural"
"","","","","","animation","233","2662967","0.0-233.0","1920x1080","","11125.400000035763","39.55","img/238/4/2/bw/001.png","","","natural"
"","","","","","animation","234","2667266","0.0-234.0","1920x1080","","4297.700000047684","19.44","img/117/2.5/2/bw/001.png","","","natural"
"","","","","","animation","235","2674583","0.0-235.0","1920x1080","","7315.699999988079","32","img/238/3.5/2/bw/001.png","","","natural"
"","","","","","html-button-response","236","2695424","0.0-236.0","1920x1080","","20839.19999998808","","<div class=""intro"">You are about to view a new series of animations.<br><br></div><div class=""intro"">You will evaluate them based on a different descriptor.<br><br></div><div class=""intro"">Move the slider to indicate how <strong style=""text-transform:capitalize"">INTERESTING</strong> you find each animation.<br><br></div><div class=""intro"">0 = Least Interesting<br></div><div class=""intro"">1 = Most Interesting<br><br></div><div class=""intro"">Remember to use the <strong><em>entire range</em></strong> of the slider to make your ratings.<br></div><div class=""intro"">Please <strong><em>take your time</em></strong> and carefully consider each rating you make.<br><br></div>","0","",""
"","","","","","call-function","237","2695426","0.0-237.0","1920x1080","","","","","","",""
"","","","","","animation","238","2701849","0.0-238.0","1920x1080","","6423.100000023842","59.52","img/238/3.5/1.5/bw/001.png","","","interesting"
"","","","","","animation","239","2707167","0.0-239.0","1920x1080","","5316.5","70.63","img/314/3.5/1/bw/001.png","","","interesting"
"","","","","","animation","240","2713999","0.0-240.0","1920x1080","","6830.899999976158","12.17","img/117/2.5/0.5/bw/001.png","","","interesting"
"","","","","","animation","241","2717582","0.0-241.0","1920x1080","","3582.300000011921","90.21","img/238/5.5/1/bw/001.png","","","interesting"
"","","","","","animation","242","2721499","0.0-242.0","1920x1080","","3915.199999988079","77.91","img/314/4.5/1.5/bw/001.png","","","interesting"
"","","","","","animation","243","2728919","0.0-243.0","1920x1080","","7419","41.53","img/238/4.5/0.66667/bw/001.png","","","interesting"
"","","","","","animation","244","2746081","0.0-244.0","1920x1080","","17160.900000035763","23","img/314/2.5/2/bw/001.png","","","interesting"
"","","","","","animation","245","2750798","0.0-245.0","1920x1080","","4715.900000035763","32.94","img/314/3.5/0.5/bw/001.png","","","interesting"
"","","","","","animation","246","2757165","0.0-246.0","1920x1080","","6365.300000011921","25.66","img/238/3.5/1/bw/001.png","","","interesting"
"","","","","","animation","247","2764421","0.0-247.0","1920x1080","","7254.800000011921","45.24","img/314/4.5/0.66667/bw/001.png","","","interesting"
"","","","","","animation","248","2770573","0.0-248.0","1920x1080","","6150.800000011921","30.42","img/238/3.5/0.66667/bw/001.png","","","interesting"
"","","","","","animation","249","2776904","0.0-249.0","1920x1080","","6329","57.94","img/238/4.5/1/bw/001.png","","","interesting"
"","","","","","animation","250","2782491","0.0-250.0","1920x1080","","5585.599999964237","92.99","img/238/5.5/2/bw/001.png","","","interesting"
"","","","","","animation","251","2788455","0.0-251.0","1920x1080","","5962.200000047684","34.79","img/314/3.5/1.5/bw/001.png","","","interesting"
"","","","","","animation","252","2792855","0.0-252.0","1920x1080","","4398.800000011921","74.47","img/238/5.5/0.66667/bw/001.png","","","interesting"
"","","","","","animation","253","2798682","0.0-253.0","1920x1080","","5825.600000023842","86.51","img/238/4.5/2/bw/001.png","","","interesting"
"","","","","","animation","254","2805078","0.0-254.0","1920x1080","","6393.899999976158","23.02","img/117/2.5/2/bw/001.png","","","interesting"
"","","","","","animation","255","2812815","0.0-255.0","1920x1080","","7734.299999952316","69.84","img/117/4/2/bw/001.png","","","interesting"
"","","","","","animation","256","2819366","0.0-256.0","1920x1080","","6549.300000011921","15.21","img/314/4/0.5/bw/001.png","","","interesting"
"","","","","","animation","257","2823015","0.0-257.0","1920x1080","","3647.800000011921","17.33","img/117/3.5/2/bw/001.png","","","interesting"
"","","","","","animation","258","2826816","0.0-258.0","1920x1080","","3799.300000011921","46.69","img/238/4/2/bw/001.png","","","interesting"
"","","","","","animation","259","2830389","0.0-259.0","1920x1080","","3572.800000011921","65.21","img/314/5.5/1/bw/001.png","","","interesting"
"","","","","","animation","260","2836951","0.0-260.0","1920x1080","","6560.199999988079","2","img/238/2.5/0.66667/bw/001.png","","","interesting"
"","","","","","animation","261","2842399","0.0-261.0","1920x1080","","5446.599999964237","10.98","img/238/3.5/0.5/bw/001.png","","","interesting"
"","","","","","animation","262","2848719","0.0-262.0","1920x1080","","6318.700000047684","66.27","img/117/4.5/1.5/bw/001.png","","","interesting"
"","","","","","animation","263","2858016","0.0-263.0","1920x1080","","9295.100000023842","56.35","img/238/4/0.66667/bw/001.png","","","interesting"
"","","","","","animation","264","2863858","0.0-264.0","1920x1080","","5840.5","15.21","img/117/2.5/1.5/bw/001.png","","","interesting"
"","","","","","animation","265","2878840","0.0-265.0","1920x1080","","14980.399999976158","46","img/117/4.5/1/bw/001.png","","","interesting"
"","","","","","animation","266","2885443","0.0-266.0","1920x1080","","6601","21.16","img/238/2.5/1.5/bw/001.png","","","interesting"
"","","","","","animation","267","2894199","0.0-267.0","1920x1080","","8754.300000011921","43","img/117/4/1/bw/001.png","","","interesting"
"","","","","","animation","268","2900656","0.0-268.0","1920x1080","","6455.5","7","img/238/2.5/1/bw/001.png","","","interesting"
"","","","","","animation","269","2909150","0.0-269.0","1920x1080","","8491.899999976158","39.02","img/314/4/2/bw/001.png","","","interesting"
"","","","","","animation","270","2939449","0.0-270.0","1920x1080","","30298.69999998808","71.96","img/117/3.5/1.5/bw/001.png","","","interesting"
"","","","","","animation","271","2945672","0.0-271.0","1920x1080","","6221.699999988079","38.10","img/238/2.5/2/bw/001.png","","","interesting"
"","","","","","animation","272","2949433","0.0-272.0","1920x1080","","3759","24.21","img/314/3.5/0.66667/bw/001.png","","","interesting"
"","","","","","animation","273","2958240","0.0-273.0","1920x1080","","8806.199999988079","56.75","img/314/4/1/bw/001.png","","","interesting"
"","","","","","animation","274","2965936","0.0-274.0","1920x1080","","7693.600000023842","35","img/238/4/1.5/bw/001.png","","","interesting"
"","","","","","animation","275","2972688","0.0-275.0","1920x1080","","6750.699999988079","91.01","img/238/5.5/0.5/bw/001.png","","","interesting"
"","","","","","animation","276","2976290","0.0-276.0","1920x1080","","3600","66.80","img/314/4/1.5/bw/001.png","","","interesting"
"","","","","","animation","277","2981235","0.0-277.0","1920x1080","","4944","55.29","img/117/4/1.5/bw/001.png","","","interesting"
"","","","","","animation","278","2986808","0.0-278.0","1920x1080","","5571.5","50.26","img/314/3.5/2/bw/001.png","","","interesting"
"","","","","","animation","279","2996920","0.0-279.0","1920x1080","","10110.399999976158","62.43","img/238/4/1/bw/001.png","","","interesting"
"","","","","","animation","280","3015939","0.0-280.0","1920x1080","","19017.5","69.58","img/117/3.5/0.66667/bw/001.png","","","interesting"
"","","","","","animation","281","3020721","0.0-281.0","1920x1080","","4781.199999988079","96","img/117/5.5/1/bw/001.png","","","interesting"
"","","","","","animation","282","3024993","0.0-282.0","1920x1080","","4270.399999976158","83.47","img/238/4.5/1.5/bw/001.png","","","interesting"
"","","","","","animation","283","3031122","0.0-283.0","1920x1080","","6126.599999964237","48.28","img/117/3.5/1/bw/001.png","","","interesting"
"","","","","","animation","284","3039170","0.0-284.0","1920x1080","","8046.600000023842","17","img/117/2.5/1/bw/001.png","","","interesting"
"","","","","","animation","285","3042341","0.0-285.0","1920x1080","","3170.7000000476837","9.13","img/314/2.5/0.66667/bw/001.png","","","interesting"
"","","","","","animation","286","3052765","0.0-286.0","1920x1080","","10422.399999976158","68","img/314/4.5/1/bw/001.png","","","interesting"
"","","","","","animation","287","3062232","0.0-287.0","1920x1080","","9465.5","3.97","img/117/2.5/0.66667/bw/001.png","","","interesting"
"","","","","","animation","288","3065205","0.0-288.0","1920x1080","","2972.100000023842","1.59","img/314/2.5/0.5/bw/001.png","","","interesting"
"","","","","","animation","289","3069936","0.0-289.0","1920x1080","","4728.699999988079","72.35","img/117/5.5/0.5/bw/001.png","","","interesting"
"","","","","","animation","290","3074568","0.0-290.0","1920x1080","","4628.900000035763","69.05","img/117/4.5/0.66667/bw/001.png","","","interesting"
"","","","","","animation","291","3079840","0.0-291.0","1920x1080","","5269.699999988079","92.72","img/238/5.5/1.5/bw/001.png","","","interesting"
"","","","","","animation","292","3084387","0.0-292.0","1920x1080","","4545.5","40.21","img/238/4/0.5/bw/001.png","","","interesting"
"","","","","","animation","293","3088872","0.0-293.0","1920x1080","","4483.299999952316","1.32","img/238/2.5/0.5/bw/001.png","","","interesting"
"","","","","","animation","294","3094673","0.0-294.0","1920x1080","","5799.599999964237","75.26","img/117/4.5/2/bw/001.png","","","interesting"
"","","","","","animation","295","3100472","0.0-295.0","1920x1080","","5798","34.79","img/314/2.5/1.5/bw/001.png","","","interesting"
"","","","","","animation","296","3107877","0.0-296.0","1920x1080","","7403.399999976158","41","img/117/4/0.66667/bw/001.png","","","interesting"
"","","","","","animation","297","3116651","0.0-297.0","1920x1080","","8771.900000035763","39.15","img/314/4/0.66667/bw/001.png","","","interesting"
"","","","","","animation","298","3125688","0.0-298.0","1920x1080","","9036.400000035763","77","img/314/5.5/0.5/bw/001.png","","","interesting"
"","","","","","animation","299","3129837","0.0-299.0","1920x1080","","4145.399999976158","56.75","img/117/4/0.5/bw/001.png","","","interesting"
"","","","","","animation","300","3143568","0.0-300.0","1920x1080","","13730.100000023842","84.39","img/314/5.5/1.5/bw/001.png","","","interesting"
"","","","","","animation","301","3151352","0.0-301.0","1920x1080","","7782.900000035763","89.42","img/314/5.5/0.66667/bw/001.png","","","interesting"
"","","","","","animation","302","3155381","0.0-302.0","1920x1080","","4027.800000011921","86.24","img/314/5.5/2/bw/001.png","","","interesting"
"","","","","","animation","303","3161783","0.0-303.0","1920x1080","","6400.100000023842","69.97","img/314/4.5/2/bw/001.png","","","interesting"
"","","","","","animation","304","3167889","0.0-304.0","1920x1080","","6103.199999988079","52","img/238/4.5/0.5/bw/001.png","","","interesting"
"","","","","","animation","305","3177665","0.0-305.0","1920x1080","","9775.199999988079","64","img/117/5.5/0.66667/bw/001.png","","","interesting"
"","","","","","animation","306","3186138","0.0-306.0","1920x1080","","8470.600000023842","35.45","img/117/4.5/0.5/bw/001.png","","","interesting"
"","","","","","animation","307","3189641","0.0-307.0","1920x1080","","3502","77.78","img/117/5.5/1.5/bw/001.png","","","interesting"
"","","","","","animation","308","3192449","0.0-308.0","1920x1080","","2806.699999988079","10.05","img/314/2.5/1/bw/001.png","","","interesting"
"","","","","","animation","309","3200688","0.0-309.0","1920x1080","","8237.900000035763","33","img/238/3.5/2/bw/001.png","","","interesting"
"","","","","","animation","310","3206794","0.0-310.0","1920x1080","","6103.800000011921","24.21","img/314/4.5/0.5/bw/001.png","","","interesting"
"","","","","","animation","311","3213450","0.0-311.0","1920x1080","","6653.399999976158","18.39","img/117/3.5/0.5/bw/001.png","","","interesting"
"","","","","","animation","312","3220933","0.0-312.0","1920x1080","","7480.400000035763","87.17","img/117/5.5/2/bw/001.png","","","interesting"
"","","","","","html-button-response","313","3240553","0.0-313.0","1920x1080","","19617","","<div class=""intro"">You are about to view a new series of animations.<br><br></div><div class=""intro"">You will evaluate them based on a different descriptor.<br><br></div><div class=""intro"">Move the slider to indicate how <strong style=""text-transform:capitalize"">APPEALING</strong> you find each animation.<br><br></div><div class=""intro"">0 = Least Appealing<br></div><div class=""intro"">1 = Most Appealing<br><br></div><div class=""intro"">Remember to use the <strong><em>entire range</em></strong> of the slider to make your ratings.<br></div><div class=""intro"">Please <strong><em>take your time</em></strong> and carefully consider each rating you make.<br><br></div>","0","",""
"","","","","","call-function","314","3240558","0.0-314.0","1920x1080","","","","","","",""
"","","","","","animation","315","3245873","0.0-315.0","1920x1080","","5314.799999952316","46.69","img/117/4.5/1/bw/001.png","","","appealing"
"","","","","","animation","316","3249758","0.0-316.0","1920x1080","","3883.5","32.80","img/314/3.5/1.5/bw/001.png","","","appealing"
"","","","","","animation","317","3253249","0.0-317.0","1920x1080","","3489","13","img/238/3.5/0.66667/bw/001.png","","","appealing"
"","","","","","animation","318","3257353","0.0-318.0","1920x1080","","4102.400000035763","80.42","img/238/4.5/1.5/bw/001.png","","","appealing"
"","","","","","animation","319","3260398","0.0-319.0","1920x1080","","3043.5","57.80","img/117/4/2/bw/001.png","","","appealing"
"","","","","","animation","320","3268589","0.0-320.0","1920x1080","","8189.5","51.72","img/238/3.5/2/bw/001.png","","","appealing"
"","","","","","animation","321","3272506","0.0-321.0","1920x1080","","3916.400000035763","60","img/314/4.5/1.5/bw/001.png","","","appealing"
"","","","","","animation","322","3277603","0.0-322.0","1920x1080","","5095.599999964237","40","img/238/4/0.5/bw/001.png","","","appealing"
"","","","","","animation","323","3281098","0.0-323.0","1920x1080","","3493.600000023842","40.34","img/314/4/0.5/bw/001.png","","","appealing"
"","","","","","animation","324","3289565","0.0-324.0","1920x1080","","8465.5","88.23","img/238/5.5/1.5/bw/001.png","","","appealing"
"","","","","","animation","325","3292737","0.0-325.0","1920x1080","","3169.2000000476837","98","img/117/5.5/0.5/bw/001.png","","","appealing"
"","","","","","animation","326","3297385","0.0-326.0","1920x1080","","4646.699999988079","82.80","img/314/5.5/1.5/bw/001.png","","","appealing"
"","","","","","animation","327","3301850","0.0-327.0","1920x1080","","4463.800000011921","2.51","img/117/2.5/0.66667/bw/001.png","","","appealing"
"","","","","","animation","328","3305874","0.0-328.0","1920x1080","","4022.5","19.97","img/314/3.5/0.5/bw/001.png","","","appealing"
"","","","","","animation","329","3310457","0.0-329.0","1920x1080","","4581.300000011921","32.54","img/238/4/1/bw/001.png","","","appealing"
"","","","","","animation","330","3313320","0.0-330.0","1920x1080","","2862.399999976158","4.63","img/238/2.5/0.66667/bw/001.png","","","appealing"
"","","","","","animation","331","3319500","0.0-331.0","1920x1080","","6177","2.38","img/238/2.5/0.5/bw/001.png","","","appealing"
"","","","","","animation","332","3323986","0.0-332.0","1920x1080","","4485","44.05","img/117/3.5/1/bw/001.png","","","appealing"
"","","","","","animation","333","3333041","0.0-333.0","1920x1080","","9054.099999964237","34","img/117/2.5/1.5/bw/001.png","","","appealing"
"","","","","","animation","334","3339033","0.0-334.0","1920x1080","","5990.099999964237","35.98","img/238/2.5/1.5/bw/001.png","","","appealing"
"","","","","","animation","335","3342499","0.0-335.0","1920x1080","","3464.400000035763","17.59","img/117/2.5/1/bw/001.png","","","appealing"
"","","","","","animation","336","3346421","0.0-336.0","1920x1080","","3921.100000023842","54.76","img/238/4.5/1/bw/001.png","","","appealing"
"","","","","","animation","337","3350738","0.0-337.0","1920x1080","","4313.199999988079","25.53","img/314/2.5/1.5/bw/001.png","","","appealing"
"","","","","","animation","338","3357569","0.0-338.0","1920x1080","","6829.5","32","img/238/4.5/0.66667/bw/001.png","","","appealing"
"","","","","","animation","339","3365373","0.0-339.0","1920x1080","","7801.300000011921","11.64","img/238/2.5/1/bw/001.png","","","appealing"
"","","","","","animation","340","3368276","0.0-340.0","1920x1080","","2901.300000011921","88.76","img/117/5.5/1.5/bw/001.png","","","appealing"
"","","","","","animation","341","3372017","0.0-341.0","1920x1080","","3740.300000011921","80.03","img/238/4.5/2/bw/001.png","","","appealing"
"","","","","","animation","342","3375567","0.0-342.0","1920x1080","","3547.699999988079","98","img/238/5.5/1/bw/001.png","","","appealing"
"","","","","","animation","343","3380050","0.0-343.0","1920x1080","","4481.300000011921","100","img/238/5.5/0.66667/bw/001.png","","","appealing"
"","","","","","animation","344","3383601","0.0-344.0","1920x1080","","3549.199999988079","92.46","img/314/5.5/1/bw/001.png","","","appealing"
"","","","","","animation","345","3388082","0.0-345.0","1920x1080","","4479.400000035763","0","img/314/2.5/0.66667/bw/001.png","","","appealing"
"","","","","","animation","346","3391850","0.0-346.0","1920x1080","","3765.400000035763","60.19","img/314/3.5/2/bw/001.png","","","appealing"
"","","","","","animation","347","3394700","0.0-347.0","1920x1080","","2848.5","66.40","img/117/3.5/2/bw/001.png","","","appealing"
"","","","","","animation","348","3397953","0.0-348.0","1920x1080","","3252.2000000476837","9.52","img/238/3.5/0.5/bw/001.png","","","appealing"
"","","","","","animation","349","3402185","0.0-349.0","1920x1080","","4230.600000023842","61.38","img/117/4.5/0.66667/bw/001.png","","","appealing"
"","","","","","animation","350","3405001","0.0-350.0","1920x1080","","2814.5","33.07","img/238/4/2/bw/001.png","","","appealing"
"","","","","","animation","351","3411753","0.0-351.0","1920x1080","","6750.800000011921","54","img/117/4/1.5/bw/001.png","","","appealing"
"","","","","","animation","352","3416235","0.0-352.0","1920x1080","","4480.100000023842","17.59","img/238/4.5/0.5/bw/001.png","","","appealing"
"","","","","","animation","353","3420339","0.0-353.0","1920x1080","","4101.899999976158","0.93","img/117/2.5/0.5/bw/001.png","","","appealing"
"","","","","","animation","354","3425266","0.0-354.0","1920x1080","","4925.100000023842","70.24","img/117/4.5/1.5/bw/001.png","","","appealing"
"","","","","","animation","355","3428737","0.0-355.0","1920x1080","","3469.699999988079","58.86","img/238/3.5/1/bw/001.png","","","appealing"
"","","","","","animation","356","3433939","0.0-356.0","1920x1080","","5200.100000023842","78.57","img/238/5.5/2/bw/001.png","","","appealing"
"","","","","","animation","357","3442099","0.0-357.0","1920x1080","","8157.600000023842","72.75","img/314/5.5/2/bw/001.png","","","appealing"
"","","","","","animation","358","3450283","0.0-358.0","1920x1080","","8182.5","90.21","img/238/5.5/0.5/bw/001.png","","","appealing"
"","","","","","animation","359","3455785","0.0-359.0","1920x1080","","5500.899999976158","68.92","img/117/5.5/0.66667/bw/001.png","","","appealing"
"","","","","","animation","360","3462132","0.0-360.0","1920x1080","","6345.699999988079","36.11","img/117/4/0.66667/bw/001.png","","","appealing"
"","","","","","animation","361","3466661","0.0-361.0","1920x1080","","4527.299999952316","32.28","img/314/4.5/2/bw/001.png","","","appealing"
"","","","","","animation","362","3481038","0.0-362.0","1920x1080","","14375.899999976158","62.17","img/314/4.5/1/bw/001.png","","","appealing"
"","","","","","animation","363","3483700","0.0-363.0","1920x1080","","2659.899999976158","5.29","img/117/3.5/0.5/bw/001.png","","","appealing"
"","","","","","animation","364","3486953","0.0-364.0","1920x1080","","3252.300000011921","23.28","img/314/3.5/1/bw/001.png","","","appealing"
"","","","","","animation","365","3492282","0.0-365.0","1920x1080","","5327.099999964237","15.21","img/314/3.5/0.66667/bw/001.png","","","appealing"
"","","","","","animation","366","3496434","0.0-366.0","1920x1080","","4149.800000011921","19","img/314/4.5/0.5/bw/001.png","","","appealing"
"","","","","","animation","367","3499450","0.0-367.0","1920x1080","","3015.2000000476837","0","img/314/2.5/0.5/bw/001.png","","","appealing"
"","","","","","animation","368","3502202","0.0-368.0","1920x1080","","2749.599999964237","18.92","img/314/2.5/2/bw/001.png","","","appealing"
"","","","","","animation","369","3508416","0.0-369.0","1920x1080","","6212.800000011921","74.34","img/117/4.5/2/bw/001.png","","","appealing"
"","","","","","animation","370","3515866","0.0-370.0","1920x1080","","7448.399999976158","42","img/314/4/0.66667/bw/001.png","","","appealing"
"","","","","","animation","371","3519437","0.0-371.0","1920x1080","","3569.5","35.05","img/314/4/1/bw/001.png","","","appealing"
"","","","","","animation","372","3525576","0.0-372.0","1920x1080","","6137.700000047684","40.21","img/117/3.5/1.5/bw/001.png","","","appealing"
"","","","","","animation","373","3530867","0.0-373.0","1920x1080","","5288.900000035763","18","img/238/2.5/2/bw/001.png","","","appealing"
"","","","","","animation","374","3538418","0.0-374.0","1920x1080","","7549","48","img/238/4/0.66667/bw/001.png","","","appealing"
"","","","","","animation","375","3542221","0.0-375.0","1920x1080","","3802.100000023842","42.06","img/117/4.5/0.5/bw/001.png","","","appealing"
"","","","","","animation","376","3547899","0.0-376.0","1920x1080","","5676.800000011921","38","img/238/4/1.5/bw/001.png","","","appealing"
"","","","","","animation","377","3552333","0.0-377.0","1920x1080","","4432.700000047684","59","img/117/4/1/bw/001.png","","","appealing"
"","","","","","animation","378","3558871","0.0-378.0","1920x1080","","6536.599999964237","65.21","img/314/5.5/0.66667/bw/001.png","","","appealing"
"","","","","","animation","379","3565009","0.0-379.0","1920x1080","","6136.199999988079","21.43","img/117/2.5/2/bw/001.png","","","appealing"
"","","","","","animation","380","3570542","0.0-380.0","1920x1080","","5531.300000011921","71.43","img/314/4/1.5/bw/001.png","","","appealing"
"","","","","","animation","381","3578534","0.0-381.0","1920x1080","","7990.399999976158","67.20","img/117/5.5/2/bw/001.png","","","appealing"
"","","","","","animation","382","3586167","0.0-382.0","1920x1080","","7627","15.61","img/314/4.5/0.66667/bw/001.png","","","appealing"
"","","","","","animation","383","3594467","0.0-383.0","1920x1080","","8298.399999976158","72.88","img/314/5.5/0.5/bw/001.png","","","appealing"
"","","","","","animation","384","3598050","0.0-384.0","1920x1080","","3581.699999988079","4.10","img/314/2.5/1/bw/001.png","","","appealing"
"","","","","","animation","385","3602154","0.0-385.0","1920x1080","","4102.399999976158","7.80","img/117/3.5/0.66667/bw/001.png","","","appealing"
"","","","","","animation","386","3606933","0.0-386.0","1920x1080","","4776.299999952316","33.99","img/238/3.5/1.5/bw/001.png","","","appealing"
"","","","","","animation","387","3614128","0.0-387.0","1920x1080","","7193.800000011921","88.62","img/314/4/2/bw/001.png","","","appealing"
"","","","","","animation","388","3622327","0.0-388.0","1920x1080","","8198.5","18","img/117/4/0.5/bw/001.png","","","appealing"
"","","","","","animation","389","3626243","0.0-389.0","1920x1080","","3914.399999976158","89.29","img/117/5.5/1/bw/001.png","","","appealing"
"","","","","","html-button-response","390","3667076","0.0-390.0","1920x1080","","40830.80000001192","","<strong>Study Debriefing</strong><br><p class=""debrief""><strong>Background:</strong> The patterns you rated are called <em>fractals</em>. The term fractal describes a class of irregular curves or shapes for which any suitably chosen part is similar in shape to a given larger or smaller part when magnified or reduced to the same size. Fractal properties are found throughout the natural and manmade world. The series of animations you saw today displayed animated fractal patterns of a varying complexity.</p><p class=""debrief""><strong>Purpose of this study:</strong> We hope to better understand how the perception of static fractals differs from the perception of animated fractals, and how the speed of the animated patterns influences people&apos;s perception of them. Fractals allow us to study the perception of aesthetic properties (e.g. the perceived level of beauty in an image) without using recognizable content, which makes them an excellent tool for studying abstract aesthetic judgement.</p><p class=""debrief""><strong>Your part:</strong> Your participation has helped us to further understand how humans perceive these patterns across different levels of speed and complexity. This research with allow us to better understand how the visual system and brain process our ever-changing visual environments.<p class=""debrief""><strong>Feedback and Further information:</strong> If you have additional questions about this study, please feel free to ask the researcher, Nathan Gonzales-Hess at nhess @ uoregon.edu. If you have any questions concerning your rights as a research participant, please contact Research Compliance Services, 5237 University of Oregon, Eugene, OR 97403, 541-346-2510, or email researchCompliance @ uoregon.edu. You can also email the Human Subjects Coordinator for psychology and linguistics research at hscoord @ uoregon.edu. ","0","",""
"","","","","","html-button-response","391","3668682","0.0-391.0","1920x1080","","1601.300000011921","","Thank you for participating in this study. <br>Please click below to finish the experiment and submit your responses.<br><br>","0","",""
"true","","","","","fullscreen","392","3669684","0.0-392.0","1920x1080","16:20 23/5/2022","","","","","",""
