"success","timeout","failed_images","failed_audio","failed_video","trial_type","trial_index","time_elapsed","internal_node_id","resolution","timeStamp","rt","response","stimulus","button_pressed","value","descriptor"
"true","false","[]","[]","[]","preload","0","52861","0.0-0.0","1920x1080","","","","","","",""
"true","false","[]","[]","[]","preload","1","102131","0.0-1.0","1920x1080","","","","","","",""
"true","false","[]","[]","[]","preload","2","153397","0.0-2.0","1920x1080","","","","","","",""
"true","","","","","fullscreen","3","165643","0.0-3.0","1920x1080","13:39 2/6/2022","","","","","",""
"","","","","","survey-html-form","4","173737","0.0-4.0","1920x1080","","8091.299999952316","{""age"":""20"",""gender"":""Female""}","","","",""
"","","","","","html-button-response","5","185743","0.0-5.0","1920x1080","","12006.799999952316","","<div class=""complex"">You are going to see a series of animations.<br><br></div><div class=""complex"">Move the slider to indicate how <strong style=""text-transform:capitalize"">COMPLEX</strong> you find each animation.<br><br></div><div class=""complex"">0 = Least Complex<br></div><div class=""complex"">1 = Most Complex<br><br></div><div class=""complex"">Remember to use the <strong><em>entire range</em></strong> of the slider to make your ratings.<br></div><div class=""complex"">Please <strong><em>take your time</em></strong> and carefully consider each rating you make.<br><br></div><div class=""complex"">The study has five sections and will take about 45 minutes to complete.<br><br></div>","0","",""
"","","","","","call-function","6","185743","0.0-6.0","1920x1080","","","","","","",""
"","","","","","animation","7","201030","0.0-7.0","1920x1080","","15284.299999952316","60.32","img/314/4/2/bw/001.png","","","complex"
"","","","","","animation","8","211606","0.0-8.0","1920x1080","","10574.5","78.57","img/238/2.5/2/bw/001.png","","","complex"
"","","","","","animation","9","217126","0.0-9.0","1920x1080","","5516.799999952316","62.30","img/238/3.5/1.5/bw/001.png","","","complex"
"","","","","","animation","10","221670","0.0-10.0","1920x1080","","4541.5","78.04","img/314/2.5/2/bw/001.png","","","complex"
"","","","","","animation","11","241095","0.0-11.0","1920x1080","","19423.60000014305","88.36","img/238/4/1.5/bw/001.png","","","complex"
"","","","","","animation","12","247193","0.0-12.0","1920x1080","","6094.599999904633","93.39","img/117/3.5/0.5/bw/001.png","","","complex"
"","","","","","animation","13","251865","0.0-13.0","1920x1080","","4670.700000047684","82.01","img/117/3.5/1/bw/001.png","","","complex"
"","","","","","animation","14","265073","0.0-14.0","1920x1080","","13207.599999904633","73.68","img/314/4/1.5/bw/001.png","","","complex"
"","","","","","animation","15","272289","0.0-15.0","1920x1080","","7214.900000095367","25.00","img/238/4.5/1/bw/001.png","","","complex"
"","","","","","animation","16","283514","0.0-16.0","1920x1080","","11224.399999856949","9.66","img/238/5.5/0.66667/bw/001.png","","","complex"
"","","","","","animation","17","290129","0.0-17.0","1920x1080","","6614.200000047684","49","img/314/4.5/0.5/bw/001.png","","","complex"
"","","","","","animation","18","293953","0.0-18.0","1920x1080","","3822.7000000476837","73.15","img/238/2.5/0.66667/bw/001.png","","","complex"
"","","","","","animation","19","300753","0.0-19.0","1920x1080","","6799.200000047684","28.04","img/314/5.5/0.66667/bw/001.png","","","complex"
"","","","","","animation","20","306625","0.0-20.0","1920x1080","","5871.600000143051","64.42","img/117/4/0.5/bw/001.png","","","complex"
"","","","","","animation","21","314105","0.0-21.0","1920x1080","","7478.700000047684","70.50","img/238/3.5/0.5/bw/001.png","","","complex"
"","","","","","animation","22","326417","0.0-22.0","1920x1080","","12311.199999809265","2.65","img/314/5.5/1.5/bw/001.png","","","complex"
"","","","","","animation","23","334761","0.0-23.0","1920x1080","","8343","12.70","img/238/5.5/1/bw/001.png","","","complex"
"","","","","","animation","24","340961","0.0-24.0","1920x1080","","6198.900000095367","25.79","img/117/5.5/2/bw/001.png","","","complex"
"","","","","","animation","25","350305","0.0-25.0","1920x1080","","9343.200000047684","55.42","img/238/4.5/0.5/bw/001.png","","","complex"
"","","","","","animation","26","355625","0.0-26.0","1920x1080","","5319.299999952316","71.30","img/238/2.5/1.5/bw/001.png","","","complex"
"","","","","","animation","27","372649","0.0-27.0","1920x1080","","17023.099999904633","71.16","img/117/4/1/bw/001.png","","","complex"
"","","","","","animation","28","394938","0.0-28.0","1920x1080","","22287.299999952316","58.86","img/314/4/1/bw/001.png","","","complex"
"","","","","","animation","29","400233","0.0-29.0","1920x1080","","5295.199999809265","66.53","img/314/3.5/0.66667/bw/001.png","","","complex"
"","","","","","animation","30","417394","0.0-30.0","1920x1080","","17159.400000095367","31","img/314/4.5/2/bw/001.png","","","complex"
"","","","","","animation","31","421786","0.0-31.0","1920x1080","","4390.799999952316","50.93","img/314/4/0.66667/bw/001.png","","","complex"
"","","","","","animation","32","436034","0.0-32.0","1920x1080","","14246.900000095367","50.79","img/117/4/1.5/bw/001.png","","","complex"
"","","","","","animation","33","442466","0.0-33.0","1920x1080","","6430.700000047684","65.74","img/314/3.5/1.5/bw/001.png","","","complex"
"","","","","","animation","34","449162","0.0-34.0","1920x1080","","6695.599999904633","13.10","img/238/5.5/0.5/bw/001.png","","","complex"
"","","","","","animation","35","487732","0.0-35.0","1920x1080","","38568.300000190735","60","img/238/4/2/bw/001.png","","","complex"
"","","","","","animation","36","492242","0.0-36.0","1920x1080","","4509.799999952316","74.74","img/314/2.5/1/bw/001.png","","","complex"
"","","","","","animation","37","498482","0.0-37.0","1920x1080","","6238.700000047684","50.40","img/117/5.5/0.66667/bw/001.png","","","complex"
"","","","","","animation","38","517948","0.0-38.0","1920x1080","","19465.099999904633","56","img/238/4.5/1.5/bw/001.png","","","complex"
"","","","","","animation","39","523218","0.0-39.0","1920x1080","","5268.799999952316","64","img/117/4.5/1.5/bw/001.png","","","complex"
"","","","","","animation","40","528194","0.0-40.0","1920x1080","","4975.399999856949","73.81","img/314/2.5/0.5/bw/001.png","","","complex"
"","","","","","animation","41","544594","0.0-41.0","1920x1080","","16399","55","img/117/4.5/2/bw/001.png","","","complex"
"","","","","","animation","42","551250","0.0-42.0","1920x1080","","6654.900000095367","55.16","img/238/4.5/2/bw/001.png","","","complex"
"","","","","","animation","43","558764","0.0-43.0","1920x1080","","7513.599999904633","66","img/314/4.5/1/bw/001.png","","","complex"
"","","","","","animation","44","573149","0.0-44.0","1920x1080","","14383.100000143051","18","img/314/5.5/1/bw/001.png","","","complex"
"","","","","","animation","45","580682","0.0-45.0","1920x1080","","7532.5","56.22","img/117/4/2/bw/001.png","","","complex"
"","","","","","animation","46","602522","0.0-46.0","1920x1080","","21839.400000095367","4","img/238/5.5/2/bw/001.png","","","complex"
"","","","","","animation","47","610786","0.0-47.0","1920x1080","","8260.400000095367","64","img/238/4/1/bw/001.png","","","complex"
"","","","","","animation","48","613499","0.0-48.0","1920x1080","","2711.199999809265","75.40","img/117/2.5/0.5/bw/001.png","","","complex"
"","","","","","animation","49","624699","0.0-49.0","1920x1080","","11199.5","58.99","img/117/4.5/1/bw/001.png","","","complex"
"","","","","","animation","50","638786","0.0-50.0","1920x1080","","14086","70.50","img/117/3.5/1.5/bw/001.png","","","complex"
"","","","","","animation","51","650011","0.0-51.0","1920x1080","","11223.099999904633","59.92","img/238/4.5/0.66667/bw/001.png","","","complex"
"","","","","","animation","52","654234","0.0-52.0","1920x1080","","4221.5","76.46","img/238/2.5/0.5/bw/001.png","","","complex"
"","","","","","animation","53","665475","0.0-53.0","1920x1080","","11239.399999856949","33.86","img/314/5.5/2/bw/001.png","","","complex"
"","","","","","animation","54","671827","0.0-54.0","1920x1080","","6351","51.06","img/314/3.5/2/bw/001.png","","","complex"
"","","","","","animation","55","679083","0.0-55.0","1920x1080","","7254.799999952316","59.79","img/117/4.5/0.66667/bw/001.png","","","complex"
"","","","","","animation","56","686339","0.0-56.0","1920x1080","","7255","53.31","img/117/5.5/0.5/bw/001.png","","","complex"
"","","","","","animation","57","691099","0.0-57.0","1920x1080","","4758.700000047684","56.61","img/117/4.5/0.5/bw/001.png","","","complex"
"","","","","","animation","58","697349","0.0-58.0","1920x1080","","6248.799999952316","66.14","img/238/4/0.66667/bw/001.png","","","complex"
"","","","","","animation","59","704027","0.0-59.0","1920x1080","","6677.200000047684","70.90","img/238/3.5/1/bw/001.png","","","complex"
"","","","","","animation","60","715771","0.0-60.0","1920x1080","","11742.600000143051","21.30","img/117/5.5/1.5/bw/001.png","","","complex"
"","","","","","animation","61","732798","0.0-61.0","1920x1080","","17026.299999952316","11.38","img/238/5.5/1.5/bw/001.png","","","complex"
"","","","","","animation","62","737300","0.0-62.0","1920x1080","","4500","51.46","img/314/4/0.5/bw/001.png","","","complex"
"","","","","","animation","63","741539","0.0-63.0","1920x1080","","4237.700000047684","57.28","img/238/4/0.5/bw/001.png","","","complex"
"","","","","","animation","64","746667","0.0-64.0","1920x1080","","5126.599999904633","75.13","img/238/2.5/1/bw/001.png","","","complex"
"","","","","","animation","65","757765","0.0-65.0","1920x1080","","11096.900000095367","47.35","img/314/4.5/0.66667/bw/001.png","","","complex"
"","","","","","animation","66","761548","0.0-66.0","1920x1080","","3782.2000000476837","54.50","img/117/4/0.66667/bw/001.png","","","complex"
"","","","","","animation","67","765507","0.0-67.0","1920x1080","","3958.100000143051","73","img/117/2.5/1.5/bw/001.png","","","complex"
"","","","","","animation","68","772739","0.0-68.0","1920x1080","","7230.899999856949","26.98","img/314/5.5/0.5/bw/001.png","","","complex"
"","","","","","animation","69","776843","0.0-69.0","1920x1080","","4102.700000047684","76.85","img/117/2.5/1/bw/001.png","","","complex"
"","","","","","animation","70","782003","0.0-70.0","1920x1080","","5158.599999904633","46.03","img/314/4.5/1.5/bw/001.png","","","complex"
"","","","","","animation","71","786451","0.0-71.0","1920x1080","","4446.700000047684","50","img/238/3.5/2/bw/001.png","","","complex"
"","","","","","animation","72","790187","0.0-72.0","1920x1080","","3735","57.28","img/238/3.5/0.66667/bw/001.png","","","complex"
"","","","","","animation","73","796307","0.0-73.0","1920x1080","","6119.099999904633","51.19","img/117/3.5/2/bw/001.png","","","complex"
"","","","","","animation","74","800355","0.0-74.0","1920x1080","","4046.7999999523163","69.84","img/117/2.5/2/bw/001.png","","","complex"
"","","","","","animation","75","804123","0.0-75.0","1920x1080","","3767","84.26","img/314/2.5/0.66667/bw/001.png","","","complex"
"","","","","","animation","76","808675","0.0-76.0","1920x1080","","4551.100000143051","60.32","img/117/3.5/0.66667/bw/001.png","","","complex"
"","","","","","animation","77","814259","0.0-77.0","1920x1080","","5583","69.71","img/314/2.5/1.5/bw/001.png","","","complex"
"","","","","","animation","78","817939","0.0-78.0","1920x1080","","3678.399999856949","80.56","img/117/2.5/0.66667/bw/001.png","","","complex"
"","","","","","animation","79","827859","0.0-79.0","1920x1080","","9919.300000190735","57","img/314/3.5/1/bw/001.png","","","complex"
"","","","","","animation","80","836533","0.0-80.0","1920x1080","","8672.700000047684","21","img/117/5.5/1/bw/001.png","","","complex"
"","","","","","animation","81","841867","0.0-81.0","1920x1080","","5332.400000095367","53.57","img/314/3.5/0.5/bw/001.png","","","complex"
"","","","","","html-button-response","82","861339","0.0-82.0","1920x1080","","19471.099999904633","","<div class=""intro"">You are about to view a new series of animations.<br><br></div><div class=""intro"">You will evaluate them based on a different descriptor.<br><br></div><div class=""intro"">Move the slider to indicate how <strong style=""text-transform:capitalize"">RELAXING</strong> you find each animation.<br><br></div><div class=""intro"">0 = Least Relaxing<br></div><div class=""intro"">1 = Most Relaxing<br><br></div><div class=""intro"">Remember to use the <strong><em>entire range</em></strong> of the slider to make your ratings.<br></div><div class=""intro"">Please <strong><em>take your time</em></strong> and carefully consider each rating you make.<br><br></div>","0","",""
"","","","","","call-function","83","861340","0.0-83.0","1920x1080","","","","","","",""
"","","","","","animation","84","878748","0.0-84.0","1920x1080","","17407.099999904633","24.74","img/314/3.5/0.66667/bw/001.png","","","relaxing"
"","","","","","animation","85","885187","0.0-85.0","1920x1080","","6437.400000095367","41.67","img/117/3.5/2/bw/001.png","","","relaxing"
"","","","","","animation","86","892198","0.0-86.0","1920x1080","","7009.900000095367","4.50","img/238/3.5/0.5/bw/001.png","","","relaxing"
"","","","","","animation","87","903451","0.0-87.0","1920x1080","","11251.200000047684","6","img/238/3.5/0.66667/bw/001.png","","","relaxing"
"","","","","","animation","88","910835","0.0-88.0","1920x1080","","7383.100000143051","11.11","img/117/4/0.5/bw/001.png","","","relaxing"
"","","","","","animation","89","927004","0.0-89.0","1920x1080","","16166.699999809265","84.13","img/314/5.5/1.5/bw/001.png","","","relaxing"
"","","","","","animation","90","938204","0.0-90.0","1920x1080","","11198.299999952316","53.44","img/238/4.5/0.66667/bw/001.png","","","relaxing"
"","","","","","animation","91","946556","0.0-91.0","1920x1080","","8350.899999856949","42.33","img/117/4.5/0.66667/bw/001.png","","","relaxing"
"","","","","","animation","92","951188","0.0-92.0","1920x1080","","4630","1.32","img/238/2.5/1/bw/001.png","","","relaxing"
"","","","","","animation","93","961636","0.0-93.0","1920x1080","","10446.700000047684","1.98","img/238/4/0.66667/bw/001.png","","","relaxing"
"","","","","","animation","94","965340","0.0-94.0","1920x1080","","3703.199999809265","0.13","img/117/2.5/0.5/bw/001.png","","","relaxing"
"","","","","","animation","95","977998","0.0-95.0","1920x1080","","12657.100000143051","40","img/238/5.5/0.5/bw/001.png","","","relaxing"
"","","","","","animation","96","985399","0.0-96.0","1920x1080","","7400.5","33.86","img/117/5.5/0.66667/bw/001.png","","","relaxing"
"","","","","","animation","97","1007750","0.0-97.0","1920x1080","","22349.10000014305","69.84","img/117/2.5/1.5/bw/001.png","","","relaxing"
"","","","","","animation","98","1012165","0.0-98.0","1920x1080","","4414.100000143051","24","img/314/3.5/0.5/bw/001.png","","","relaxing"
"","","","","","animation","99","1016084","0.0-99.0","1920x1080","","3918.0999999046326","39.42","img/238/3.5/2/bw/001.png","","","relaxing"
"","","","","","animation","100","1019924","0.0-100.0","1920x1080","","3838.5","21.96","img/238/4/0.5/bw/001.png","","","relaxing"
"","","","","","animation","101","1024214","0.0-101.0","1920x1080","","4289.600000143051","11.51","img/117/2.5/1/bw/001.png","","","relaxing"
"","","","","","animation","102","1042948","0.0-102.0","1920x1080","","18732.700000047684","73","img/314/5.5/1/bw/001.png","","","relaxing"
"","","","","","animation","103","1047198","0.0-103.0","1920x1080","","4249.199999809265","9.26","img/117/3.5/1/bw/001.png","","","relaxing"
"","","","","","animation","104","1051948","0.0-104.0","1920x1080","","4748.900000095367","3.97","img/117/4.5/0.5/bw/001.png","","","relaxing"
"","","","","","animation","105","1063198","0.0-105.0","1920x1080","","11248.5","65.87","img/314/3.5/2/bw/001.png","","","relaxing"
"","","","","","animation","106","1079004","0.0-106.0","1920x1080","","15805.5","100","img/238/5.5/1.5/bw/001.png","","","relaxing"
"","","","","","animation","107","1084923","0.0-107.0","1920x1080","","5916","0","img/238/2.5/0.5/bw/001.png","","","relaxing"
"","","","","","animation","108","1098464","0.0-108.0","1920x1080","","13537.400000095367","49.60","img/238/3.5/1.5/bw/001.png","","","relaxing"
"","","","","","animation","109","1103404","0.0-109.0","1920x1080","","4938.700000047684","35.05","img/238/3.5/1/bw/001.png","","","relaxing"
"","","","","","animation","110","1107267","0.0-110.0","1920x1080","","3862.5","19","img/314/4.5/0.5/bw/001.png","","","relaxing"
"","","","","","animation","111","1110476","0.0-111.0","1920x1080","","3207.2999999523163","2.65","img/117/4/0.66667/bw/001.png","","","relaxing"
"","","","","","animation","112","1120467","0.0-112.0","1920x1080","","9990.799999952316","28.57","img/117/5.5/0.5/bw/001.png","","","relaxing"
"","","","","","animation","113","1152236","0.0-113.0","1920x1080","","31767.099999904633","46","img/117/4/2/bw/001.png","","","relaxing"
"","","","","","animation","114","1155965","0.0-114.0","1920x1080","","3727.5","0.00","img/314/2.5/0.5/bw/001.png","","","relaxing"
"","","","","","animation","115","1164220","0.0-115.0","1920x1080","","8254.700000047684","31.08","img/314/3.5/1.5/bw/001.png","","","relaxing"
"","","","","","animation","116","1176340","0.0-116.0","1920x1080","","12118.800000190735","50","img/117/4/1.5/bw/001.png","","","relaxing"
"","","","","","animation","117","1199772","0.0-117.0","1920x1080","","23431","56.08","img/314/4.5/1.5/bw/001.png","","","relaxing"
"","","","","","animation","118","1209453","0.0-118.0","1920x1080","","9679","0.93","img/238/2.5/0.66667/bw/001.png","","","relaxing"
"","","","","","animation","119","1220532","0.0-119.0","1920x1080","","11078.5","26.59","img/238/4.5/1/bw/001.png","","","relaxing"
"","","","","","animation","120","1231831","0.0-120.0","1920x1080","","11298","53.57","img/314/4/2/bw/001.png","","","relaxing"
"","","","","","animation","121","1237805","0.0-121.0","1920x1080","","5972.600000143051","22.75","img/314/5.5/0.66667/bw/001.png","","","relaxing"
"","","","","","animation","122","1248116","0.0-122.0","1920x1080","","10310.299999952316","50.26","img/314/4.5/2/bw/001.png","","","relaxing"
"","","","","","animation","123","1253388","0.0-123.0","1920x1080","","5268.799999952316","40.74","img/314/4/1.5/bw/001.png","","","relaxing"
"","","","","","animation","124","1258173","0.0-124.0","1920x1080","","4783.299999952316","14.02","img/117/3.5/0.5/bw/001.png","","","relaxing"
"","","","","","animation","125","1277973","0.0-125.0","1920x1080","","19799","61","img/117/5.5/1/bw/001.png","","","relaxing"
"","","","","","animation","126","1297901","0.0-126.0","1920x1080","","19925.599999904633","50.26","img/314/4.5/1/bw/001.png","","","relaxing"
"","","","","","animation","127","1317541","0.0-127.0","1920x1080","","19639.599999904633","64.42","img/238/4.5/1.5/bw/001.png","","","relaxing"
"","","","","","animation","128","1322620","0.0-128.0","1920x1080","","5078.599999904633","23.94","img/238/4.5/0.5/bw/001.png","","","relaxing"
"","","","","","animation","129","1329453","0.0-129.0","1920x1080","","6830.900000095367","19.05","img/238/4/1/bw/001.png","","","relaxing"
"","","","","","animation","130","1340709","0.0-130.0","1920x1080","","11254.900000095367","6.08","img/117/2.5/2/bw/001.png","","","relaxing"
"","","","","","animation","131","1354948","0.0-131.0","1920x1080","","14238.400000095367","98","img/314/5.5/2/bw/001.png","","","relaxing"
"","","","","","animation","132","1361564","0.0-132.0","1920x1080","","6614.700000047684","38.62","img/314/4/1/bw/001.png","","","relaxing"
"","","","","","animation","133","1368325","0.0-133.0","1920x1080","","6759.5","6","img/314/2.5/1.5/bw/001.png","","","relaxing"
"","","","","","animation","134","1372108","0.0-134.0","1920x1080","","3782.4000000953674","0.93","img/117/2.5/0.66667/bw/001.png","","","relaxing"
"","","","","","animation","135","1380500","0.0-135.0","1920x1080","","8390.600000143051","49.74","img/117/4.5/1.5/bw/001.png","","","relaxing"
"","","","","","animation","136","1385981","0.0-136.0","1920x1080","","5479.400000095367","36.64","img/314/5.5/0.5/bw/001.png","","","relaxing"
"","","","","","animation","137","1425880","0.0-137.0","1920x1080","","39898.39999985695","43.39","img/117/4.5/1/bw/001.png","","","relaxing"
"","","","","","animation","138","1437313","0.0-138.0","1920x1080","","11431.900000095367","35.58","img/238/5.5/0.66667/bw/001.png","","","relaxing"
"","","","","","animation","139","1444181","0.0-139.0","1920x1080","","6865.900000095367","37.57","img/314/4/0.66667/bw/001.png","","","relaxing"
"","","","","","animation","140","1457789","0.0-140.0","1920x1080","","13607","89.42","img/238/4/2/bw/001.png","","","relaxing"
"","","","","","animation","141","1465533","0.0-141.0","1920x1080","","7741.700000047684","9.26","img/117/3.5/0.66667/bw/001.png","","","relaxing"
"","","","","","animation","142","1470247","0.0-142.0","1920x1080","","4713.299999952316","17.86","img/314/3.5/1/bw/001.png","","","relaxing"
"","","","","","animation","143","1476485","0.0-143.0","1920x1080","","6236.900000095367","32.28","img/314/4.5/0.66667/bw/001.png","","","relaxing"
"","","","","","animation","144","1480757","0.0-144.0","1920x1080","","4270.100000143051","3.04","img/238/2.5/2/bw/001.png","","","relaxing"
"","","","","","animation","145","1486773","0.0-145.0","1920x1080","","6014.700000047684","1.72","img/238/2.5/1.5/bw/001.png","","","relaxing"
"","","","","","animation","146","1491237","0.0-146.0","1920x1080","","4462.600000143051","5.03","img/314/2.5/2/bw/001.png","","","relaxing"
"","","","","","animation","147","1501614","0.0-147.0","1920x1080","","10375.900000095367","98","img/238/5.5/1/bw/001.png","","","relaxing"
"","","","","","animation","148","1519117","0.0-148.0","1920x1080","","17501.099999904633","100","img/117/5.5/1.5/bw/001.png","","","relaxing"
"","","","","","animation","149","1529742","0.0-149.0","1920x1080","","10621.399999856949","98","img/238/4.5/2/bw/001.png","","","relaxing"
"","","","","","animation","150","1548782","0.0-150.0","1920x1080","","19038.10000014305","50.26","img/117/4/1/bw/001.png","","","relaxing"
"","","","","","animation","151","1565605","0.0-151.0","1920x1080","","16822.900000095367","97","img/238/5.5/2/bw/001.png","","","relaxing"
"","","","","","animation","152","1580047","0.0-152.0","1920x1080","","14439.700000047684","49","img/238/4/1.5/bw/001.png","","","relaxing"
"","","","","","animation","153","1587130","0.0-153.0","1920x1080","","7080.200000047684","0","img/314/2.5/1/bw/001.png","","","relaxing"
"","","","","","animation","154","1590549","0.0-154.0","1920x1080","","3416.5999999046326","0.13","img/314/2.5/0.66667/bw/001.png","","","relaxing"
"","","","","","animation","155","1602830","0.0-155.0","1920x1080","","12280.200000047684","48.81","img/117/4.5/2/bw/001.png","","","relaxing"
"","","","","","animation","156","1607630","0.0-156.0","1920x1080","","4798.600000143051","38.49","img/117/3.5/1.5/bw/001.png","","","relaxing"
"","","","","","animation","157","1624717","0.0-157.0","1920x1080","","17085.900000095367","69.44","img/117/5.5/2/bw/001.png","","","relaxing"
"","","","","","animation","158","1628118","0.0-158.0","1920x1080","","3399.0999999046326","16.40","img/314/4/0.5/bw/001.png","","","relaxing"
"","","","","","html-button-response","159","1648166","0.0-159.0","1920x1080","","20046.599999904633","","<div class=""intro"">You are about to view a new series of animations.<br><br></div><div class=""intro"">You will evaluate them based on a different descriptor.<br><br></div><div class=""intro"">Move the slider to indicate how <strong style=""text-transform:capitalize"">INTERESTING</strong> you find each animation.<br><br></div><div class=""intro"">0 = Least Interesting<br></div><div class=""intro"">1 = Most Interesting<br><br></div><div class=""intro"">Remember to use the <strong><em>entire range</em></strong> of the slider to make your ratings.<br></div><div class=""intro"">Please <strong><em>take your time</em></strong> and carefully consider each rating you make.<br><br></div>","0","",""
"","","","","","call-function","160","1648167","0.0-160.0","1920x1080","","","","","","",""
"","","","","","animation","161","1662406","0.0-161.0","1920x1080","","14237.899999856949","51.72","img/238/4.5/1/bw/001.png","","","interesting"
"","","","","","animation","162","1669718","0.0-162.0","1920x1080","","7311","64.68","img/117/4.5/0.66667/bw/001.png","","","interesting"
"","","","","","animation","163","1689390","0.0-163.0","1920x1080","","19670","83.99","img/314/2.5/2/bw/001.png","","","interesting"
"","","","","","animation","164","1706718","0.0-164.0","1920x1080","","17326.900000095367","76.72","img/117/5.5/1/bw/001.png","","","interesting"
"","","","","","animation","165","1714038","0.0-165.0","1920x1080","","7318.700000047684","23.54","img/238/4.5/2/bw/001.png","","","interesting"
"","","","","","animation","166","1723231","0.0-166.0","1920x1080","","9191.200000047684","25.53","img/238/5.5/1/bw/001.png","","","interesting"
"","","","","","animation","167","1772419","0.0-167.0","1920x1080","","49186","44.71","img/314/3.5/1.5/bw/001.png","","","interesting"
"","","","","","animation","168","1779270","0.0-168.0","1920x1080","","6850.600000143051","92.33","img/238/4.5/0.5/bw/001.png","","","interesting"
"","","","","","animation","169","1784734","0.0-169.0","1920x1080","","5462.200000047684","75.13","img/314/4/1/bw/001.png","","","interesting"
"","","","","","animation","170","1792886","0.0-170.0","1920x1080","","8150.200000047684","85.32","img/238/2.5/0.5/bw/001.png","","","interesting"
"","","","","","animation","171","1800548","0.0-171.0","1920x1080","","7659.400000095367","79.63","img/238/2.5/2/bw/001.png","","","interesting"
"","","","","","animation","172","1804299","0.0-172.0","1920x1080","","3750.9000000953674","97","img/314/4.5/0.5/bw/001.png","","","interesting"
"","","","","","animation","173","1813686","0.0-173.0","1920x1080","","9384.900000095367","94.97","img/314/4.5/0.66667/bw/001.png","","","interesting"
"","","","","","animation","174","1823964","0.0-174.0","1920x1080","","10276","28.44","img/238/5.5/0.66667/bw/001.png","","","interesting"
"","","","","","animation","175","1830790","0.0-175.0","1920x1080","","6825.200000047684","97","img/314/3.5/0.5/bw/001.png","","","interesting"
"","","","","","animation","176","1838864","0.0-176.0","1920x1080","","8072.400000095367","47.49","img/314/5.5/1/bw/001.png","","","interesting"
"","","","","","animation","177","1845314","0.0-177.0","1920x1080","","6448.199999809265","96","img/117/3.5/0.5/bw/001.png","","","interesting"
"","","","","","animation","178","1854713","0.0-178.0","1920x1080","","9399.099999904633","99","img/238/4/0.5/bw/001.png","","","interesting"
"","","","","","animation","179","1863230","0.0-179.0","1920x1080","","8515.600000143051","21.30","img/117/5.5/2/bw/001.png","","","interesting"
"","","","","","animation","180","1871497","0.0-180.0","1920x1080","","8265.400000095367","80.56","img/238/3.5/0.66667/bw/001.png","","","interesting"
"","","","","","animation","181","1879980","0.0-181.0","1920x1080","","8481.900000095367","76.46","img/238/3.5/0.5/bw/001.png","","","interesting"
"","","","","","animation","182","1899830","0.0-182.0","1920x1080","","19848.799999952316","10","img/314/5.5/2/bw/001.png","","","interesting"
"","","","","","animation","183","1910796","0.0-183.0","1920x1080","","10964","26","img/238/3.5/2/bw/001.png","","","interesting"
"","","","","","animation","184","1916902","0.0-184.0","1920x1080","","6104.099999904633","64.95","img/238/4.5/0.66667/bw/001.png","","","interesting"
"","","","","","animation","185","1922997","0.0-185.0","1920x1080","","6093","84.66","img/314/4/0.66667/bw/001.png","","","interesting"
"","","","","","animation","186","1937919","0.0-186.0","1920x1080","","14920.800000190735","26.59","img/117/5.5/1.5/bw/001.png","","","interesting"
"","","","","","animation","187","1942447","0.0-187.0","1920x1080","","4526.899999856949","95","img/314/2.5/0.66667/bw/001.png","","","interesting"
"","","","","","animation","188","1953780","0.0-188.0","1920x1080","","11332.100000143051","98","img/117/4/0.66667/bw/001.png","","","interesting"
"","","","","","animation","189","1959487","0.0-189.0","1920x1080","","5705.399999856949","90.74","img/117/2.5/2/bw/001.png","","","interesting"
"","","","","","animation","190","1962398","0.0-190.0","1920x1080","","2910.7999999523163","97","img/238/2.5/0.66667/bw/001.png","","","interesting"
"","","","","","animation","191","1970103","0.0-191.0","1920x1080","","7703","71.43","img/117/3.5/2/bw/001.png","","","interesting"
"","","","","","animation","192","1976566","0.0-192.0","1920x1080","","6462.399999856949","64.02","img/117/5.5/0.66667/bw/001.png","","","interesting"
"","","","","","animation","193","1983904","0.0-193.0","1920x1080","","7335","50.53","img/314/4.5/2/bw/001.png","","","interesting"
"","","","","","animation","194","1991548","0.0-194.0","1920x1080","","7641.699999809265","53.17","img/314/3.5/2/bw/001.png","","","interesting"
"","","","","","animation","195","2003367","0.0-195.0","1920x1080","","11818.099999904633","5.42","img/238/5.5/1.5/bw/001.png","","","interesting"
"","","","","","animation","196","2011333","0.0-196.0","1920x1080","","7964.5","81.75","img/314/3.5/1/bw/001.png","","","interesting"
"","","","","","animation","197","2024256","0.0-197.0","1920x1080","","12920.799999952316","76","img/238/4/1/bw/001.png","","","interesting"
"","","","","","animation","198","2035999","0.0-198.0","1920x1080","","11742.099999904633","51.98","img/238/4/2/bw/001.png","","","interesting"
"","","","","","animation","199","2040440","0.0-199.0","1920x1080","","4439.299999952316","99","img/314/4/0.5/bw/001.png","","","interesting"
"","","","","","animation","200","2043815","0.0-200.0","1920x1080","","3374.199999809265","93.78","img/314/2.5/1/bw/001.png","","","interesting"
"","","","","","animation","201","2047497","0.0-201.0","1920x1080","","3681","98","img/117/2.5/0.66667/bw/001.png","","","interesting"
"","","","","","animation","202","2060415","0.0-202.0","1920x1080","","12916.699999809265","43.12","img/314/5.5/0.66667/bw/001.png","","","interesting"
"","","","","","animation","203","2065087","0.0-203.0","1920x1080","","4671","98","img/117/3.5/0.66667/bw/001.png","","","interesting"
"","","","","","animation","204","2074431","0.0-204.0","1920x1080","","9342.399999856949","58.33","img/314/5.5/0.5/bw/001.png","","","interesting"
"","","","","","animation","205","2081049","0.0-205.0","1920x1080","","6616.600000143051","51.32","img/314/4/2/bw/001.png","","","interesting"
"","","","","","animation","206","2087104","0.0-206.0","1920x1080","","6051.5","94.97","img/117/2.5/1/bw/001.png","","","interesting"
"","","","","","animation","207","2091898","0.0-207.0","1920x1080","","4792.799999952316","97","img/314/2.5/0.5/bw/001.png","","","interesting"
"","","","","","animation","208","2101548","0.0-208.0","1920x1080","","9648.599999904633","87.70","img/314/4.5/1/bw/001.png","","","interesting"
"","","","","","animation","209","2108288","0.0-209.0","1920x1080","","6738.699999809265","81.48","img/314/4.5/1.5/bw/001.png","","","interesting"
"","","","","","animation","210","2111448","0.0-210.0","1920x1080","","3158.5","98","img/117/2.5/0.5/bw/001.png","","","interesting"
"","","","","","animation","211","2134381","0.0-211.0","1920x1080","","22931.599999904633","52.78","img/117/4.5/1.5/bw/001.png","","","interesting"
"","","","","","animation","212","2140768","0.0-212.0","1920x1080","","6386.299999952316","58.73","img/117/5.5/0.5/bw/001.png","","","interesting"
"","","","","","animation","213","2146348","0.0-213.0","1920x1080","","5577.700000047684","46.03","img/238/4/1.5/bw/001.png","","","interesting"
"","","","","","animation","214","2150984","0.0-214.0","1920x1080","","4634.200000047684","39.55","img/117/4.5/2/bw/001.png","","","interesting"
"","","","","","animation","215","2155416","0.0-215.0","1920x1080","","4430.099999904633","96","img/238/2.5/1/bw/001.png","","","interesting"
"","","","","","animation","216","2168414","0.0-216.0","1920x1080","","12997.5","44.58","img/238/4.5/1.5/bw/001.png","","","interesting"
"","","","","","animation","217","2171914","0.0-217.0","1920x1080","","3498.2999999523163","90.74","img/117/2.5/1.5/bw/001.png","","","interesting"
"","","","","","animation","218","2175998","0.0-218.0","1920x1080","","4082.0999999046326","99","img/117/4/0.5/bw/001.png","","","interesting"
"","","","","","animation","219","2185200","0.0-219.0","1920x1080","","9200.400000095367","6.35","img/314/5.5/1.5/bw/001.png","","","interesting"
"","","","","","animation","220","2195968","0.0-220.0","1920x1080","","10764.299999952316","89.15","img/238/4/0.66667/bw/001.png","","","interesting"
"","","","","","animation","221","2202697","0.0-221.0","1920x1080","","6728.5","62.04","img/117/3.5/1.5/bw/001.png","","","interesting"
"","","","","","animation","222","2210524","0.0-222.0","1920x1080","","7825.099999904633","57.54","img/314/4/1.5/bw/001.png","","","interesting"
"","","","","","animation","223","2221368","0.0-223.0","1920x1080","","10842.799999952316","47.22","img/238/5.5/0.5/bw/001.png","","","interesting"
"","","","","","animation","224","2230231","0.0-224.0","1920x1080","","8861.5","45.63","img/238/3.5/1.5/bw/001.png","","","interesting"
"","","","","","animation","225","2232872","0.0-225.0","1920x1080","","2639.600000143051","90.87","img/238/2.5/1.5/bw/001.png","","","interesting"
"","","","","","animation","226","2250881","0.0-226.0","1920x1080","","18007.5","43.12","img/117/4/2/bw/001.png","","","interesting"
"","","","","","animation","227","2259048","0.0-227.0","1920x1080","","8165.799999952316","72.22","img/117/4/1/bw/001.png","","","interesting"
"","","","","","animation","228","2263264","0.0-228.0","1920x1080","","4215.100000143051","97","img/117/4.5/0.5/bw/001.png","","","interesting"
"","","","","","animation","229","2279648","0.0-229.0","1920x1080","","16381.700000047684","5","img/238/5.5/2/bw/001.png","","","interesting"
"","","","","","animation","230","2285214","0.0-230.0","1920x1080","","5564.600000143051","40.74","img/238/3.5/1/bw/001.png","","","interesting"
"","","","","","animation","231","2289400","0.0-231.0","1920x1080","","4185.200000047684","62.43","img/117/3.5/1/bw/001.png","","","interesting"
"","","","","","animation","232","2292180","0.0-232.0","1920x1080","","2779","81.88","img/314/2.5/1.5/bw/001.png","","","interesting"
"","","","","","animation","233","2299615","0.0-233.0","1920x1080","","7433.299999952316","57.54","img/117/4/1.5/bw/001.png","","","interesting"
"","","","","","animation","234","2304147","0.0-234.0","1920x1080","","4529.099999904633","50.53","img/117/4.5/1/bw/001.png","","","interesting"
"","","","","","animation","235","2307997","0.0-235.0","1920x1080","","3848.300000190735","79.10","img/314/3.5/0.66667/bw/001.png","","","interesting"
"","","","","","html-button-response","236","2329816","0.0-236.0","1920x1080","","21817.10000014305","","<div class=""intro"">You are about to view a new series of animations.<br><br></div><div class=""intro"">You will evaluate them based on a different descriptor.<br><br></div><div class=""intro"">Move the slider to indicate how <strong style=""text-transform:capitalize"">APPEALING</strong> you find each animation.<br><br></div><div class=""intro"">0 = Least Appealing<br></div><div class=""intro"">1 = Most Appealing<br><br></div><div class=""intro"">Remember to use the <strong><em>entire range</em></strong> of the slider to make your ratings.<br></div><div class=""intro"">Please <strong><em>take your time</em></strong> and carefully consider each rating you make.<br><br></div>","0","",""
"","","","","","call-function","237","2329819","0.0-237.0","1920x1080","","","","","","",""
"","","","","","animation","238","2340263","0.0-238.0","1920x1080","","10443.799999952316","78.31","img/117/5.5/1.5/bw/001.png","","","appealing"
"","","","","","animation","239","2348348","0.0-239.0","1920x1080","","8082.299999952316","81.22","img/314/4.5/1/bw/001.png","","","appealing"
"","","","","","animation","240","2354337","0.0-240.0","1920x1080","","5987.200000047684","87.70","img/314/4.5/2/bw/001.png","","","appealing"
"","","","","","animation","241","2366331","0.0-241.0","1920x1080","","11993.200000047684","44.71","img/238/5.5/0.66667/bw/001.png","","","appealing"
"","","","","","animation","242","2369438","0.0-242.0","1920x1080","","3105.0999999046326","9.92","img/238/2.5/1.5/bw/001.png","","","appealing"
"","","","","","animation","243","2380037","0.0-243.0","1920x1080","","10597.600000143051","44.58","img/238/5.5/1/bw/001.png","","","appealing"
"","","","","","animation","244","2382915","0.0-244.0","1920x1080","","2876","8.20","img/314/2.5/2/bw/001.png","","","appealing"
"","","","","","animation","245","2386584","0.0-245.0","1920x1080","","3668.5999999046326","0.40","img/238/2.5/0.66667/bw/001.png","","","appealing"
"","","","","","animation","246","2397753","0.0-246.0","1920x1080","","11167","70","img/117/4.5/1.5/bw/001.png","","","appealing"
"","","","","","animation","247","2403320","0.0-247.0","1920x1080","","5566.5","59.79","img/314/3.5/2/bw/001.png","","","appealing"
"","","","","","animation","248","2413496","0.0-248.0","1920x1080","","10174","85","img/314/5.5/1/bw/001.png","","","appealing"
"","","","","","animation","249","2427531","0.0-249.0","1920x1080","","14032.5","54.89","img/117/5.5/1/bw/001.png","","","appealing"
"","","","","","animation","250","2464848","0.0-250.0","1920x1080","","37316.5","44.97","img/314/5.5/0.66667/bw/001.png","","","appealing"
"","","","","","animation","251","2467992","0.0-251.0","1920x1080","","3141","35.19","img/117/4/0.5/bw/001.png","","","appealing"
"","","","","","animation","252","2473114","0.0-252.0","1920x1080","","5120.799999952316","65.34","img/314/3.5/1.5/bw/001.png","","","appealing"
"","","","","","animation","253","2480740","0.0-253.0","1920x1080","","7624.299999952316","80","img/314/5.5/0.5/bw/001.png","","","appealing"
"","","","","","animation","254","2488514","0.0-254.0","1920x1080","","7770","84.13","img/117/4.5/2/bw/001.png","","","appealing"
"","","","","","animation","255","2498714","0.0-255.0","1920x1080","","10198.299999952316","65.21","img/238/4.5/2/bw/001.png","","","appealing"
"","","","","","animation","256","2501864","0.0-256.0","1920x1080","","3148.899999856949","43.78","img/117/4.5/1/bw/001.png","","","appealing"
"","","","","","animation","257","2514943","0.0-257.0","1920x1080","","13077.799999952316","72.88","img/238/3.5/2/bw/001.png","","","appealing"
"","","","","","animation","258","2526369","0.0-258.0","1920x1080","","11423.5","5.82","img/238/2.5/2/bw/001.png","","","appealing"
"","","","","","animation","259","2585580","0.0-259.0","1920x1080","","59209.89999985695","5.69","img/314/2.5/1/bw/001.png","","","appealing"
"","","","","","animation","260","2601337","0.0-260.0","1920x1080","","15755","72.62","img/238/3.5/1/bw/001.png","","","appealing"
"","","","","","animation","261","2606230","0.0-261.0","1920x1080","","4891.599999904633","3.17","img/117/2.5/0.66667/bw/001.png","","","appealing"
"","","","","","animation","262","2610013","0.0-262.0","1920x1080","","3782.5999999046326","72.49","img/117/5.5/0.5/bw/001.png","","","appealing"
"","","","","","animation","263","2613982","0.0-263.0","1920x1080","","3967.199999809265","80.82","img/314/4.5/1.5/bw/001.png","","","appealing"
"","","","","","animation","264","2618364","0.0-264.0","1920x1080","","4378.800000190735","21.03","img/238/4/0.66667/bw/001.png","","","appealing"
"","","","","","animation","265","2621667","0.0-265.0","1920x1080","","3301.899999856949","0.13","img/314/2.5/0.5/bw/001.png","","","appealing"
"","","","","","animation","266","2639498","0.0-266.0","1920x1080","","17829.900000095367","38","img/117/3.5/0.5/bw/001.png","","","appealing"
"","","","","","animation","267","2643585","0.0-267.0","1920x1080","","4085.0999999046326","37.30","img/117/3.5/0.66667/bw/001.png","","","appealing"
"","","","","","animation","268","2657643","0.0-268.0","1920x1080","","14056.600000143051","93.65","img/238/5.5/2/bw/001.png","","","appealing"
"","","","","","animation","269","2663553","0.0-269.0","1920x1080","","5908.900000095367","85.19","img/238/4/1.5/bw/001.png","","","appealing"
"","","","","","animation","270","2674262","0.0-270.0","1920x1080","","10707.5","67","img/238/5.5/0.5/bw/001.png","","","appealing"
"","","","","","animation","271","2678001","0.0-271.0","1920x1080","","3737.5999999046326","1.98","img/314/2.5/1.5/bw/001.png","","","appealing"
"","","","","","animation","272","2682464","0.0-272.0","1920x1080","","4460.799999952316","76.06","img/117/3.5/1/bw/001.png","","","appealing"
"","","","","","animation","273","2686347","0.0-273.0","1920x1080","","3882","88.76","img/314/4/2/bw/001.png","","","appealing"
"","","","","","animation","274","2692397","0.0-274.0","1920x1080","","6048.099999904633","95","img/314/5.5/2/bw/001.png","","","appealing"
"","","","","","animation","275","2696931","0.0-275.0","1920x1080","","4531.700000047684","37.04","img/238/4.5/0.5/bw/001.png","","","appealing"
"","","","","","animation","276","2700130","0.0-276.0","1920x1080","","3198.100000143051","29.10","img/238/3.5/0.5/bw/001.png","","","appealing"
"","","","","","animation","277","2702735","0.0-277.0","1920x1080","","2603.7000000476837","13.49","img/314/2.5/0.66667/bw/001.png","","","appealing"
"","","","","","animation","278","2711686","0.0-278.0","1920x1080","","8949.799999952316","16","img/314/3.5/0.66667/bw/001.png","","","appealing"
"","","","","","animation","279","2741886","0.0-279.0","1920x1080","","30197.699999809265","96","img/117/5.5/2/bw/001.png","","","appealing"
"","","","","","animation","280","2751214","0.0-280.0","1920x1080","","9325.599999904633","42.06","img/238/4.5/0.66667/bw/001.png","","","appealing"
"","","","","","animation","281","2767402","0.0-281.0","1920x1080","","16186.700000047684","39.29","img/238/4.5/1/bw/001.png","","","appealing"
"","","","","","animation","282","2773586","0.0-282.0","1920x1080","","6182.299999952316","46.56","img/117/4/1/bw/001.png","","","appealing"
"","","","","","animation","283","2777100","0.0-283.0","1920x1080","","3512.899999856949","30.03","img/314/3.5/1/bw/001.png","","","appealing"
"","","","","","animation","284","2781347","0.0-284.0","1920x1080","","4245.5","76.46","img/117/3.5/2/bw/001.png","","","appealing"
"","","","","","animation","285","2785065","0.0-285.0","1920x1080","","3717.100000143051","27.91","img/314/4.5/0.5/bw/001.png","","","appealing"
"","","","","","animation","286","2808858","0.0-286.0","1920x1080","","23790.200000047684","47","img/314/4/1/bw/001.png","","","appealing"
"","","","","","animation","287","2813472","0.0-287.0","1920x1080","","4612.700000047684","70.63","img/238/3.5/1.5/bw/001.png","","","appealing"
"","","","","","animation","288","2816554","0.0-288.0","1920x1080","","3080.2000000476837","1.59","img/117/2.5/1.5/bw/001.png","","","appealing"
"","","","","","animation","289","2821472","0.0-289.0","1920x1080","","4915.900000095367","75.00","img/117/3.5/1.5/bw/001.png","","","appealing"
"","","","","","animation","290","2824424","0.0-290.0","1920x1080","","2951.4000000953674","36.11","img/117/4.5/0.5/bw/001.png","","","appealing"
"","","","","","animation","291","2828486","0.0-291.0","1920x1080","","4060.0999999046326","26.98","img/238/4/0.5/bw/001.png","","","appealing"
"","","","","","animation","292","2831735","0.0-292.0","1920x1080","","3247.4000000953674","18.39","img/117/4/0.66667/bw/001.png","","","appealing"
"","","","","","animation","293","2835638","0.0-293.0","1920x1080","","3900.5","15.61","img/314/4/0.5/bw/001.png","","","appealing"
"","","","","","animation","294","2842718","0.0-294.0","1920x1080","","7077","96","img/314/5.5/1.5/bw/001.png","","","appealing"
"","","","","","animation","295","2845796","0.0-295.0","1920x1080","","3076.7000000476837","1.59","img/117/2.5/2/bw/001.png","","","appealing"
"","","","","","animation","296","2849447","0.0-296.0","1920x1080","","3648.2999999523163","0.13","img/117/2.5/1/bw/001.png","","","appealing"
"","","","","","animation","297","2859082","0.0-297.0","1920x1080","","9633","86","img/238/4/2/bw/001.png","","","appealing"
"","","","","","animation","298","2868653","0.0-298.0","1920x1080","","9569.799999952316","57.67","img/238/3.5/0.66667/bw/001.png","","","appealing"
"","","","","","animation","299","2872873","0.0-299.0","1920x1080","","4215.299999952316","39.15","img/314/4.5/0.66667/bw/001.png","","","appealing"
"","","","","","animation","300","2879386","0.0-300.0","1920x1080","","6477.5","72.88","img/117/4/1.5/bw/001.png","","","appealing"
"","","","","","animation","301","2890002","0.0-301.0","1920x1080","","10614.100000143051","94","img/238/4.5/1.5/bw/001.png","","","appealing"
"","","","","","animation","302","2897581","0.0-302.0","1920x1080","","7577.299999952316","97","img/117/4/2/bw/001.png","","","appealing"
"","","","","","animation","303","2906317","0.0-303.0","1920x1080","","8734.600000143051","99","img/117/5.5/0.66667/bw/001.png","","","appealing"
"","","","","","animation","304","2909466","0.0-304.0","1920x1080","","3147.600000143051","1.72","img/238/2.5/1/bw/001.png","","","appealing"
"","","","","","animation","305","2912298","0.0-305.0","1920x1080","","2830.300000190735","0","img/238/2.5/0.5/bw/001.png","","","appealing"
"","","","","","animation","306","2914682","0.0-306.0","1920x1080","","2383.0999999046326","21.43","img/314/3.5/0.5/bw/001.png","","","appealing"
"","","","","","animation","307","2941218","0.0-307.0","1920x1080","","26534.700000047684","40.08","img/238/4/1/bw/001.png","","","appealing"
"","","","","","animation","308","2943787","0.0-308.0","1920x1080","","2563.4000000953674","32.67","img/117/4.5/0.66667/bw/001.png","","","appealing"
"","","","","","animation","309","2949414","0.0-309.0","1920x1080","","5625.399999856949","52","img/314/4/1.5/bw/001.png","","","appealing"
"","","","","","animation","310","2952601","0.0-310.0","1920x1080","","3184.7999999523163","0.00","img/117/2.5/0.5/bw/001.png","","","appealing"
"","","","","","animation","311","2967550","0.0-311.0","1920x1080","","14948","96","img/238/5.5/1.5/bw/001.png","","","appealing"
"","","","","","animation","312","2972186","0.0-312.0","1920x1080","","4633.5","43.39","img/314/4/0.66667/bw/001.png","","","appealing"
"","","","","","html-button-response","313","2991521","0.0-313.0","1920x1080","","19331","","<div class=""intro"">You are about to view a new series of animations.<br><br></div><div class=""intro"">You will evaluate them based on a different descriptor.<br><br></div><div class=""intro"">Move the slider to indicate how <strong style=""text-transform:capitalize"">NATURAL</strong> you find each animation.<br><br></div><div class=""intro"">0 = Least Natural<br></div><div class=""intro"">1 = Most Natural<br><br></div><div class=""intro"">Remember to use the <strong><em>entire range</em></strong> of the slider to make your ratings.<br></div><div class=""intro"">Please <strong><em>take your time</em></strong> and carefully consider each rating you make.<br><br></div>","0","",""
"","","","","","call-function","314","2991522","0.0-314.0","1920x1080","","","","","","",""
"","","","","","animation","315","3002900","0.0-315.0","1920x1080","","11375.700000047684","23","img/314/3.5/0.66667/bw/001.png","","","natural"
"","","","","","animation","316","3011005","0.0-316.0","1920x1080","","8101.899999856949","50","img/314/4.5/2/bw/001.png","","","natural"
"","","","","","animation","317","3013898","0.0-317.0","1920x1080","","2892.2999999523163","39.95","img/117/4/0.5/bw/001.png","","","natural"
"","","","","","animation","318","3021571","0.0-318.0","1920x1080","","7671.5","84.52","img/314/5.5/0.5/bw/001.png","","","natural"
"","","","","","animation","319","3050030","0.0-319.0","1920x1080","","28456.89999985695","21","img/314/4/0.5/bw/001.png","","","natural"
"","","","","","animation","320","3054225","0.0-320.0","1920x1080","","4189.599999904633","5.56","img/238/4.5/0.5/bw/001.png","","","natural"
"","","","","","animation","321","3058083","0.0-321.0","1920x1080","","3836","62","img/238/4.5/1.5/bw/001.png","","","natural"
"","","","","","animation","322","3062180","0.0-322.0","1920x1080","","4095.300000190735","2.78","img/314/2.5/2/bw/001.png","","","natural"
"","","","","","animation","323","3065283","0.0-323.0","1920x1080","","3101.4000000953674","16.67","img/314/3.5/2/bw/001.png","","","natural"
"","","","","","animation","324","3068600","0.0-324.0","1920x1080","","3316.100000143051","0.13","img/117/2.5/0.5/bw/001.png","","","natural"
"","","","","","animation","325","3072330","0.0-325.0","1920x1080","","3728.2000000476837","39.02","img/117/3.5/0.5/bw/001.png","","","natural"
"","","","","","animation","326","3075133","0.0-326.0","1920x1080","","2800.9000000953674","5.69","img/314/2.5/1.5/bw/001.png","","","natural"
"","","","","","animation","327","3080934","0.0-327.0","1920x1080","","5799.399999856949","11.24","img/238/3.5/0.5/bw/001.png","","","natural"
"","","","","","animation","328","3087716","0.0-328.0","1920x1080","","6778.5","92.86","img/314/5.5/1.5/bw/001.png","","","natural"
"","","","","","animation","329","3096403","0.0-329.0","1920x1080","","8684.700000047684","26.19","img/238/4/0.5/bw/001.png","","","natural"
"","","","","","animation","330","3100797","0.0-330.0","1920x1080","","4392.200000047684","22.22","img/238/4/0.66667/bw/001.png","","","natural"
"","","","","","animation","331","3107218","0.0-331.0","1920x1080","","6419.899999856949","85.71","img/117/4.5/2/bw/001.png","","","natural"
"","","","","","animation","332","3111018","0.0-332.0","1920x1080","","3797.2000000476837","0.79","img/238/2.5/0.5/bw/001.png","","","natural"
"","","","","","animation","333","3123235","0.0-333.0","1920x1080","","12214.099999904633","12.17","img/314/3.5/1/bw/001.png","","","natural"
"","","","","","animation","334","3127198","0.0-334.0","1920x1080","","3955","31.08","img/117/4/0.66667/bw/001.png","","","natural"
"","","","","","animation","335","3132399","0.0-335.0","1920x1080","","5199.200000047684","91","img/117/5.5/1/bw/001.png","","","natural"
"","","","","","animation","336","3135547","0.0-336.0","1920x1080","","3146.300000190735","17.46","img/314/3.5/0.5/bw/001.png","","","natural"
"","","","","","animation","337","3143715","0.0-337.0","1920x1080","","8165.899999856949","99","img/238/4/2/bw/001.png","","","natural"
"","","","","","animation","338","3149088","0.0-338.0","1920x1080","","5371.700000047684","37","img/314/4/0.66667/bw/001.png","","","natural"
"","","","","","animation","339","3153051","0.0-339.0","1920x1080","","3959.699999809265","5.03","img/117/3.5/1.5/bw/001.png","","","natural"
"","","","","","animation","340","3156067","0.0-340.0","1920x1080","","3014.699999809265","0.40","img/117/2.5/0.66667/bw/001.png","","","natural"
"","","","","","animation","341","3168967","0.0-341.0","1920x1080","","12897.800000190735","50.26","img/314/4/1/bw/001.png","","","natural"
"","","","","","animation","342","3172581","0.0-342.0","1920x1080","","3612.4000000953674","1.72","img/314/2.5/1/bw/001.png","","","natural"
"","","","","","animation","343","3179219","0.0-343.0","1920x1080","","6636.900000095367","74.47","img/238/5.5/1.5/bw/001.png","","","natural"
"","","","","","animation","344","3183064","0.0-344.0","1920x1080","","3843.5","85.58","img/238/4.5/2/bw/001.png","","","natural"
"","","","","","animation","345","3187409","0.0-345.0","1920x1080","","4342.100000143051","78.04","img/117/5.5/2/bw/001.png","","","natural"
"","","","","","animation","346","3192320","0.0-346.0","1920x1080","","4909.600000143051","44.97","img/117/4.5/0.5/bw/001.png","","","natural"
"","","","","","animation","347","3197265","0.0-347.0","1920x1080","","4943.299999952316","93.65","img/314/5.5/2/bw/001.png","","","natural"
"","","","","","animation","348","3201313","0.0-348.0","1920x1080","","4046","45.24","img/238/4.5/0.66667/bw/001.png","","","natural"
"","","","","","animation","349","3204807","0.0-349.0","1920x1080","","3492.5999999046326","0","img/314/2.5/0.66667/bw/001.png","","","natural"
"","","","","","animation","350","3213251","0.0-350.0","1920x1080","","8443.200000047684","50.93","img/117/3.5/2/bw/001.png","","","natural"
"","","","","","animation","351","3216131","0.0-351.0","1920x1080","","2878.0999999046326","6","img/117/2.5/1.5/bw/001.png","","","natural"
"","","","","","animation","352","3219359","0.0-352.0","1920x1080","","3227.2000000476837","30.16","img/117/4/1/bw/001.png","","","natural"
"","","","","","animation","353","3224901","0.0-353.0","1920x1080","","5540.299999952316","90.61","img/117/5.5/0.66667/bw/001.png","","","natural"
"","","","","","animation","354","3227897","0.0-354.0","1920x1080","","2994.600000143051","82.14","img/117/5.5/0.5/bw/001.png","","","natural"
"","","","","","animation","355","3237176","0.0-355.0","1920x1080","","9276.900000095367","100","img/238/5.5/0.5/bw/001.png","","","natural"
"","","","","","animation","356","3246231","0.0-356.0","1920x1080","","9051.799999952316","91.80","img/314/5.5/1/bw/001.png","","","natural"
"","","","","","animation","357","3249347","0.0-357.0","1920x1080","","3113.5","38","img/117/3.5/1/bw/001.png","","","natural"
"","","","","","animation","358","3252048","0.0-358.0","1920x1080","","2699.9000000953674","8","img/117/2.5/1/bw/001.png","","","natural"
"","","","","","animation","359","3255430","0.0-359.0","1920x1080","","3380.9000000953674","49.34","img/238/3.5/2/bw/001.png","","","natural"
"","","","","","animation","360","3266647","0.0-360.0","1920x1080","","11214.799999952316","82.01","img/238/5.5/1/bw/001.png","","","natural"
"","","","","","animation","361","3270715","0.0-361.0","1920x1080","","4066.4000000953674","87.30","img/314/4/1.5/bw/001.png","","","natural"
"","","","","","animation","362","3276438","0.0-362.0","1920x1080","","5718.600000143051","69.05","img/238/5.5/2/bw/001.png","","","natural"
"","","","","","animation","363","3279715","0.0-363.0","1920x1080","","3274.899999856949","98","img/314/5.5/0.66667/bw/001.png","","","natural"
"","","","","","animation","364","3282308","0.0-364.0","1920x1080","","2591.2000000476837","0.00","img/238/2.5/1/bw/001.png","","","natural"
"","","","","","animation","365","3284809","0.0-365.0","1920x1080","","2499.199999809265","0.93","img/314/2.5/0.5/bw/001.png","","","natural"
"","","","","","animation","366","3289477","0.0-366.0","1920x1080","","4666.5","27.65","img/314/4.5/0.66667/bw/001.png","","","natural"
"","","","","","animation","367","3294397","0.0-367.0","1920x1080","","4918.299999952316","94.18","img/238/5.5/0.66667/bw/001.png","","","natural"
"","","","","","animation","368","3298208","0.0-368.0","1920x1080","","3808.800000190735","41.80","img/238/4/1/bw/001.png","","","natural"
"","","","","","animation","369","3302419","0.0-369.0","1920x1080","","4210.399999856949","50.93","img/238/3.5/1.5/bw/001.png","","","natural"
"","","","","","animation","370","3305197","0.0-370.0","1920x1080","","2774.2999999523163","11.64","img/238/2.5/0.66667/bw/001.png","","","natural"
"","","","","","animation","371","3308615","0.0-371.0","1920x1080","","3416.5","25.53","img/314/4.5/0.5/bw/001.png","","","natural"
"","","","","","animation","372","3329582","0.0-372.0","1920x1080","","20965.700000047684","62.04","img/238/4/1.5/bw/001.png","","","natural"
"","","","","","animation","373","3334398","0.0-373.0","1920x1080","","4813.799999952316","87.57","img/314/4.5/1.5/bw/001.png","","","natural"
"","","","","","animation","374","3337131","0.0-374.0","1920x1080","","2731.4000000953674","64.81","img/117/4/1.5/bw/001.png","","","natural"
"","","","","","animation","375","3340198","0.0-375.0","1920x1080","","3065.100000143051","96","img/117/5.5/1.5/bw/001.png","","","natural"
"","","","","","animation","376","3343415","0.0-376.0","1920x1080","","3215.7999999523163","4.10","img/238/2.5/1.5/bw/001.png","","","natural"
"","","","","","animation","377","3350665","0.0-377.0","1920x1080","","7247.700000047684","31.35","img/117/4.5/0.66667/bw/001.png","","","natural"
"","","","","","animation","378","3354083","0.0-378.0","1920x1080","","3416.5","57.14","img/117/4.5/1.5/bw/001.png","","","natural"
"","","","","","animation","379","3360732","0.0-379.0","1920x1080","","6646.799999952316","48.94","img/238/4.5/1/bw/001.png","","","natural"
"","","","","","animation","380","3363949","0.0-380.0","1920x1080","","3215.5","5.95","img/117/2.5/2/bw/001.png","","","natural"
"","","","","","animation","381","3371529","0.0-381.0","1920x1080","","7578.899999856949","74.60","img/117/4.5/1/bw/001.png","","","natural"
"","","","","","animation","382","3373780","0.0-382.0","1920x1080","","2249.9000000953674","30","img/117/3.5/0.66667/bw/001.png","","","natural"
"","","","","","animation","383","3376147","0.0-383.0","1920x1080","","2365.7000000476837","22.35","img/238/2.5/2/bw/001.png","","","natural"
"","","","","","animation","384","3378168","0.0-384.0","1920x1080","","2019.2999999523163","31","img/238/3.5/0.66667/bw/001.png","","","natural"
"","","","","","animation","385","3383648","0.0-385.0","1920x1080","","5478.5","50","img/314/4/2/bw/001.png","","","natural"
"","","","","","animation","386","3386031","0.0-386.0","1920x1080","","2382","42.59","img/238/3.5/1/bw/001.png","","","natural"
"","","","","","animation","387","3390805","0.0-387.0","1920x1080","","4772.799999952316","53.84","img/314/4.5/1/bw/001.png","","","natural"
"","","","","","animation","388","3395831","0.0-388.0","1920x1080","","5023.400000095367","41.93","img/314/3.5/1.5/bw/001.png","","","natural"
"","","","","","animation","389","3398525","0.0-389.0","1920x1080","","2693.0999999046326","50.00","img/117/4/2/bw/001.png","","","natural"
"","","","","","html-button-response","390","3434543","0.0-390.0","1920x1080","","36015.700000047684","","<strong>Study Debriefing</strong><br><p class=""debrief""><strong>Background:</strong> The patterns you rated are called <em>fractals</em>. The term fractal describes a class of irregular curves or shapes for which any suitably chosen part is similar in shape to a given larger or smaller part when magnified or reduced to the same size. Fractal properties are found throughout the natural and manmade world. The series of animations you saw today displayed animated fractal patterns of a varying complexity.</p><p class=""debrief""><strong>Purpose of this study:</strong> We hope to better understand how the perception of static fractals differs from the perception of animated fractals, and how the speed of the animated patterns influences people&apos;s perception of them. Fractals allow us to study the perception of aesthetic properties (e.g. the perceived level of beauty in an image) without using recognizable content, which makes them an excellent tool for studying abstract aesthetic judgement.</p><p class=""debrief""><strong>Your part:</strong> Your participation has helped us to further understand how humans perceive these patterns across different levels of speed and complexity. This research with allow us to better understand how the visual system and brain process our ever-changing visual environments.<p class=""debrief""><strong>Feedback and Further information:</strong> If you have additional questions about this study, please feel free to ask the researcher, Nathan Gonzales-Hess at nhess @ uoregon.edu. If you have any questions concerning your rights as a research participant, please contact Research Compliance Services, 5237 University of Oregon, Eugene, OR 97403, 541-346-2510, or email researchCompliance @ uoregon.edu. You can also email the Human Subjects Coordinator for psychology and linguistics research at hscoord @ uoregon.edu. ","0","",""
"","","","","","html-button-response","391","3438669","0.0-391.0","1920x1080","","4120.5","","Thank you for participating in this study. <br>Please click below to finish the experiment and submit your responses.<br><br>","0","",""
"true","","","","","fullscreen","392","3439675","0.0-392.0","1920x1080","14:34 2/6/2022","","","","","",""
