"success","timeout","failed_images","failed_audio","failed_video","trial_type","trial_index","time_elapsed","internal_node_id","resolution","timeStamp","rt","response","stimulus","button_pressed","value","descriptor"
"true","false","[]","[]","[]","preload","0","5795","0.0-0.0","1920x1080","","","","","","",""
"true","false","[]","[]","[]","preload","1","11830","0.0-1.0","1920x1080","","","","","","",""
"true","false","[]","[]","[]","preload","2","17726","0.0-2.0","1920x1080","","","","","","",""
"true","","","","","fullscreen","3","78046167","0.0-3.0","1920x1080","14:54 5/10/2022","","","","","",""
"","","","","","survey-html-form","4","78054801","0.0-4.0","1920x1080","","8629.40000000596","{""age"":""20"",""gender"":""Female""}","","","",""
"","","","","","html-button-response","5","78102737","0.0-5.0","1920x1080","","47935","","<div class=""complex"">You are going to see a series of animations.<br><br></div><div class=""complex"">Move the slider to indicate how <strong style=""text-transform:capitalize"">COMPLEX</strong> you find each animation.<br><br></div><div class=""complex"">0 = Least Complex<br></div><div class=""complex"">1 = Most Complex<br><br></div><div class=""complex"">Remember to use the <strong><em>entire range</em></strong> of the slider to make your ratings.<br></div><div class=""complex"">Please <strong><em>take your time</em></strong> and carefully consider each rating you make.<br><br></div><div class=""complex"">The study has five sections and will take about 45 minutes to complete.<br><br></div>","0","",""
"","","","","","call-function","6","78102737","0.0-6.0","1920x1080","","","","","","",""
"","","","","","animation","7","78112080","0.0-7.0","1920x1080","","9341.5","24.07","img/314/4/2/bw/001.png","","","complex"
"","","","","","animation","8","78127872","0.0-8.0","1920x1080","","15790.59999999404","62.30","img/117/4/0.66667/bw/001.png","","","complex"
"","","","","","animation","9","78137104","0.0-9.0","1920x1080","","9231.800000011921","26.85","img/117/4.5/1/bw/001.png","","","complex"
"","","","","","animation","10","78154160","0.0-10.0","1920x1080","","17055","6","img/238/4.5/2/bw/001.png","","","complex"
"","","","","","animation","11","78159504","0.0-11.0","1920x1080","","5342.899999976158","78.31","img/117/3.5/0.5/bw/001.png","","","complex"
"","","","","","animation","12","78168713","0.0-12.0","1920x1080","","9207.5","10.98","img/238/4.5/0.5/bw/001.png","","","complex"
"","","","","","animation","13","78179033","0.0-13.0","1920x1080","","10319.300000011921","37.04","img/238/4.5/1.5/bw/001.png","","","complex"
"","","","","","animation","14","78189097","0.0-14.0","1920x1080","","10063.300000011921","73.81","img/117/4/2/bw/001.png","","","complex"
"","","","","","animation","15","78202721","0.0-15.0","1920x1080","","13623.199999988079","100","img/238/2.5/1.5/bw/001.png","","","complex"
"","","","","","animation","16","78214609","0.0-16.0","1920x1080","","11886.299999982119","5.29","img/117/5.5/1/bw/001.png","","","complex"
"","","","","","animation","17","78223882","0.0-17.0","1920x1080","","9278.699999988079","66","img/117/4/1.5/bw/001.png","","","complex"
"","","","","","animation","18","78233674","0.0-18.0","1920x1080","","9791.90000000596","70","img/314/3.5/1.5/bw/001.png","","","complex"
"","","","","","animation","19","78245370","0.0-19.0","1920x1080","","11695.300000011921","100","img/314/2.5/0.66667/bw/001.png","","","complex"
"","","","","","animation","20","78254250","0.0-20.0","1920x1080","","8878.59999999404","76.85","img/117/3.5/2/bw/001.png","","","complex"
"","","","","","animation","21","78263826","0.0-21.0","1920x1080","","9575.300000011921","35.58","img/238/4/1.5/bw/001.png","","","complex"
"","","","","","animation","22","78275218","0.0-22.0","1920x1080","","11391","85","img/238/3.5/1/bw/001.png","","","complex"
"","","","","","animation","23","78286321","0.0-23.0","1920x1080","","11095.5","19.97","img/314/4.5/2/bw/001.png","","","complex"
"","","","","","animation","24","78294104","0.0-24.0","1920x1080","","7782.699999988079","4.63","img/238/5.5/0.66667/bw/001.png","","","complex"
"","","","","","animation","25","78301497","0.0-25.0","1920x1080","","7388.4000000059605","17","img/117/5.5/0.66667/bw/001.png","","","complex"
"","","","","","animation","26","78308809","0.0-26.0","1920x1080","","7310.800000011921","38","img/314/4/0.5/bw/001.png","","","complex"
"","","","","","animation","27","78316370","0.0-27.0","1920x1080","","7560.9000000059605","11.38","img/314/5.5/0.5/bw/001.png","","","complex"
"","","","","","animation","28","78327121","0.0-28.0","1920x1080","","10749.59999999404","22.22","img/117/5.5/0.5/bw/001.png","","","complex"
"","","","","","animation","29","78335297","0.0-29.0","1920x1080","","8174.800000011921","72","img/238/4/1/bw/001.png","","","complex"
"","","","","","animation","30","78348486","0.0-30.0","1920x1080","","13191.100000023842","32","img/314/4.5/1.5/bw/001.png","","","complex"
"","","","","","animation","31","78358654","0.0-31.0","1920x1080","","10166.799999982119","96","img/238/2.5/2/bw/001.png","","","complex"
"","","","","","animation","32","78367646","0.0-32.0","1920x1080","","8991.199999988079","33.86","img/314/4/1.5/bw/001.png","","","complex"
"","","","","","animation","33","78373454","0.0-33.0","1920x1080","","5806.5999999940395","73.02","img/314/4/0.66667/bw/001.png","","","complex"
"","","","","","animation","34","78378006","0.0-34.0","1920x1080","","4550.5","80","img/117/4/1/bw/001.png","","","complex"
"","","","","","animation","35","78388022","0.0-35.0","1920x1080","","10015","42.46","img/238/4.5/1/bw/001.png","","","complex"
"","","","","","animation","36","78397254","0.0-36.0","1920x1080","","9230.899999976158","45","img/117/4.5/2/bw/001.png","","","complex"
"","","","","","animation","37","78402038","0.0-37.0","1920x1080","","4782.799999982119","65.08","img/238/3.5/2/bw/001.png","","","complex"
"","","","","","animation","38","78408645","0.0-38.0","1920x1080","","6607.5","95","img/117/2.5/1.5/bw/001.png","","","complex"
"","","","","","animation","39","78418558","0.0-39.0","1920x1080","","9911.40000000596","16.93","img/314/5.5/2/bw/001.png","","","complex"
"","","","","","animation","40","78423446","0.0-40.0","1920x1080","","4886.5","100","img/314/2.5/1/bw/001.png","","","complex"
"","","","","","animation","41","78427534","0.0-41.0","1920x1080","","4087.5999999940395","78.84","img/314/3.5/0.66667/bw/001.png","","","complex"
"","","","","","animation","42","78431629","0.0-42.0","1920x1080","","4094.4000000059605","89","img/238/3.5/0.66667/bw/001.png","","","complex"
"","","","","","animation","43","78435342","0.0-43.0","1920x1080","","3711.5","90.48","img/314/3.5/0.5/bw/001.png","","","complex"
"","","","","","animation","44","78447069","0.0-44.0","1920x1080","","11726.800000011921","77.91","img/238/3.5/1.5/bw/001.png","","","complex"
"","","","","","animation","45","78462885","0.0-45.0","1920x1080","","15814.199999988079","12","img/314/5.5/1.5/bw/001.png","","","complex"
"","","","","","animation","46","78469921","0.0-46.0","1920x1080","","7029.5999999940395","6.35","img/238/5.5/1.5/bw/001.png","","","complex"
"","","","","","animation","47","78474065","0.0-47.0","1920x1080","","4143.4000000059605","94.97","img/117/2.5/0.5/bw/001.png","","","complex"
"","","","","","animation","48","78484273","0.0-48.0","1920x1080","","10207","14","img/238/5.5/0.5/bw/001.png","","","complex"
"","","","","","animation","49","78490473","0.0-49.0","1920x1080","","6198.9000000059605","26.98","img/117/5.5/1.5/bw/001.png","","","complex"
"","","","","","animation","50","78494641","0.0-50.0","1920x1080","","4167.4000000059605","64.95","img/314/3.5/1/bw/001.png","","","complex"
"","","","","","animation","51","78508993","0.0-51.0","1920x1080","","14351.100000023842","100","img/238/2.5/0.5/bw/001.png","","","complex"
"","","","","","animation","52","78517890","0.0-52.0","1920x1080","","8896.09999999404","70","img/314/4.5/0.5/bw/001.png","","","complex"
"","","","","","animation","53","78523696","0.0-53.0","1920x1080","","5806.5","94","img/314/2.5/2/bw/001.png","","","complex"
"","","","","","animation","54","78531696","0.0-54.0","1920x1080","","7999","71","img/117/4/0.5/bw/001.png","","","complex"
"","","","","","animation","55","78537008","0.0-55.0","1920x1080","","5308.5999999940395","81.61","img/117/3.5/1.5/bw/001.png","","","complex"
"","","","","","animation","56","78543912","0.0-56.0","1920x1080","","6902.5999999940395","60.45","img/117/4.5/0.5/bw/001.png","","","complex"
"","","","","","animation","57","78550304","0.0-57.0","1920x1080","","6390.9000000059605","8.73","img/238/5.5/1/bw/001.png","","","complex"
"","","","","","animation","58","78557770","0.0-58.0","1920x1080","","7464.800000011921","3.04","img/238/5.5/2/bw/001.png","","","complex"
"","","","","","animation","59","78564720","0.0-59.0","1920x1080","","6948.200000017881","40","img/117/4.5/0.66667/bw/001.png","","","complex"
"","","","","","animation","60","78569753","0.0-60.0","1920x1080","","5031.899999976158","59.26","img/314/4/1/bw/001.png","","","complex"
"","","","","","animation","61","78581528","0.0-61.0","1920x1080","","11773","14","img/117/5.5/2/bw/001.png","","","complex"
"","","","","","animation","62","78596742","0.0-62.0","1920x1080","","15214.699999988079","35.98","img/314/4.5/1/bw/001.png","","","complex"
"","","","","","animation","63","78602600","0.0-63.0","1920x1080","","5855.5","71","img/238/3.5/0.5/bw/001.png","","","complex"
"","","","","","animation","64","78612246","0.0-64.0","1920x1080","","9645.199999988079","59.26","img/314/4.5/0.66667/bw/001.png","","","complex"
"","","","","","animation","65","78618984","0.0-65.0","1920x1080","","6736.199999988079","70","img/314/3.5/2/bw/001.png","","","complex"
"","","","","","animation","66","78626374","0.0-66.0","1920x1080","","7388.300000011921","12","img/314/5.5/0.66667/bw/001.png","","","complex"
"","","","","","animation","67","78630126","0.0-67.0","1920x1080","","3751.199999988079","67.72","img/117/3.5/1/bw/001.png","","","complex"
"","","","","","animation","68","78646690","0.0-68.0","1920x1080","","16566.80000001192","39","img/238/4.5/0.66667/bw/001.png","","","complex"
"","","","","","animation","69","78651018","0.0-69.0","1920x1080","","4327","86","img/238/2.5/1/bw/001.png","","","complex"
"","","","","","animation","70","78655614","0.0-70.0","1920x1080","","4594.399999976158","88.49","img/314/2.5/1.5/bw/001.png","","","complex"
"","","","","","animation","71","78659690","0.0-71.0","1920x1080","","4075.7999999821186","71.16","img/238/4/0.5/bw/001.png","","","complex"
"","","","","","animation","72","78668434","0.0-72.0","1920x1080","","8742.59999999404","98","img/238/2.5/0.66667/bw/001.png","","","complex"
"","","","","","animation","73","78672827","0.0-73.0","1920x1080","","4391.5","98","img/117/2.5/1/bw/001.png","","","complex"
"","","","","","animation","74","78677597","0.0-74.0","1920x1080","","4768.699999988079","100","img/314/2.5/0.5/bw/001.png","","","complex"
"","","","","","animation","75","78685522","0.0-75.0","1920x1080","","7924.5999999940395","75","img/238/4/0.66667/bw/001.png","","","complex"
"","","","","","animation","76","78690450","0.0-76.0","1920x1080","","4926.800000011921","38.62","img/117/4.5/1.5/bw/001.png","","","complex"
"","","","","","animation","77","78694506","0.0-77.0","1920x1080","","4055","45.77","img/238/4/2/bw/001.png","","","complex"
"","","","","","animation","78","78699597","0.0-78.0","1920x1080","","5089.9000000059605","18.12","img/314/5.5/1/bw/001.png","","","complex"
"","","","","","animation","79","78707599","0.0-79.0","1920x1080","","8002.9000000059605","66","img/117/3.5/0.66667/bw/001.png","","","complex"
"","","","","","animation","80","78712831","0.0-80.0","1920x1080","","5230.5","90","img/117/2.5/2/bw/001.png","","","complex"
"","","","","","animation","81","78717983","0.0-81.0","1920x1080","","5151.300000011921","98","img/117/2.5/0.66667/bw/001.png","","","complex"
"","","","","","html-button-response","82","78737432","0.0-82.0","1920x1080","","19447.29999998212","","<div class=""intro"">You are about to view a new series of animations.<br><br></div><div class=""intro"">You will evaluate them based on a different descriptor.<br><br></div><div class=""intro"">Move the slider to indicate how <strong style=""text-transform:capitalize"">APPEALING</strong> you find each animation.<br><br></div><div class=""intro"">0 = Least Appealing<br></div><div class=""intro"">1 = Most Appealing<br><br></div><div class=""intro"">Remember to use the <strong><em>entire range</em></strong> of the slider to make your ratings.<br></div><div class=""intro"">Please <strong><em>take your time</em></strong> and carefully consider each rating you make.<br><br></div>","0","",""
"","","","","","call-function","83","78737433","0.0-83.0","1920x1080","","","","","","",""
"","","","","","animation","84","78745167","0.0-84.0","1920x1080","","7733.800000011921","25.40","img/117/3.5/0.66667/bw/001.png","","","appealing"
"","","","","","animation","85","78750943","0.0-85.0","1920x1080","","5774.200000017881","74.34","img/117/4.5/1/bw/001.png","","","appealing"
"","","","","","animation","86","78758479","0.0-86.0","1920x1080","","7534.5999999940395","63.62","img/117/4.5/0.5/bw/001.png","","","appealing"
"","","","","","animation","87","78766530","0.0-87.0","1920x1080","","8039.299999982119","23","img/117/4/0.5/bw/001.png","","","appealing"
"","","","","","animation","88","78774458","0.0-88.0","1920x1080","","7926.600000023842","67","img/117/4/1.5/bw/001.png","","","appealing"
"","","","","","animation","89","78783657","0.0-89.0","1920x1080","","9198.299999982119","82","img/238/5.5/2/bw/001.png","","","appealing"
"","","","","","animation","90","78790514","0.0-90.0","1920x1080","","6854","85","img/314/4.5/2/bw/001.png","","","appealing"
"","","","","","animation","91","78797298","0.0-91.0","1920x1080","","6782.5999999940395","93.25","img/314/5.5/0.5/bw/001.png","","","appealing"
"","","","","","animation","92","78804090","0.0-92.0","1920x1080","","6789.800000011921","11","img/314/3.5/2/bw/001.png","","","appealing"
"","","","","","animation","93","78811226","0.0-93.0","1920x1080","","7134.799999982119","92.06","img/117/5.5/1/bw/001.png","","","appealing"
"","","","","","animation","94","78816737","0.0-94.0","1920x1080","","5509.4000000059605","66.80","img/117/4.5/1.5/bw/001.png","","","appealing"
"","","","","","animation","95","78827009","0.0-95.0","1920x1080","","10271.5","88.49","img/314/5.5/2/bw/001.png","","","appealing"
"","","","","","animation","96","78834793","0.0-96.0","1920x1080","","7782.5","90.61","img/117/5.5/0.66667/bw/001.png","","","appealing"
"","","","","","animation","97","78843938","0.0-97.0","1920x1080","","9143.90000000596","7.80","img/117/2.5/2/bw/001.png","","","appealing"
"","","","","","animation","98","78846825","0.0-98.0","1920x1080","","2883.4000000059605","2.25","img/238/2.5/1.5/bw/001.png","","","appealing"
"","","","","","animation","99","78850809","0.0-99.0","1920x1080","","3983.0999999940395","-1.19","img/314/2.5/0.5/bw/001.png","","","appealing"
"","","","","","animation","100","78858529","0.0-100.0","1920x1080","","7719.299999982119","63.23","img/238/4.5/0.5/bw/001.png","","","appealing"
"","","","","","animation","101","78863225","0.0-101.0","1920x1080","","4694.0999999940395","13","img/314/3.5/0.5/bw/001.png","","","appealing"
"","","","","","animation","102","78866088","0.0-102.0","1920x1080","","2862.7999999821186","7.01","img/314/2.5/1/bw/001.png","","","appealing"
"","","","","","animation","103","78871688","0.0-103.0","1920x1080","","5598.9000000059605","36.64","img/238/4/1.5/bw/001.png","","","appealing"
"","","","","","animation","104","78881161","0.0-104.0","1920x1080","","9471.299999982119","21","img/238/4/0.5/bw/001.png","","","appealing"
"","","","","","animation","105","78886157","0.0-105.0","1920x1080","","4999.299999982119","18.92","img/117/4/1/bw/001.png","","","appealing"
"","","","","","animation","106","78893141","0.0-106.0","1920x1080","","6982.399999976158","20.90","img/238/3.5/1.5/bw/001.png","","","appealing"
"","","","","","animation","107","78898205","0.0-107.0","1920x1080","","5062.0999999940395","16.67","img/117/3.5/1.5/bw/001.png","","","appealing"
"","","","","","animation","108","78904000","0.0-108.0","1920x1080","","5793.5","19.18","img/238/3.5/2/bw/001.png","","","appealing"
"","","","","","animation","109","78911805","0.0-109.0","1920x1080","","7804.5","77","img/314/5.5/1.5/bw/001.png","","","appealing"
"","","","","","animation","110","78914649","0.0-110.0","1920x1080","","2842.5","1.32","img/117/2.5/1.5/bw/001.png","","","appealing"
"","","","","","animation","111","78917265","0.0-111.0","1920x1080","","2615.4000000059605","17.33","img/117/3.5/1/bw/001.png","","","appealing"
"","","","","","animation","112","78921589","0.0-112.0","1920x1080","","4323.199999988079","0","img/117/2.5/0.5/bw/001.png","","","appealing"
"","","","","","animation","113","78928421","0.0-113.0","1920x1080","","6830.9000000059605","15","img/314/2.5/2/bw/001.png","","","appealing"
"","","","","","animation","114","78936725","0.0-114.0","1920x1080","","8302.699999988079","98","img/238/5.5/0.66667/bw/001.png","","","appealing"
"","","","","","animation","115","78941189","0.0-115.0","1920x1080","","4461.699999988079","0.40","img/117/2.5/0.66667/bw/001.png","","","appealing"
"","","","","","animation","116","78949129","0.0-116.0","1920x1080","","7935.0999999940395","70.37","img/117/4/2/bw/001.png","","","appealing"
"","","","","","animation","117","78954889","0.0-117.0","1920x1080","","5758.800000011921","76.98","img/314/4.5/1.5/bw/001.png","","","appealing"
"","","","","","animation","118","78962409","0.0-118.0","1920x1080","","7518.799999982119","67","img/238/4/1/bw/001.png","","","appealing"
"","","","","","animation","119","78966529","0.0-119.0","1920x1080","","4118","44.58","img/314/3.5/1/bw/001.png","","","appealing"
"","","","","","animation","120","78969577","0.0-120.0","1920x1080","","3046.5999999940395","0","img/238/2.5/0.66667/bw/001.png","","","appealing"
"","","","","","animation","121","78977604","0.0-121.0","1920x1080","","8025.700000017881","57.67","img/314/4.5/0.5/bw/001.png","","","appealing"
"","","","","","animation","122","78984145","0.0-122.0","1920x1080","","6540.299999982119","64.81","img/117/4.5/0.66667/bw/001.png","","","appealing"
"","","","","","animation","123","78990577","0.0-123.0","1920x1080","","6430.299999982119","69.84","img/314/4.5/1/bw/001.png","","","appealing"
"","","","","","animation","124","78996945","0.0-124.0","1920x1080","","6366.199999988079","85","img/117/5.5/2/bw/001.png","","","appealing"
"","","","","","animation","125","79002070","0.0-125.0","1920x1080","","5123.5","67.46","img/117/4.5/2/bw/001.png","","","appealing"
"","","","","","animation","126","79012584","0.0-126.0","1920x1080","","10514","84","img/314/5.5/1/bw/001.png","","","appealing"
"","","","","","animation","127","79019207","0.0-127.0","1920x1080","","6621.899999976158","5","img/238/2.5/1/bw/001.png","","","appealing"
"","","","","","animation","128","79024000","0.0-128.0","1920x1080","","4791.699999988079","36.24","img/238/4/2/bw/001.png","","","appealing"
"","","","","","animation","129","79031503","0.0-129.0","1920x1080","","7501.899999976158","60.98","img/314/4/2/bw/001.png","","","appealing"
"","","","","","animation","130","79036527","0.0-130.0","1920x1080","","5021.800000011921","68.92","img/238/4.5/2/bw/001.png","","","appealing"
"","","","","","animation","131","79039175","0.0-131.0","1920x1080","","2646.899999976158","33.60","img/117/3.5/2/bw/001.png","","","appealing"
"","","","","","animation","132","79045071","0.0-132.0","1920x1080","","5895.199999988079","78","img/314/5.5/0.66667/bw/001.png","","","appealing"
"","","","","","animation","133","79048266","0.0-133.0","1920x1080","","3194","22.75","img/238/3.5/1/bw/001.png","","","appealing"
"","","","","","animation","134","79050575","0.0-134.0","1920x1080","","2308.2999999821186","17.06","img/314/3.5/0.66667/bw/001.png","","","appealing"
"","","","","","animation","135","79053719","0.0-135.0","1920x1080","","3143.2999999821186","0","img/314/2.5/0.66667/bw/001.png","","","appealing"
"","","","","","animation","136","79059655","0.0-136.0","1920x1080","","5934.699999988079","0","img/238/3.5/0.5/bw/001.png","","","appealing"
"","","","","","animation","137","79070789","0.0-137.0","1920x1080","","11127","76","img/238/4.5/1/bw/001.png","","","appealing"
"","","","","","animation","138","79078566","0.0-138.0","1920x1080","","7775.5999999940395","84","img/238/5.5/0.5/bw/001.png","","","appealing"
"","","","","","animation","139","79085198","0.0-139.0","1920x1080","","6630.199999988079","68","img/314/4/0.66667/bw/001.png","","","appealing"
"","","","","","animation","140","79090166","0.0-140.0","1920x1080","","4967","8.86","img/238/2.5/2/bw/001.png","","","appealing"
"","","","","","animation","141","79093878","0.0-141.0","1920x1080","","3710.699999988079","19.58","img/314/3.5/1.5/bw/001.png","","","appealing"
"","","","","","animation","142","79096840","0.0-142.0","1920x1080","","2961.7000000178814","12.04","img/238/3.5/0.66667/bw/001.png","","","appealing"
"","","","","","animation","143","79101493","0.0-143.0","1920x1080","","4652","61.38","img/314/4.5/0.66667/bw/001.png","","","appealing"
"","","","","","animation","144","79104718","0.0-144.0","1920x1080","","3223.2999999821186","36.24","img/314/4/1/bw/001.png","","","appealing"
"","","","","","animation","145","79108477","0.0-145.0","1920x1080","","3758.5999999940395","64.42","img/314/4/1.5/bw/001.png","","","appealing"
"","","","","","animation","146","79111366","0.0-146.0","1920x1080","","2886.7999999821186","0","img/117/2.5/1/bw/001.png","","","appealing"
"","","","","","animation","147","79122062","0.0-147.0","1920x1080","","10695","19","img/117/3.5/0.5/bw/001.png","","","appealing"
"","","","","","animation","148","79125727","0.0-148.0","1920x1080","","3671","23.94","img/314/4/0.5/bw/001.png","","","appealing"
"","","","","","animation","149","79128701","0.0-149.0","1920x1080","","2972.0999999940395","0","img/314/2.5/1.5/bw/001.png","","","appealing"
"","","","","","animation","150","79138584","0.0-150.0","1920x1080","","9882.40000000596","89.15","img/238/5.5/1/bw/001.png","","","appealing"
"","","","","","animation","151","79144450","0.0-151.0","1920x1080","","5864.5","65.48","img/238/4.5/1.5/bw/001.png","","","appealing"
"","","","","","animation","152","79147991","0.0-152.0","1920x1080","","3539.9000000059605","0","img/238/2.5/0.5/bw/001.png","","","appealing"
"","","","","","animation","153","79155100","0.0-153.0","1920x1080","","7107.5999999940395","88.76","img/117/5.5/1.5/bw/001.png","","","appealing"
"","","","","","animation","154","79160728","0.0-154.0","1920x1080","","5620.299999982119","57.67","img/117/4/0.66667/bw/001.png","","","appealing"
"","","","","","animation","155","79167823","0.0-155.0","1920x1080","","7094.299999982119","66.93","img/238/4.5/0.66667/bw/001.png","","","appealing"
"","","","","","animation","156","79175700","0.0-156.0","1920x1080","","7875.4000000059605","82.80","img/117/5.5/0.5/bw/001.png","","","appealing"
"","","","","","animation","157","79187653","0.0-157.0","1920x1080","","11946.700000017881","68.39","img/238/4/0.66667/bw/001.png","","","appealing"
"","","","","","animation","158","79193176","0.0-158.0","1920x1080","","5521.4000000059605","75.26","img/238/5.5/1.5/bw/001.png","","","appealing"
"","","","","","html-button-response","159","79211875","0.0-159.0","1920x1080","","18697.19999998808","","<div class=""intro"">You are about to view a new series of animations.<br><br></div><div class=""intro"">You will evaluate them based on a different descriptor.<br><br></div><div class=""intro"">Move the slider to indicate how <strong style=""text-transform:capitalize"">RELAXING</strong> you find each animation.<br><br></div><div class=""intro"">0 = Least Relaxing<br></div><div class=""intro"">1 = Most Relaxing<br><br></div><div class=""intro"">Remember to use the <strong><em>entire range</em></strong> of the slider to make your ratings.<br></div><div class=""intro"">Please <strong><em>take your time</em></strong> and carefully consider each rating you make.<br><br></div>","0","",""
"","","","","","call-function","160","79211875","0.0-160.0","1920x1080","","","","","","",""
"","","","","","animation","161","79216036","0.0-161.0","1920x1080","","4160.5","69.84","img/117/4.5/1.5/bw/001.png","","","relaxing"
"","","","","","animation","162","79221946","0.0-162.0","1920x1080","","5908.899999976158","35","img/314/4/1/bw/001.png","","","relaxing"
"","","","","","animation","163","79227919","0.0-163.0","1920x1080","","5971.699999988079","42.59","img/117/4.5/0.5/bw/001.png","","","relaxing"
"","","","","","animation","164","79232154","0.0-164.0","1920x1080","","4233.5","6.22","img/238/3.5/1/bw/001.png","","","relaxing"
"","","","","","animation","165","79235303","0.0-165.0","1920x1080","","3147","0","img/314/2.5/1/bw/001.png","","","relaxing"
"","","","","","animation","166","79240738","0.0-166.0","1920x1080","","5433.800000011921","72","img/314/5.5/0.5/bw/001.png","","","relaxing"
"","","","","","animation","167","79243242","0.0-167.0","1920x1080","","2503.2999999821186","78.44","img/117/5.5/0.5/bw/001.png","","","relaxing"
"","","","","","animation","168","79247068","0.0-168.0","1920x1080","","3825.9000000059605","99","img/238/5.5/1/bw/001.png","","","relaxing"
"","","","","","animation","169","79250288","0.0-169.0","1920x1080","","3219.4000000059605","6.35","img/117/2.5/1.5/bw/001.png","","","relaxing"
"","","","","","animation","170","79254888","0.0-170.0","1920x1080","","4599.0999999940395","82.28","img/314/5.5/0.66667/bw/001.png","","","relaxing"
"","","","","","animation","171","79259273","0.0-171.0","1920x1080","","4382.799999982119","85","img/117/5.5/1/bw/001.png","","","relaxing"
"","","","","","animation","172","79267153","0.0-172.0","1920x1080","","7878.899999976158","85","img/117/4/2/bw/001.png","","","relaxing"
"","","","","","animation","173","79273934","0.0-173.0","1920x1080","","6779.9000000059605","88.62","img/238/4.5/1.5/bw/001.png","","","relaxing"
"","","","","","animation","174","79279801","0.0-174.0","1920x1080","","5864.300000011921","63","img/117/3.5/2/bw/001.png","","","relaxing"
"","","","","","animation","175","79283457","0.0-175.0","1920x1080","","3654.5","32.41","img/238/4/0.66667/bw/001.png","","","relaxing"
"","","","","","animation","176","79288705","0.0-176.0","1920x1080","","5246.299999982119","86","img/117/5.5/1.5/bw/001.png","","","relaxing"
"","","","","","animation","177","79291318","0.0-177.0","1920x1080","","2611.699999988079","14.55","img/117/4/0.5/bw/001.png","","","relaxing"
"","","","","","animation","178","79294601","0.0-178.0","1920x1080","","3282.399999976158","28.57","img/117/3.5/1.5/bw/001.png","","","relaxing"
"","","","","","animation","179","79298289","0.0-179.0","1920x1080","","3686.2999999821186","30.56","img/117/4.5/0.66667/bw/001.png","","","relaxing"
"","","","","","animation","180","79302425","0.0-180.0","1920x1080","","4135","0","img/117/2.5/2/bw/001.png","","","relaxing"
"","","","","","animation","181","79307087","0.0-181.0","1920x1080","","4662.5","0.53","img/238/2.5/2/bw/001.png","","","relaxing"
"","","","","","animation","182","79312033","0.0-182.0","1920x1080","","4943.9000000059605","35.32","img/314/4/1.5/bw/001.png","","","relaxing"
"","","","","","animation","183","79315303","0.0-183.0","1920x1080","","3268.800000011921","83.33","img/314/5.5/1/bw/001.png","","","relaxing"
"","","","","","animation","184","79318383","0.0-184.0","1920x1080","","3077.5","12.57","img/117/3.5/0.5/bw/001.png","","","relaxing"
"","","","","","animation","185","79321299","0.0-185.0","1920x1080","","2915.4000000059605","0.00","img/117/2.5/0.5/bw/001.png","","","relaxing"
"","","","","","animation","186","79327239","0.0-186.0","1920x1080","","5938.5999999940395","60.85","img/238/4.5/2/bw/001.png","","","relaxing"
"","","","","","animation","187","79331220","0.0-187.0","1920x1080","","3979.5999999940395","29.76","img/238/3.5/1.5/bw/001.png","","","relaxing"
"","","","","","animation","188","79333543","0.0-188.0","1920x1080","","2321.5","15.61","img/238/3.5/0.5/bw/001.png","","","relaxing"
"","","","","","animation","189","79336375","0.0-189.0","1920x1080","","2830.5999999940395","4.63","img/314/2.5/1.5/bw/001.png","","","relaxing"
"","","","","","animation","190","79339991","0.0-190.0","1920x1080","","3614.899999976158","11.90","img/314/4/0.66667/bw/001.png","","","relaxing"
"","","","","","animation","191","79343333","0.0-191.0","1920x1080","","3341.300000011921","85.05","img/314/5.5/2/bw/001.png","","","relaxing"
"","","","","","animation","192","79348423","0.0-192.0","1920x1080","","5088.399999976158","0.53","img/238/2.5/0.66667/bw/001.png","","","relaxing"
"","","","","","animation","193","79351503","0.0-193.0","1920x1080","","3078.4000000059605","0","img/314/2.5/0.5/bw/001.png","","","relaxing"
"","","","","","animation","194","79356807","0.0-194.0","1920x1080","","5303.299999982119","34.26","img/314/3.5/2/bw/001.png","","","relaxing"
"","","","","","animation","195","79364402","0.0-195.0","1920x1080","","7591.300000011921","58.99","img/117/4/1.5/bw/001.png","","","relaxing"
"","","","","","animation","196","79368118","0.0-196.0","1920x1080","","3713.9000000059605","35.85","img/238/4/0.5/bw/001.png","","","relaxing"
"","","","","","animation","197","79372885","0.0-197.0","1920x1080","","4765.5999999940395","84.92","img/117/5.5/2/bw/001.png","","","relaxing"
"","","","","","animation","198","79376105","0.0-198.0","1920x1080","","3219","0","img/117/2.5/0.66667/bw/001.png","","","relaxing"
"","","","","","animation","199","79379818","0.0-199.0","1920x1080","","3712.199999988079","23.02","img/314/3.5/0.5/bw/001.png","","","relaxing"
"","","","","","animation","200","79385561","0.0-200.0","1920x1080","","5742","27.78","img/314/3.5/1.5/bw/001.png","","","relaxing"
"","","","","","animation","201","79391904","0.0-201.0","1920x1080","","6341.5","58.07","img/117/4.5/1/bw/001.png","","","relaxing"
"","","","","","animation","202","79397535","0.0-202.0","1920x1080","","5628.5","70","img/117/4.5/2/bw/001.png","","","relaxing"
"","","","","","animation","203","79401618","0.0-203.0","1920x1080","","4082","37.17","img/117/4/1/bw/001.png","","","relaxing"
"","","","","","animation","204","79404377","0.0-204.0","1920x1080","","2758.300000011921","4.10","img/117/2.5/1/bw/001.png","","","relaxing"
"","","","","","animation","205","79406409","0.0-205.0","1920x1080","","2030.8999999761581","10.32","img/117/3.5/1/bw/001.png","","","relaxing"
"","","","","","animation","206","79412351","0.0-206.0","1920x1080","","5940.5","13.36","img/238/3.5/2/bw/001.png","","","relaxing"
"","","","","","animation","207","79416921","0.0-207.0","1920x1080","","4568.600000023842","32","img/314/4.5/0.5/bw/001.png","","","relaxing"
"","","","","","animation","208","79419918","0.0-208.0","1920x1080","","2996.399999976158","4.10","img/238/2.5/1.5/bw/001.png","","","relaxing"
"","","","","","animation","209","79424975","0.0-209.0","1920x1080","","5057.5","64.95","img/314/4.5/2/bw/001.png","","","relaxing"
"","","","","","animation","210","79436207","0.0-210.0","1920x1080","","11230.200000017881","32.28","img/238/3.5/0.66667/bw/001.png","","","relaxing"
"","","","","","animation","211","79443550","0.0-211.0","1920x1080","","7340.4000000059605","30.69","img/238/4.5/0.5/bw/001.png","","","relaxing"
"","","","","","animation","212","79449224","0.0-212.0","1920x1080","","5672.5999999940395","84.13","img/238/5.5/1.5/bw/001.png","","","relaxing"
"","","","","","animation","213","79454303","0.0-213.0","1920x1080","","5077","66.80","img/314/4/2/bw/001.png","","","relaxing"
"","","","","","animation","214","79458433","0.0-214.0","1920x1080","","4127.800000011921","63.62","img/238/4/1/bw/001.png","","","relaxing"
"","","","","","animation","215","79461033","0.0-215.0","1920x1080","","2599","32.14","img/314/3.5/0.66667/bw/001.png","","","relaxing"
"","","","","","animation","216","79468023","0.0-216.0","1920x1080","","6989.199999988079","72","img/238/5.5/0.5/bw/001.png","","","relaxing"
"","","","","","animation","217","79472352","0.0-217.0","1920x1080","","4327.199999988079","79.23","img/238/5.5/0.66667/bw/001.png","","","relaxing"
"","","","","","animation","218","79474767","0.0-218.0","1920x1080","","2413.9000000059605","14.81","img/314/2.5/2/bw/001.png","","","relaxing"
"","","","","","animation","219","79477617","0.0-219.0","1920x1080","","2848.2999999821186","2.65","img/238/2.5/0.5/bw/001.png","","","relaxing"
"","","","","","animation","220","79480166","0.0-220.0","1920x1080","","2547.899999976158","13.62","img/117/3.5/0.66667/bw/001.png","","","relaxing"
"","","","","","animation","221","79482807","0.0-221.0","1920x1080","","2640.199999988079","13","img/314/3.5/1/bw/001.png","","","relaxing"
"","","","","","animation","222","79487785","0.0-222.0","1920x1080","","4974.4000000059605","74","img/314/5.5/1.5/bw/001.png","","","relaxing"
"","","","","","animation","223","79491355","0.0-223.0","1920x1080","","3568.5999999940395","0","img/314/2.5/0.66667/bw/001.png","","","relaxing"
"","","","","","animation","224","79493651","0.0-224.0","1920x1080","","2293.5999999940395","5.56","img/238/2.5/1/bw/001.png","","","relaxing"
"","","","","","animation","225","79497201","0.0-225.0","1920x1080","","3548.899999976158","20.37","img/117/4/0.66667/bw/001.png","","","relaxing"
"","","","","","animation","226","79504457","0.0-226.0","1920x1080","","7254.699999988079","60","img/314/4.5/0.66667/bw/001.png","","","relaxing"
"","","","","","animation","227","79507841","0.0-227.0","1920x1080","","3381.7999999821186","63.10","img/314/4.5/1/bw/001.png","","","relaxing"
"","","","","","animation","228","79512977","0.0-228.0","1920x1080","","5134.800000011921","59.79","img/238/4.5/1/bw/001.png","","","relaxing"
"","","","","","animation","229","79516537","0.0-229.0","1920x1080","","3558.2000000178814","31","img/314/4/0.5/bw/001.png","","","relaxing"
"","","","","","animation","230","79520553","0.0-230.0","1920x1080","","4014.100000023842","61.51","img/238/4/2/bw/001.png","","","relaxing"
"","","","","","animation","231","79524657","0.0-231.0","1920x1080","","4103.0999999940395","73.02","img/117/5.5/0.66667/bw/001.png","","","relaxing"
"","","","","","animation","232","79541273","0.0-232.0","1920x1080","","16614.80000001192","85.32","img/314/4.5/1.5/bw/001.png","","","relaxing"
"","","","","","animation","233","79548289","0.0-233.0","1920x1080","","7014.299999982119","63","img/238/4.5/0.66667/bw/001.png","","","relaxing"
"","","","","","animation","234","79552857","0.0-234.0","1920x1080","","4566.799999982119","65.08","img/238/4/1.5/bw/001.png","","","relaxing"
"","","","","","animation","235","79565057","0.0-235.0","1920x1080","","12198.200000017881","88","img/238/5.5/2/bw/001.png","","","relaxing"
"","","","","","html-button-response","236","79583753","0.0-236.0","1920x1080","","18694.5","","<div class=""intro"">You are about to view a new series of animations.<br><br></div><div class=""intro"">You will evaluate them based on a different descriptor.<br><br></div><div class=""intro"">Move the slider to indicate how <strong style=""text-transform:capitalize"">INTERESTING</strong> you find each animation.<br><br></div><div class=""intro"">0 = Least Interesting<br></div><div class=""intro"">1 = Most Interesting<br><br></div><div class=""intro"">Remember to use the <strong><em>entire range</em></strong> of the slider to make your ratings.<br></div><div class=""intro"">Please <strong><em>take your time</em></strong> and carefully consider each rating you make.<br><br></div>","0","",""
"","","","","","call-function","237","79583754","0.0-237.0","1920x1080","","","","","","",""
"","","","","","animation","238","79589241","0.0-238.0","1920x1080","","5486.4000000059605","72.09","img/117/3.5/1/bw/001.png","","","interesting"
"","","","","","animation","239","79594793","0.0-239.0","1920x1080","","5550.700000017881","77.12","img/117/2.5/0.66667/bw/001.png","","","interesting"
"","","","","","animation","240","79598234","0.0-240.0","1920x1080","","3438.300000011921","87","img/238/4.5/2/bw/001.png","","","interesting"
"","","","","","animation","241","79601417","0.0-241.0","1920x1080","","3181.9000000059605","89.95","img/117/4/0.66667/bw/001.png","","","interesting"
"","","","","","animation","242","79604748","0.0-242.0","1920x1080","","3332.300000011921","28.17","img/117/2.5/1/bw/001.png","","","interesting"
"","","","","","animation","243","79608718","0.0-243.0","1920x1080","","3968.7000000178814","89.02","img/117/4/1/bw/001.png","","","interesting"
"","","","","","animation","244","79613582","0.0-244.0","1920x1080","","4862.700000017881","70.63","img/314/3.5/0.5/bw/001.png","","","interesting"
"","","","","","animation","245","79617455","0.0-245.0","1920x1080","","3871.4000000059605","39","img/117/3.5/0.66667/bw/001.png","","","interesting"
"","","","","","animation","246","79624671","0.0-246.0","1920x1080","","7214.600000023842","6.35","img/238/2.5/0.5/bw/001.png","","","interesting"
"","","","","","animation","247","79628271","0.0-247.0","1920x1080","","3596.5999999940395","70.90","img/238/3.5/0.66667/bw/001.png","","","interesting"
"","","","","","animation","248","79635465","0.0-248.0","1920x1080","","7193.0999999940395","87","img/314/3.5/0.66667/bw/001.png","","","interesting"
"","","","","","animation","249","79641798","0.0-249.0","1920x1080","","6332","82.94","img/238/4.5/0.5/bw/001.png","","","interesting"
"","","","","","animation","250","79656823","0.0-250.0","1920x1080","","15023.300000011921","84","img/314/3.5/1/bw/001.png","","","interesting"
"","","","","","animation","251","79661166","0.0-251.0","1920x1080","","4341.600000023842","83.99","img/117/3.5/1.5/bw/001.png","","","interesting"
"","","","","","animation","252","79666490","0.0-252.0","1920x1080","","5319.799999982119","83.47","img/238/3.5/2/bw/001.png","","","interesting"
"","","","","","animation","253","79671785","0.0-253.0","1920x1080","","5293.800000011921","86","img/117/4.5/1/bw/001.png","","","interesting"
"","","","","","animation","254","79675951","0.0-254.0","1920x1080","","4164.5999999940395","87.57","img/314/4.5/1/bw/001.png","","","interesting"
"","","","","","animation","255","79680969","0.0-255.0","1920x1080","","5016.4000000059605","68.65","img/238/2.5/1/bw/001.png","","","interesting"
"","","","","","animation","256","79685018","0.0-256.0","1920x1080","","4047.2999999821186","64.55","img/117/3.5/2/bw/001.png","","","interesting"
"","","","","","animation","257","79688753","0.0-257.0","1920x1080","","3734.199999988079","75.53","img/314/5.5/1/bw/001.png","","","interesting"
"","","","","","animation","258","79691301","0.0-258.0","1920x1080","","2546.600000023842","69","img/238/5.5/0.66667/bw/001.png","","","interesting"
"","","","","","animation","259","79694885","0.0-259.0","1920x1080","","3582","78.84","img/117/4.5/0.66667/bw/001.png","","","interesting"
"","","","","","animation","260","79698751","0.0-260.0","1920x1080","","3865.7000000178814","28.31","img/238/3.5/1/bw/001.png","","","interesting"
"","","","","","animation","261","79702769","0.0-261.0","1920x1080","","4016.9000000059605","69.84","img/238/5.5/0.5/bw/001.png","","","interesting"
"","","","","","animation","262","79707368","0.0-262.0","1920x1080","","4597.399999976158","74","img/238/4/0.66667/bw/001.png","","","interesting"
"","","","","","animation","263","79711690","0.0-263.0","1920x1080","","4320.299999982119","2.65","img/238/2.5/0.66667/bw/001.png","","","interesting"
"","","","","","animation","264","79716601","0.0-264.0","1920x1080","","4910.200000017881","15.34","img/314/3.5/2/bw/001.png","","","interesting"
"","","","","","animation","265","79720058","0.0-265.0","1920x1080","","3455.0999999940395","17","img/238/3.5/1.5/bw/001.png","","","interesting"
"","","","","","animation","266","79722737","0.0-266.0","1920x1080","","2678","81.48","img/117/5.5/0.66667/bw/001.png","","","interesting"
"","","","","","animation","267","79729268","0.0-267.0","1920x1080","","6529.399999976158","59.66","img/238/4/2/bw/001.png","","","interesting"
"","","","","","animation","268","79735301","0.0-268.0","1920x1080","","6032.0999999940395","61.51","img/314/3.5/1.5/bw/001.png","","","interesting"
"","","","","","animation","269","79739953","0.0-269.0","1920x1080","","4650.5999999940395","65.08","img/314/4.5/0.66667/bw/001.png","","","interesting"
"","","","","","animation","270","79744518","0.0-270.0","1920x1080","","4563.300000011921","77","img/117/5.5/1/bw/001.png","","","interesting"
"","","","","","animation","271","79750634","0.0-271.0","1920x1080","","6115.5","80","img/314/5.5/0.66667/bw/001.png","","","interesting"
"","","","","","animation","272","79757426","0.0-272.0","1920x1080","","6789.9000000059605","60","img/238/5.5/1/bw/001.png","","","interesting"
"","","","","","animation","273","79764705","0.0-273.0","1920x1080","","7278.399999976158","86","img/314/2.5/1.5/bw/001.png","","","interesting"
"","","","","","animation","274","79768584","0.0-274.0","1920x1080","","3877.600000023842","70.90","img/314/5.5/2/bw/001.png","","","interesting"
"","","","","","animation","275","79772068","0.0-275.0","1920x1080","","3481.9000000059605","85.32","img/117/3.5/0.5/bw/001.png","","","interesting"
"","","","","","animation","276","79775384","0.0-276.0","1920x1080","","3315.5","68.39","img/314/5.5/1.5/bw/001.png","","","interesting"
"","","","","","animation","277","79782273","0.0-277.0","1920x1080","","6887.5999999940395","81","img/117/2.5/1.5/bw/001.png","","","interesting"
"","","","","","animation","278","79787982","0.0-278.0","1920x1080","","5709.5999999940395","80.16","img/238/3.5/0.5/bw/001.png","","","interesting"
"","","","","","animation","279","79792703","0.0-279.0","1920x1080","","4719.799999982119","80.42","img/238/4.5/1.5/bw/001.png","","","interesting"
"","","","","","animation","280","79797149","0.0-280.0","1920x1080","","4444.300000011921","80","img/314/4.5/2/bw/001.png","","","interesting"
"","","","","","animation","281","79804632","0.0-281.0","1920x1080","","7482.0999999940395","90.08","img/117/5.5/1.5/bw/001.png","","","interesting"
"","","","","","animation","282","79808882","0.0-282.0","1920x1080","","4248.4000000059605","94.58","img/238/2.5/2/bw/001.png","","","interesting"
"","","","","","animation","283","79819316","0.0-283.0","1920x1080","","10431.90000000596","82","img/117/4.5/1.5/bw/001.png","","","interesting"
"","","","","","animation","284","79827271","0.0-284.0","1920x1080","","7953.699999988079","65","img/117/5.5/2/bw/001.png","","","interesting"
"","","","","","animation","285","79832399","0.0-285.0","1920x1080","","5126.4000000059605","3","img/314/2.5/0.66667/bw/001.png","","","interesting"
"","","","","","animation","286","79838832","0.0-286.0","1920x1080","","6431.9000000059605","83.20","img/117/4.5/2/bw/001.png","","","interesting"
"","","","","","animation","287","79845546","0.0-287.0","1920x1080","","6715.300000011921","75.40","img/238/2.5/1.5/bw/001.png","","","interesting"
"","","","","","animation","288","79868013","0.0-288.0","1920x1080","","22465.40000000596","61","img/117/4/1.5/bw/001.png","","","interesting"
"","","","","","animation","289","79871700","0.0-289.0","1920x1080","","3686.5","67.99","img/314/4/0.66667/bw/001.png","","","interesting"
"","","","","","animation","290","79875501","0.0-290.0","1920x1080","","3798.800000011921","7.54","img/117/2.5/0.5/bw/001.png","","","interesting"
"","","","","","animation","291","79878512","0.0-291.0","1920x1080","","3009.699999988079","5.42","img/314/2.5/0.5/bw/001.png","","","interesting"
"","","","","","animation","292","79883328","0.0-292.0","1920x1080","","4814.200000017881","36.64","img/117/4/0.5/bw/001.png","","","interesting"
"","","","","","animation","293","79887779","0.0-293.0","1920x1080","","4449.600000023842","62","img/314/4/2/bw/001.png","","","interesting"
"","","","","","animation","294","79891165","0.0-294.0","1920x1080","","3383.800000011921","65.34","img/314/4/0.5/bw/001.png","","","interesting"
"","","","","","animation","295","79901229","0.0-295.0","1920x1080","","10063.199999988079","68.12","img/117/4/2/bw/001.png","","","interesting"
"","","","","","animation","296","79909169","0.0-296.0","1920x1080","","7933.300000011921","67.33","img/238/4.5/0.66667/bw/001.png","","","interesting"
"","","","","","animation","297","79912769","0.0-297.0","1920x1080","","3598.5","80","img/314/2.5/2/bw/001.png","","","interesting"
"","","","","","animation","298","79919545","0.0-298.0","1920x1080","","6774.5999999940395","69","img/238/5.5/2/bw/001.png","","","interesting"
"","","","","","animation","299","79924384","0.0-299.0","1920x1080","","4837.5999999940395","78.17","img/314/2.5/1/bw/001.png","","","interesting"
"","","","","","animation","300","79928367","0.0-300.0","1920x1080","","3981.699999988079","71.83","img/314/4/1.5/bw/001.png","","","interesting"
"","","","","","animation","301","79932801","0.0-301.0","1920x1080","","4432.700000017881","70.11","img/238/4/0.5/bw/001.png","","","interesting"
"","","","","","animation","302","79936601","0.0-302.0","1920x1080","","3798.5999999940395","73.68","img/238/4/1.5/bw/001.png","","","interesting"
"","","","","","animation","303","79945572","0.0-303.0","1920x1080","","8969.300000011921","94","img/238/4.5/1/bw/001.png","","","interesting"
"","","","","","animation","304","79950336","0.0-304.0","1920x1080","","4762.699999988079","87.57","img/314/5.5/0.5/bw/001.png","","","interesting"
"","","","","","animation","305","79954457","0.0-305.0","1920x1080","","4119.200000017881","87.83","img/238/4/1/bw/001.png","","","interesting"
"","","","","","animation","306","79958324","0.0-306.0","1920x1080","","3865","81.61","img/117/4.5/0.5/bw/001.png","","","interesting"
"","","","","","animation","307","79961938","0.0-307.0","1920x1080","","3610.5999999940395","82.67","img/117/5.5/0.5/bw/001.png","","","interesting"
"","","","","","animation","308","79965251","0.0-308.0","1920x1080","","3311.5999999940395","81.22","img/314/4.5/0.5/bw/001.png","","","interesting"
"","","","","","animation","309","79970467","0.0-309.0","1920x1080","","5214.799999982119","66","img/238/5.5/1.5/bw/001.png","","","interesting"
"","","","","","animation","310","79976467","0.0-310.0","1920x1080","","5998.799999982119","33","img/314/4.5/1.5/bw/001.png","","","interesting"
"","","","","","animation","311","79981089","0.0-311.0","1920x1080","","4621.299999982119","81.08","img/117/2.5/2/bw/001.png","","","interesting"
"","","","","","animation","312","79985937","0.0-312.0","1920x1080","","4846.4000000059605","78.44","img/314/4/1/bw/001.png","","","interesting"
"","","","","","html-button-response","313","80015371","0.0-313.0","1920x1080","","29432","","<div class=""intro"">You are about to view a new series of animations.<br><br></div><div class=""intro"">You will evaluate them based on a different descriptor.<br><br></div><div class=""intro"">Move the slider to indicate how <strong style=""text-transform:capitalize"">NATURAL</strong> you find each animation.<br><br></div><div class=""intro"">0 = Least Natural<br></div><div class=""intro"">1 = Most Natural<br><br></div><div class=""intro"">Remember to use the <strong><em>entire range</em></strong> of the slider to make your ratings.<br></div><div class=""intro"">Please <strong><em>take your time</em></strong> and carefully consider each rating you make.<br><br></div>","0","",""
"","","","","","call-function","314","80015375","0.0-314.0","1920x1080","","","","","","",""
"","","","","","animation","315","80023602","0.0-315.0","1920x1080","","8222.59999999404","58.86","img/117/4/1.5/bw/001.png","","","natural"
"","","","","","animation","316","80029336","0.0-316.0","1920x1080","","5732.299999982119","40","img/238/3.5/2/bw/001.png","","","natural"
"","","","","","animation","317","80032256","0.0-317.0","1920x1080","","2917.9000000059605","70.63","img/117/4.5/2/bw/001.png","","","natural"
"","","","","","animation","318","80037232","0.0-318.0","1920x1080","","4974.9000000059605","80.56","img/314/5.5/0.66667/bw/001.png","","","natural"
"","","","","","animation","319","80039472","0.0-319.0","1920x1080","","2236.0999999940395","76.19","img/117/5.5/0.66667/bw/001.png","","","natural"
"","","","","","animation","320","80044184","0.0-320.0","1920x1080","","4711","0","img/238/2.5/0.5/bw/001.png","","","natural"
"","","","","","animation","321","80047741","0.0-321.0","1920x1080","","3555.5999999940395","22.35","img/238/4/2/bw/001.png","","","natural"
"","","","","","animation","322","80050816","0.0-322.0","1920x1080","","3073.2000000178814","14.42","img/238/4/0.66667/bw/001.png","","","natural"
"","","","","","animation","323","80056374","0.0-323.0","1920x1080","","5557.100000023842","21.43","img/117/3.5/1.5/bw/001.png","","","natural"
"","","","","","animation","324","80063226","0.0-324.0","1920x1080","","6850.4000000059605","66.01","img/238/2.5/2/bw/001.png","","","natural"
"","","","","","animation","325","80067316","0.0-325.0","1920x1080","","4087.800000011921","71.03","img/238/4.5/1.5/bw/001.png","","","natural"
"","","","","","animation","326","80071600","0.0-326.0","1920x1080","","4282.800000011921","71.56","img/238/4/1/bw/001.png","","","natural"
"","","","","","animation","327","80080073","0.0-327.0","1920x1080","","8470.300000011921","75","img/314/2.5/1.5/bw/001.png","","","natural"
"","","","","","animation","328","80082971","0.0-328.0","1920x1080","","2897.4000000059605","86","img/117/5.5/2/bw/001.png","","","natural"
"","","","","","animation","329","80086617","0.0-329.0","1920x1080","","3642.5","40.74","img/314/4/1.5/bw/001.png","","","natural"
"","","","","","animation","330","80090105","0.0-330.0","1920x1080","","3486.800000011921","80.69","img/238/5.5/0.66667/bw/001.png","","","natural"
"","","","","","animation","331","80093473","0.0-331.0","1920x1080","","3366.199999988079","73.02","img/314/4.5/1.5/bw/001.png","","","natural"
"","","","","","animation","332","80101985","0.0-332.0","1920x1080","","8509.800000011921","24","img/117/3.5/1/bw/001.png","","","natural"
"","","","","","animation","333","80104605","0.0-333.0","1920x1080","","2619.2000000178814","25.53","img/117/4.5/1/bw/001.png","","","natural"
"","","","","","animation","334","80113905","0.0-334.0","1920x1080","","9298.200000017881","68","img/238/4.5/1/bw/001.png","","","natural"
"","","","","","animation","335","80118073","0.0-335.0","1920x1080","","4166.299999982119","26.85","img/238/2.5/1/bw/001.png","","","natural"
"","","","","","animation","336","80121266","0.0-336.0","1920x1080","","3192.199999988079","9.79","img/117/4.5/0.5/bw/001.png","","","natural"
"","","","","","animation","337","80123666","0.0-337.0","1920x1080","","2398.7000000178814","8.20","img/314/4/0.5/bw/001.png","","","natural"
"","","","","","animation","338","80127100","0.0-338.0","1920x1080","","3432.0999999940395","0.93","img/117/2.5/0.66667/bw/001.png","","","natural"
"","","","","","animation","339","80130965","0.0-339.0","1920x1080","","3864.300000011921","29.50","img/117/4/2/bw/001.png","","","natural"
"","","","","","animation","340","80134824","0.0-340.0","1920x1080","","3853.899999976158","2.25","img/117/2.5/1.5/bw/001.png","","","natural"
"","","","","","animation","341","80138605","0.0-341.0","1920x1080","","3779.4000000059605","28.97","img/314/4/1/bw/001.png","","","natural"
"","","","","","animation","342","80144091","0.0-342.0","1920x1080","","5475","32","img/117/4.5/0.66667/bw/001.png","","","natural"
"","","","","","animation","343","80147794","0.0-343.0","1920x1080","","3700.800000011921","81.35","img/314/5.5/1.5/bw/001.png","","","natural"
"","","","","","animation","344","80151060","0.0-344.0","1920x1080","","3264.9000000059605","1.59","img/238/3.5/0.5/bw/001.png","","","natural"
"","","","","","animation","345","80154442","0.0-345.0","1920x1080","","3379.9000000059605","8.86","img/314/4.5/0.5/bw/001.png","","","natural"
"","","","","","animation","346","80158178","0.0-346.0","1920x1080","","3735.4000000059605","0.00","img/238/2.5/1.5/bw/001.png","","","natural"
"","","","","","animation","347","80162033","0.0-347.0","1920x1080","","3853.5","13.23","img/238/4.5/0.5/bw/001.png","","","natural"
"","","","","","animation","348","80166692","0.0-348.0","1920x1080","","4656.699999988079","61.77","img/238/4.5/2/bw/001.png","","","natural"
"","","","","","animation","349","80170532","0.0-349.0","1920x1080","","3838.4000000059605","26.06","img/314/4/0.66667/bw/001.png","","","natural"
"","","","","","animation","350","80177130","0.0-350.0","1920x1080","","6596.799999982119","71","img/117/3.5/2/bw/001.png","","","natural"
"","","","","","animation","351","80182794","0.0-351.0","1920x1080","","5661.800000011921","67.06","img/117/2.5/2/bw/001.png","","","natural"
"","","","","","animation","352","80188616","0.0-352.0","1920x1080","","5820.699999988079","75.79","img/117/5.5/0.5/bw/001.png","","","natural"
"","","","","","animation","353","80195115","0.0-353.0","1920x1080","","6496.9000000059605","61.38","img/314/2.5/2/bw/001.png","","","natural"
"","","","","","animation","354","80205947","0.0-354.0","1920x1080","","10830","34","img/117/4/0.5/bw/001.png","","","natural"
"","","","","","animation","355","80209862","0.0-355.0","1920x1080","","3913.699999988079","16.27","img/117/2.5/1/bw/001.png","","","natural"
"","","","","","animation","356","80214276","0.0-356.0","1920x1080","","4412.199999988079","26.72","img/238/3.5/0.66667/bw/001.png","","","natural"
"","","","","","animation","357","80219294","0.0-357.0","1920x1080","","5016.4000000059605","60.71","img/314/4.5/1/bw/001.png","","","natural"
"","","","","","animation","358","80226492","0.0-358.0","1920x1080","","7196.5999999940395","29.23","img/314/3.5/1/bw/001.png","","","natural"
"","","","","","animation","359","80232959","0.0-359.0","1920x1080","","6465","69.71","img/117/4.5/1.5/bw/001.png","","","natural"
"","","","","","animation","360","80237516","0.0-360.0","1920x1080","","4555.5","93","img/238/5.5/2/bw/001.png","","","natural"
"","","","","","animation","361","80242417","0.0-361.0","1920x1080","","4898.5","63","img/238/4/1.5/bw/001.png","","","natural"
"","","","","","animation","362","80247319","0.0-362.0","1920x1080","","4901","9","img/117/3.5/0.66667/bw/001.png","","","natural"
"","","","","","animation","363","80250926","0.0-363.0","1920x1080","","3605.5999999940395","5.16","img/314/2.5/1/bw/001.png","","","natural"
"","","","","","animation","364","80253309","0.0-364.0","1920x1080","","2381.4000000059605","0","img/117/2.5/0.5/bw/001.png","","","natural"
"","","","","","animation","365","80256226","0.0-365.0","1920x1080","","2914.9000000059605","73.15","img/117/5.5/1.5/bw/001.png","","","natural"
"","","","","","animation","366","80260443","0.0-366.0","1920x1080","","4215.100000023842","64.29","img/238/3.5/1/bw/001.png","","","natural"
"","","","","","animation","367","80262944","0.0-367.0","1920x1080","","2500.0999999940395","34.52","img/238/4/0.5/bw/001.png","","","natural"
"","","","","","animation","368","80265801","0.0-368.0","1920x1080","","2865.0999999940395","33.20","img/117/4/1/bw/001.png","","","natural"
"","","","","","animation","369","80270538","0.0-369.0","1920x1080","","4734.899999976158","20.50","img/238/4.5/0.66667/bw/001.png","","","natural"
"","","","","","animation","370","80273149","0.0-370.0","1920x1080","","2610.5","25.79","img/314/4/2/bw/001.png","","","natural"
"","","","","","animation","371","80277520","0.0-371.0","1920x1080","","4369.4000000059605","5","img/314/2.5/0.66667/bw/001.png","","","natural"
"","","","","","animation","372","80280184","0.0-372.0","1920x1080","","2661.7000000178814","74.60","img/314/5.5/2/bw/001.png","","","natural"
"","","","","","animation","373","80288385","0.0-373.0","1920x1080","","8200","61.64","img/238/3.5/1.5/bw/001.png","","","natural"
"","","","","","animation","374","80292236","0.0-374.0","1920x1080","","3848.699999988079","9.52","img/117/3.5/0.5/bw/001.png","","","natural"
"","","","","","animation","375","80296522","0.0-375.0","1920x1080","","4284.5999999940395","79.23","img/238/5.5/1.5/bw/001.png","","","natural"
"","","","","","animation","376","80300231","0.0-376.0","1920x1080","","3707.300000011921","98","img/238/5.5/1/bw/001.png","","","natural"
"","","","","","animation","377","80304250","0.0-377.0","1920x1080","","4017.5999999940395","96","img/117/5.5/1/bw/001.png","","","natural"
"","","","","","animation","378","80307899","0.0-378.0","1920x1080","","3647.699999988079","93.39","img/314/5.5/1/bw/001.png","","","natural"
"","","","","","animation","379","80311401","0.0-379.0","1920x1080","","3500.0999999940395","79.23","img/238/5.5/0.5/bw/001.png","","","natural"
"","","","","","animation","380","80316266","0.0-380.0","1920x1080","","4860.100000023842","71.69","img/314/4.5/0.66667/bw/001.png","","","natural"
"","","","","","animation","381","80320450","0.0-381.0","1920x1080","","4182.4000000059605","84.52","img/314/5.5/0.5/bw/001.png","","","natural"
"","","","","","animation","382","80324555","0.0-382.0","1920x1080","","4105.4000000059605","37.96","img/314/3.5/2/bw/001.png","","","natural"
"","","","","","animation","383","80328198","0.0-383.0","1920x1080","","3641.7000000178814","37.43","img/117/4/0.66667/bw/001.png","","","natural"
"","","","","","animation","384","80331064","0.0-384.0","1920x1080","","2863.5999999940395","17","img/314/3.5/0.66667/bw/001.png","","","natural"
"","","","","","animation","385","80333568","0.0-385.0","1920x1080","","2502.600000023842","11","img/314/3.5/1.5/bw/001.png","","","natural"
"","","","","","animation","386","80336047","0.0-386.0","1920x1080","","2477.5999999940395","0.40","img/238/2.5/0.66667/bw/001.png","","","natural"
"","","","","","animation","387","80339247","0.0-387.0","1920x1080","","3198.5","5.82","img/314/3.5/0.5/bw/001.png","","","natural"
"","","","","","animation","388","80345998","0.0-388.0","1920x1080","","6750.200000017881","79","img/314/4.5/2/bw/001.png","","","natural"
"","","","","","animation","389","80349447","0.0-389.0","1920x1080","","3447.5999999940395","0.13","img/314/2.5/0.5/bw/001.png","","","natural"
"","","","","","html-button-response","390","80391670","0.0-390.0","1920x1080","","42208.40000000596","","<strong>Study Debriefing</strong><br><p class=""debrief""><strong>Background:</strong> The patterns you rated are called <em>fractals</em>. The term fractal describes a class of irregular curves or shapes for which any suitably chosen part is similar in shape to a given larger or smaller part when magnified or reduced to the same size. Fractal properties are found throughout the natural and manmade world. The series of animations you saw today displayed animated fractal patterns of a varying complexity.</p><p class=""debrief""><strong>Purpose of this study:</strong> We hope to better understand how the perception of static fractals differs from the perception of animated fractals, and how the speed of the animated patterns influences people&apos;s perception of them. Fractals allow us to study the perception of aesthetic properties (e.g. the perceived level of beauty in an image) without using recognizable content, which makes them an excellent tool for studying abstract aesthetic judgement.</p><p class=""debrief""><strong>Your part:</strong> Your participation has helped us to further understand how humans perceive these patterns across different levels of speed and complexity. This research with allow us to better understand how the visual system and brain process our ever-changing visual environments.<p class=""debrief""><strong>Feedback and Further information:</strong> If you have additional questions about this study, please feel free to ask the researcher, Nathan Gonzales-Hess at nhess @ uoregon.edu. If you have any questions concerning your rights as a research participant, please contact Research Compliance Services, 5237 University of Oregon, Eugene, OR 97403, 541-346-2510, or email researchCompliance @ uoregon.edu. You can also email the Human Subjects Coordinator for psychology and linguistics research at hscoord @ uoregon.edu. ","0","",""
"","","","","","html-button-response","391","80397011","0.0-391.0","1920x1080","","5327.300000011921","","Thank you for participating in this study. <br>Please click below to finish the experiment and submit your responses.<br><br>","0","",""
"true","","","","","fullscreen","392","80398020","0.0-392.0","1920x1080","13:13 6/10/2022","","","","","",""
