"success","timeout","failed_images","failed_audio","failed_video","trial_type","trial_index","time_elapsed","internal_node_id","resolution","timeStamp","rt","response","stimulus","button_pressed","value","descriptor"
"true","false","[]","[]","[]","preload","0","5983","0.0-0.0","1920x1080","","","","","","",""
"true","false","[]","[]","[]","preload","1","12151","0.0-1.0","1920x1080","","","","","","",""
"true","false","[]","[]","[]","preload","2","18134","0.0-2.0","1920x1080","","","","","","",""
"true","","","","","fullscreen","3","189834","0.0-3.0","1920x1080","15:3 26/10/2022","","","","","",""
"","","","","","survey-html-form","4","200686","0.0-4.0","1920x1080","","10849.10000000149","{""age"":""18"",""gender"":""female""}","","","",""
"","","","","","html-button-response","5","234510","0.0-5.0","1920x1080","","33822.79999999702","","<div class=""complex"">You are going to see a series of animations.<br><br></div><div class=""complex"">Move the slider to indicate how <strong style=""text-transform:capitalize"">COMPLEX</strong> you find each animation.<br><br></div><div class=""complex"">0 = Least Complex<br></div><div class=""complex"">1 = Most Complex<br><br></div><div class=""complex"">Remember to use the <strong><em>entire range</em></strong> of the slider to make your ratings.<br></div><div class=""complex"">Please <strong><em>take your time</em></strong> and carefully consider each rating you make.<br><br></div><div class=""complex"">The study has five sections and will take about 45 minutes to complete.<br><br></div>","0","",""
"","","","","","call-function","6","234511","0.0-6.0","1920x1080","","","","","","",""
"","","","","","animation","7","241278","0.0-7.0","1920x1080","","6766.5","96","img/117/2.5/0.5/bw/001.png","","","complex"
"","","","","","animation","8","247486","0.0-8.0","1920x1080","","6206.699999999255","67","img/238/3.5/0.5/bw/001.png","","","complex"
"","","","","","animation","9","253197","0.0-9.0","1920x1080","","5710.89999999851","81.61","img/314/3.5/0.5/bw/001.png","","","complex"
"","","","","","animation","10","258590","0.0-10.0","1920x1080","","5391.29999999702","3.31","img/238/5.5/2/bw/001.png","","","complex"
"","","","","","animation","11","262941","0.0-11.0","1920x1080","","4350.699999999255","86.11","img/117/3.5/2/bw/001.png","","","complex"
"","","","","","animation","12","269878","0.0-12.0","1920x1080","","6936.099999997765","37","img/238/4.5/0.66667/bw/001.png","","","complex"
"","","","","","animation","13","275869","0.0-13.0","1920x1080","","5990.5","67.99","img/238/3.5/2/bw/001.png","","","complex"
"","","","","","animation","14","281670","0.0-14.0","1920x1080","","5799.39999999851","52.91","img/314/3.5/1/bw/001.png","","","complex"
"","","","","","animation","15","293790","0.0-15.0","1920x1080","","12119.199999999255","46","img/117/4.5/0.5/bw/001.png","","","complex"
"","","","","","animation","16","302549","0.0-16.0","1920x1080","","8758.699999999255","4.23","img/238/5.5/1.5/bw/001.png","","","complex"
"","","","","","animation","17","306213","0.0-17.0","1920x1080","","3663.10000000149","100","img/238/2.5/1.5/bw/001.png","","","complex"
"","","","","","animation","18","314288","0.0-18.0","1920x1080","","8079.60000000149","70","img/238/3.5/1/bw/001.png","","","complex"
"","","","","","animation","19","322328","0.0-19.0","1920x1080","","8039","48.54","img/314/3.5/2/bw/001.png","","","complex"
"","","","","","animation","20","327489","0.0-20.0","1920x1080","","5160.400000002235","95","img/117/4/0.5/bw/001.png","","","complex"
"","","","","","animation","21","332439","0.0-21.0","1920x1080","","4949.699999999255","100","img/314/2.5/1/bw/001.png","","","complex"
"","","","","","animation","22","337936","0.0-22.0","1920x1080","","5495.599999997765","29.23","img/314/4.5/0.66667/bw/001.png","","","complex"
"","","","","","animation","23","349543","0.0-23.0","1920x1080","","11607","24.87","img/314/4/1/bw/001.png","","","complex"
"","","","","","animation","24","353673","0.0-24.0","1920x1080","","4128.300000000745","98","img/314/2.5/1.5/bw/001.png","","","complex"
"","","","","","animation","25","357168","0.0-25.0","1920x1080","","3494.39999999851","100","img/117/2.5/1/bw/001.png","","","complex"
"","","","","","animation","26","364831","0.0-26.0","1920x1080","","7662.79999999702","67","img/238/4/0.5/bw/001.png","","","complex"
"","","","","","animation","27","374187","0.0-27.0","1920x1080","","9351.5","22","img/117/5.5/0.5/bw/001.png","","","complex"
"","","","","","animation","28","380763","0.0-28.0","1920x1080","","6575","50.26","img/117/4.5/0.66667/bw/001.png","","","complex"
"","","","","","animation","29","386515","0.0-29.0","1920x1080","","5751.199999999255","12.17","img/314/5.5/0.66667/bw/001.png","","","complex"
"","","","","","animation","30","394627","0.0-30.0","1920x1080","","8111.300000000745","46.56","img/117/4/1/bw/001.png","","","complex"
"","","","","","animation","31","404539","0.0-31.0","1920x1080","","9911","14","img/117/5.5/1/bw/001.png","","","complex"
"","","","","","animation","32","414660","0.0-32.0","1920x1080","","10119.900000002235","76","img/238/4/0.66667/bw/001.png","","","complex"
"","","","","","animation","33","424347","0.0-33.0","1920x1080","","9686.199999999255","50.66","img/238/4.5/1.5/bw/001.png","","","complex"
"","","","","","animation","34","428672","0.0-34.0","1920x1080","","4328.10000000149","87.04","img/117/4/0.66667/bw/001.png","","","complex"
"","","","","","animation","35","434983","0.0-35.0","1920x1080","","6310","54.50","img/314/4.5/1.5/bw/001.png","","","complex"
"","","","","","animation","36","442543","0.0-36.0","1920x1080","","7559.099999997765","93","img/238/3.5/0.66667/bw/001.png","","","complex"
"","","","","","animation","37","450031","0.0-37.0","1920x1080","","7487.39999999851","1.98","img/314/5.5/1.5/bw/001.png","","","complex"
"","","","","","animation","38","454320","0.0-38.0","1920x1080","","4286.699999999255","100","img/117/2.5/0.66667/bw/001.png","","","complex"
"","","","","","animation","39","461775","0.0-39.0","1920x1080","","7454.900000002235","70.77","img/238/3.5/1.5/bw/001.png","","","complex"
"","","","","","animation","40","465023","0.0-40.0","1920x1080","","3246.800000000745","100","img/238/2.5/0.5/bw/001.png","","","complex"
"","","","","","animation","41","473095","0.0-41.0","1920x1080","","8071.300000000745","7","img/117/5.5/2/bw/001.png","","","complex"
"","","","","","animation","42","477767","0.0-42.0","1920x1080","","4671.5","21.16","img/117/5.5/1.5/bw/001.png","","","complex"
"","","","","","animation","43","483072","0.0-43.0","1920x1080","","5303.199999999255","43.92","img/238/4/2/bw/001.png","","","complex"
"","","","","","animation","44","491740","0.0-44.0","1920x1080","","8663","55","img/238/4.5/1/bw/001.png","","","complex"
"","","","","","animation","45","498988","0.0-45.0","1920x1080","","7246.79999999702","69.05","img/314/3.5/1.5/bw/001.png","","","complex"
"","","","","","animation","46","503924","0.0-46.0","1920x1080","","4935.300000000745","86","img/314/4/0.5/bw/001.png","","","complex"
"","","","","","animation","47","517300","0.0-47.0","1920x1080","","13375","27.51","img/238/5.5/0.66667/bw/001.png","","","complex"
"","","","","","animation","48","527204","0.0-48.0","1920x1080","","9902.199999999255","29.89","img/314/5.5/1/bw/001.png","","","complex"
"","","","","","animation","49","534627","0.0-49.0","1920x1080","","7422.599999997765","16.53","img/314/5.5/2/bw/001.png","","","complex"
"","","","","","animation","50","540604","0.0-50.0","1920x1080","","5975.699999999255","90.08","img/117/3.5/0.66667/bw/001.png","","","complex"
"","","","","","animation","51","546252","0.0-51.0","1920x1080","","5646.79999999702","76.32","img/238/4.5/0.5/bw/001.png","","","complex"
"","","","","","animation","52","555363","0.0-52.0","1920x1080","","9110.800000000745","74","img/238/4/1/bw/001.png","","","complex"
"","","","","","animation","53","562210","0.0-53.0","1920x1080","","6846.099999997765","9","img/238/5.5/1/bw/001.png","","","complex"
"","","","","","animation","54","565026","0.0-54.0","1920x1080","","2815.300000000745","100","img/314/2.5/0.5/bw/001.png","","","complex"
"","","","","","animation","55","570251","0.0-55.0","1920x1080","","5223.5","84.39","img/314/4.5/0.5/bw/001.png","","","complex"
"","","","","","animation","56","573243","0.0-56.0","1920x1080","","2990.800000000745","100","img/238/2.5/2/bw/001.png","","","complex"
"","","","","","animation","57","576226","0.0-57.0","1920x1080","","2982.60000000149","100","img/117/2.5/2/bw/001.png","","","complex"
"","","","","","animation","58","579643","0.0-58.0","1920x1080","","3415.39999999851","94.58","img/117/3.5/0.5/bw/001.png","","","complex"
"","","","","","animation","59","584075","0.0-59.0","1920x1080","","4431.20000000298","64.95","img/117/4/1.5/bw/001.png","","","complex"
"","","","","","animation","60","589827","0.0-60.0","1920x1080","","5750.39999999851","59","img/314/4/2/bw/001.png","","","complex"
"","","","","","animation","61","596109","0.0-61.0","1920x1080","","6281.20000000298","42.99","img/117/4.5/2/bw/001.png","","","complex"
"","","","","","animation","62","603260","0.0-62.0","1920x1080","","7149.5","56","img/117/4.5/1/bw/001.png","","","complex"
"","","","","","animation","63","608223","0.0-63.0","1920x1080","","4958.29999999702","100","img/238/2.5/1/bw/001.png","","","complex"
"","","","","","animation","64","613270","0.0-64.0","1920x1080","","5046.89999999851","100","img/314/2.5/2/bw/001.png","","","complex"
"","","","","","animation","65","618382","0.0-65.0","1920x1080","","5110.89999999851","53","img/117/4/2/bw/001.png","","","complex"
"","","","","","animation","66","626351","0.0-66.0","1920x1080","","7966.699999999255","54","img/117/4.5/1.5/bw/001.png","","","complex"
"","","","","","animation","67","632030","0.0-67.0","1920x1080","","5679","28","img/117/5.5/0.66667/bw/001.png","","","complex"
"","","","","","animation","68","638959","0.0-68.0","1920x1080","","6927.400000002235","100","img/238/2.5/0.66667/bw/001.png","","","complex"
"","","","","","animation","69","641830","0.0-69.0","1920x1080","","2870.199999999255","100","img/314/2.5/0.66667/bw/001.png","","","complex"
"","","","","","animation","70","651946","0.0-70.0","1920x1080","","10115.20000000298","12","img/314/5.5/0.5/bw/001.png","","","complex"
"","","","","","animation","71","656198","0.0-71.0","1920x1080","","4251","71.69","img/314/3.5/0.66667/bw/001.png","","","complex"
"","","","","","animation","72","660146","0.0-72.0","1920x1080","","3946.599999997765","84.13","img/117/3.5/1/bw/001.png","","","complex"
"","","","","","animation","73","663246","0.0-73.0","1920x1080","","3099.2999999970198","100","img/117/2.5/1.5/bw/001.png","","","complex"
"","","","","","animation","74","673013","0.0-74.0","1920x1080","","9766.900000002235","94.58","img/117/3.5/1.5/bw/001.png","","","complex"
"","","","","","animation","75","677781","0.0-75.0","1920x1080","","4767.400000002235","20.50","img/314/4.5/2/bw/001.png","","","complex"
"","","","","","animation","76","682229","0.0-76.0","1920x1080","","4446.699999999255","51.72","img/238/4/1.5/bw/001.png","","","complex"
"","","","","","animation","77","688613","0.0-77.0","1920x1080","","6383.10000000149","30.03","img/238/5.5/0.5/bw/001.png","","","complex"
"","","","","","animation","78","694469","0.0-78.0","1920x1080","","5855.300000000745","51.59","img/238/4.5/2/bw/001.png","","","complex"
"","","","","","animation","79","700837","0.0-79.0","1920x1080","","6367","72.88","img/314/4.5/1/bw/001.png","","","complex"
"","","","","","animation","80","704678","0.0-80.0","1920x1080","","3837","85.71","img/314/4/0.66667/bw/001.png","","","complex"
"","","","","","animation","81","710069","0.0-81.0","1920x1080","","5390.39999999851","70.24","img/314/4/1.5/bw/001.png","","","complex"
"","","","","","html-button-response","82","729218","0.0-82.0","1920x1080","","19142.800000000745","","<div class=""intro"">You are about to view a new series of animations.<br><br></div><div class=""intro"">You will evaluate them based on a different descriptor.<br><br></div><div class=""intro"">Move the slider to indicate how <strong style=""text-transform:capitalize"">INTERESTING</strong> you find each animation.<br><br></div><div class=""intro"">0 = Least Interesting<br></div><div class=""intro"">1 = Most Interesting<br><br></div><div class=""intro"">Remember to use the <strong><em>entire range</em></strong> of the slider to make your ratings.<br></div><div class=""intro"">Please <strong><em>take your time</em></strong> and carefully consider each rating you make.<br><br></div>","0","",""
"","","","","","call-function","83","729219","0.0-83.0","1920x1080","","","","","","",""
"","","","","","animation","84","733466","0.0-84.0","1920x1080","","4246.199999999255","98","img/314/2.5/0.66667/bw/001.png","","","interesting"
"","","","","","animation","85","741178","0.0-85.0","1920x1080","","7710.699999999255","63.49","img/238/4/1.5/bw/001.png","","","interesting"
"","","","","","animation","86","745458","0.0-86.0","1920x1080","","4278.89999999851","82.94","img/238/3.5/2/bw/001.png","","","interesting"
"","","","","","animation","87","749554","0.0-87.0","1920x1080","","4095.2000000029802","48.94","img/314/4/1.5/bw/001.png","","","interesting"
"","","","","","animation","88","755722","0.0-88.0","1920x1080","","6167","88.49","img/238/3.5/0.5/bw/001.png","","","interesting"
"","","","","","animation","89","765410","0.0-89.0","1920x1080","","9687","53.44","img/314/4.5/1.5/bw/001.png","","","interesting"
"","","","","","animation","90","773033","0.0-90.0","1920x1080","","7622.5","89.02","img/117/4/0.66667/bw/001.png","","","interesting"
"","","","","","animation","91","777217","0.0-91.0","1920x1080","","4183.10000000149","64.02","img/314/3.5/1/bw/001.png","","","interesting"
"","","","","","animation","92","783570","0.0-92.0","1920x1080","","6351.099999997765","100","img/117/2.5/1.5/bw/001.png","","","interesting"
"","","","","","animation","93","788266","0.0-93.0","1920x1080","","4703.5","79.37","img/117/3.5/0.66667/bw/001.png","","","interesting"
"","","","","","animation","94","792545","0.0-94.0","1920x1080","","4278.89999999851","100","img/117/5.5/0.5/bw/001.png","","","interesting"
"","","","","","animation","95","797323","0.0-95.0","1920x1080","","4776.099999997765","35.71","img/314/4/1/bw/001.png","","","interesting"
"","","","","","animation","96","804386","0.0-96.0","1920x1080","","7061.699999999255","55.56","img/314/4/0.66667/bw/001.png","","","interesting"
"","","","","","animation","97","809393","0.0-97.0","1920x1080","","5006.5","71.83","img/117/5.5/0.66667/bw/001.png","","","interesting"
"","","","","","animation","98","814881","0.0-98.0","1920x1080","","5487.300000000745","23.54","img/314/4/2/bw/001.png","","","interesting"
"","","","","","animation","99","820059","0.0-99.0","1920x1080","","5176.29999999702","87.43","img/117/4.5/2/bw/001.png","","","interesting"
"","","","","","animation","100","828001","0.0-100.0","1920x1080","","7941.599999997765","91.14","img/314/2.5/0.5/bw/001.png","","","interesting"
"","","","","","animation","101","832017","0.0-101.0","1920x1080","","4014.89999999851","85.98","img/117/3.5/2/bw/001.png","","","interesting"
"","","","","","animation","102","838081","0.0-102.0","1920x1080","","6063.199999999255","41","img/238/5.5/1/bw/001.png","","","interesting"
"","","","","","animation","103","845825","0.0-103.0","1920x1080","","7742.800000000745","18.92","img/117/4/1.5/bw/001.png","","","interesting"
"","","","","","animation","104","851129","0.0-104.0","1920x1080","","5297.5","75.53","img/314/5.5/1.5/bw/001.png","","","interesting"
"","","","","","animation","105","859030","0.0-105.0","1920x1080","","7899.800000000745","82.54","img/117/2.5/1/bw/001.png","","","interesting"
"","","","","","animation","106","863561","0.0-106.0","1920x1080","","4530.599999997765","0.79","img/238/2.5/1/bw/001.png","","","interesting"
"","","","","","animation","107","869198","0.0-107.0","1920x1080","","5635.70000000298","20.90","img/117/4/2/bw/001.png","","","interesting"
"","","","","","animation","108","873166","0.0-108.0","1920x1080","","3967.199999999255","75.93","img/238/2.5/2/bw/001.png","","","interesting"
"","","","","","animation","109","877734","0.0-109.0","1920x1080","","4567","29.63","img/238/4.5/1/bw/001.png","","","interesting"
"","","","","","animation","110","880961","0.0-110.0","1920x1080","","3225.800000000745","98","img/238/2.5/1.5/bw/001.png","","","interesting"
"","","","","","animation","111","889470","0.0-111.0","1920x1080","","8508.60000000149","47","img/238/5.5/2/bw/001.png","","","interesting"
"","","","","","animation","112","897713","0.0-112.0","1920x1080","","8241.29999999702","16.53","img/314/4.5/1/bw/001.png","","","interesting"
"","","","","","animation","113","901462","0.0-113.0","1920x1080","","3747.89999999851","88.62","img/314/4.5/0.5/bw/001.png","","","interesting"
"","","","","","animation","114","906678","0.0-114.0","1920x1080","","5215.300000000745","68.25","img/238/5.5/1.5/bw/001.png","","","interesting"
"","","","","","animation","115","914594","0.0-115.0","1920x1080","","7915.199999999255","26.06","img/238/4/2/bw/001.png","","","interesting"
"","","","","","animation","116","920406","0.0-116.0","1920x1080","","5810.699999999255","82.28","img/314/3.5/0.5/bw/001.png","","","interesting"
"","","","","","animation","117","925161","0.0-117.0","1920x1080","","4753.60000000149","23.68","img/238/4.5/0.66667/bw/001.png","","","interesting"
"","","","","","animation","118","928822","0.0-118.0","1920x1080","","3660.10000000149","70.77","img/314/3.5/1.5/bw/001.png","","","interesting"
"","","","","","animation","119","936062","0.0-119.0","1920x1080","","7239","94","img/117/5.5/2/bw/001.png","","","interesting"
"","","","","","animation","120","943310","0.0-120.0","1920x1080","","7247.5","55.95","img/238/4/0.66667/bw/001.png","","","interesting"
"","","","","","animation","121","947395","0.0-121.0","1920x1080","","4083.800000000745","39.55","img/117/3.5/0.5/bw/001.png","","","interesting"
"","","","","","animation","122","951422","0.0-122.0","1920x1080","","4025.900000002235","20.77","img/117/4.5/0.5/bw/001.png","","","interesting"
"","","","","","animation","123","955502","0.0-123.0","1920x1080","","4078.60000000149","74.21","img/314/5.5/2/bw/001.png","","","interesting"
"","","","","","animation","124","962150","0.0-124.0","1920x1080","","6646.599999997765","95","img/314/5.5/1/bw/001.png","","","interesting"
"","","","","","animation","125","966182","0.0-125.0","1920x1080","","4031.199999999255","62.17","img/117/4.5/0.66667/bw/001.png","","","interesting"
"","","","","","animation","126","970514","0.0-126.0","1920x1080","","4335","52.12","img/117/2.5/2/bw/001.png","","","interesting"
"","","","","","animation","127","975907","0.0-127.0","1920x1080","","5392.300000000745","34","img/117/4.5/1/bw/001.png","","","interesting"
"","","","","","animation","128","980866","0.0-128.0","1920x1080","","4957.89999999851","92.59","img/314/2.5/2/bw/001.png","","","interesting"
"","","","","","animation","129","986066","0.0-129.0","1920x1080","","5199.199999999255","1.59","img/117/2.5/0.66667/bw/001.png","","","interesting"
"","","","","","animation","130","990006","0.0-130.0","1920x1080","","3938.89999999851","96","img/314/2.5/1.5/bw/001.png","","","interesting"
"","","","","","animation","131","994314","0.0-131.0","1920x1080","","4307","84.79","img/238/5.5/0.5/bw/001.png","","","interesting"
"","","","","","animation","132","999057","0.0-132.0","1920x1080","","4742.800000000745","1.19","img/117/2.5/0.5/bw/001.png","","","interesting"
"","","","","","animation","133","1003514","0.0-133.0","1920x1080","","4455.60000000149","62.83","img/314/5.5/0.5/bw/001.png","","","interesting"
"","","","","","animation","134","1007390","0.0-134.0","1920x1080","","3875.400000002235","49.21","img/117/4/1/bw/001.png","","","interesting"
"","","","","","animation","135","1013834","0.0-135.0","1920x1080","","6442.300000000745","32.41","img/314/4.5/2/bw/001.png","","","interesting"
"","","","","","animation","136","1018593","0.0-136.0","1920x1080","","4758.60000000149","10.85","img/117/4.5/1.5/bw/001.png","","","interesting"
"","","","","","animation","137","1023141","0.0-137.0","1920x1080","","4546.5","38.10","img/314/2.5/1/bw/001.png","","","interesting"
"","","","","","animation","138","1028996","0.0-138.0","1920x1080","","5847.39999999851","8","img/117/5.5/1.5/bw/001.png","","","interesting"
"","","","","","animation","139","1032320","0.0-139.0","1920x1080","","3323.199999999255","74.21","img/238/4.5/1.5/bw/001.png","","","interesting"
"","","","","","animation","140","1036984","0.0-140.0","1920x1080","","4662.89999999851","41.40","img/238/2.5/0.66667/bw/001.png","","","interesting"
"","","","","","animation","141","1041347","0.0-141.0","1920x1080","","4362.10000000149","88.36","img/117/3.5/1.5/bw/001.png","","","interesting"
"","","","","","animation","142","1044747","0.0-142.0","1920x1080","","3399.300000000745","60.98","img/314/3.5/0.66667/bw/001.png","","","interesting"
"","","","","","animation","143","1053320","0.0-143.0","1920x1080","","8571.10000000149","25.13","img/238/4.5/2/bw/001.png","","","interesting"
"","","","","","animation","144","1057313","0.0-144.0","1920x1080","","3992.199999999255","73.54","img/238/3.5/1/bw/001.png","","","interesting"
"","","","","","animation","145","1062563","0.0-145.0","1920x1080","","5249.10000000149","50","img/314/4/0.5/bw/001.png","","","interesting"
"","","","","","animation","146","1066472","0.0-146.0","1920x1080","","3907.10000000149","0","img/238/2.5/0.5/bw/001.png","","","interesting"
"","","","","","animation","147","1072952","0.0-147.0","1920x1080","","6478.699999999255","43.12","img/314/4.5/0.66667/bw/001.png","","","interesting"
"","","","","","animation","148","1078447","0.0-148.0","1920x1080","","5494.800000000745","65.48","img/314/5.5/0.66667/bw/001.png","","","interesting"
"","","","","","animation","149","1082663","0.0-149.0","1920x1080","","4215","86.64","img/238/3.5/0.66667/bw/001.png","","","interesting"
"","","","","","animation","150","1086568","0.0-150.0","1920x1080","","3903.60000000149","96","img/238/5.5/0.66667/bw/001.png","","","interesting"
"","","","","","animation","151","1093015","0.0-151.0","1920x1080","","6446.39999999851","23.68","img/238/4/1/bw/001.png","","","interesting"
"","","","","","animation","152","1097228","0.0-152.0","1920x1080","","4212.199999999255","85.85","img/314/3.5/2/bw/001.png","","","interesting"
"","","","","","animation","153","1102503","0.0-153.0","1920x1080","","5274","61.11","img/238/4.5/0.5/bw/001.png","","","interesting"
"","","","","","animation","154","1107903","0.0-154.0","1920x1080","","5399","81.22","img/117/5.5/1/bw/001.png","","","interesting"
"","","","","","animation","155","1114295","0.0-155.0","1920x1080","","6388.70000000298","89.81","img/238/4/0.5/bw/001.png","","","interesting"
"","","","","","animation","156","1120495","0.0-156.0","1920x1080","","6199.39999999851","52.12","img/238/3.5/1.5/bw/001.png","","","interesting"
"","","","","","animation","157","1126039","0.0-157.0","1920x1080","","5543.5","81.08","img/117/3.5/1/bw/001.png","","","interesting"
"","","","","","animation","158","1132611","0.0-158.0","1920x1080","","6570.89999999851","42.33","img/117/4/0.5/bw/001.png","","","interesting"
"","","","","","html-button-response","159","1152388","0.0-159.0","1920x1080","","19770.5","","<div class=""intro"">You are about to view a new series of animations.<br><br></div><div class=""intro"">You will evaluate them based on a different descriptor.<br><br></div><div class=""intro"">Move the slider to indicate how <strong style=""text-transform:capitalize"">NATURAL</strong> you find each animation.<br><br></div><div class=""intro"">0 = Least Natural<br></div><div class=""intro"">1 = Most Natural<br><br></div><div class=""intro"">Remember to use the <strong><em>entire range</em></strong> of the slider to make your ratings.<br></div><div class=""intro"">Please <strong><em>take your time</em></strong> and carefully consider each rating you make.<br><br></div>","0","",""
"","","","","","call-function","160","1152389","0.0-160.0","1920x1080","","","","","","",""
"","","","","","animation","161","1157187","0.0-161.0","1920x1080","","4797.89999999851","33.33","img/117/4.5/0.5/bw/001.png","","","natural"
"","","","","","animation","162","1160140","0.0-162.0","1920x1080","","2949.400000002235","3.31","img/238/2.5/0.5/bw/001.png","","","natural"
"","","","","","animation","163","1166803","0.0-163.0","1920x1080","","6662.900000002235","2.51","img/238/2.5/0.66667/bw/001.png","","","natural"
"","","","","","animation","164","1170550","0.0-164.0","1920x1080","","3745.2000000029802","22.09","img/314/4/0.5/bw/001.png","","","natural"
"","","","","","animation","165","1174801","0.0-165.0","1920x1080","","4250","97","img/238/5.5/1.5/bw/001.png","","","natural"
"","","","","","animation","166","1178372","0.0-166.0","1920x1080","","3569.300000000745","43.92","img/117/3.5/0.66667/bw/001.png","","","natural"
"","","","","","animation","167","1181349","0.0-167.0","1920x1080","","2976.89999999851","25.79","img/314/3.5/1/bw/001.png","","","natural"
"","","","","","animation","168","1186308","0.0-168.0","1920x1080","","4957.29999999702","53.97","img/117/4.5/0.66667/bw/001.png","","","natural"
"","","","","","animation","169","1189332","0.0-169.0","1920x1080","","3023.89999999851","69.18","img/117/5.5/1/bw/001.png","","","natural"
"","","","","","animation","170","1193016","0.0-170.0","1920x1080","","3683.099999997765","57.41","img/314/4/1.5/bw/001.png","","","natural"
"","","","","","animation","171","1197851","0.0-171.0","1920x1080","","4833.89999999851","44.58","img/117/4/2/bw/001.png","","","natural"
"","","","","","animation","172","1204032","0.0-172.0","1920x1080","","6179.800000000745","71.30","img/314/3.5/1.5/bw/001.png","","","natural"
"","","","","","animation","173","1208561","0.0-173.0","1920x1080","","4533.199999999255","20.63","img/314/4.5/0.66667/bw/001.png","","","natural"
"","","","","","animation","174","1214670","0.0-174.0","1920x1080","","6108.300000000745","53.97","img/314/4.5/1/bw/001.png","","","natural"
"","","","","","animation","175","1219829","0.0-175.0","1920x1080","","5157.39999999851","7","img/238/5.5/0.5/bw/001.png","","","natural"
"","","","","","animation","176","1223798","0.0-176.0","1920x1080","","3967.300000000745","3.31","img/117/4/0.5/bw/001.png","","","natural"
"","","","","","animation","177","1231760","0.0-177.0","1920x1080","","7960.800000000745","68.78","img/238/5.5/1/bw/001.png","","","natural"
"","","","","","animation","178","1236250","0.0-178.0","1920x1080","","4486.5","49.34","img/314/4.5/1.5/bw/001.png","","","natural"
"","","","","","animation","179","1242366","0.0-179.0","1920x1080","","6113.5","97","img/238/5.5/0.66667/bw/001.png","","","natural"
"","","","","","animation","180","1245750","0.0-180.0","1920x1080","","3382.599999997765","26.06","img/238/4.5/0.5/bw/001.png","","","natural"
"","","","","","animation","181","1249494","0.0-181.0","1920x1080","","3742.5","31.35","img/238/4/0.66667/bw/001.png","","","natural"
"","","","","","animation","182","1252014","0.0-182.0","1920x1080","","2519.5","2.78","img/238/3.5/0.5/bw/001.png","","","natural"
"","","","","","animation","183","1255377","0.0-183.0","1920x1080","","3362.300000000745","0.13","img/238/2.5/1/bw/001.png","","","natural"
"","","","","","animation","184","1263094","0.0-184.0","1920x1080","","7715.39999999851","87","img/117/2.5/2/bw/001.png","","","natural"
"","","","","","animation","185","1267717","0.0-185.0","1920x1080","","4623.199999999255","29","img/117/4/0.66667/bw/001.png","","","natural"
"","","","","","animation","186","1272976","0.0-186.0","1920x1080","","5257.800000000745","57.01","img/238/4.5/1/bw/001.png","","","natural"
"","","","","","animation","187","1278993","0.0-187.0","1920x1080","","6015.39999999851","34.39","img/238/4.5/0.66667/bw/001.png","","","natural"
"","","","","","animation","188","1282644","0.0-188.0","1920x1080","","3650.39999999851","0.13","img/314/2.5/0.66667/bw/001.png","","","natural"
"","","","","","animation","189","1288470","0.0-189.0","1920x1080","","5824.300000000745","1.19","img/117/2.5/0.5/bw/001.png","","","natural"
"","","","","","animation","190","1291781","0.0-190.0","1920x1080","","3310.7000000029802","2.38","img/314/2.5/0.5/bw/001.png","","","natural"
"","","","","","animation","191","1295843","0.0-191.0","1920x1080","","4060","49.87","img/314/4/1/bw/001.png","","","natural"
"","","","","","animation","192","1299077","0.0-192.0","1920x1080","","3233.5","55.56","img/238/3.5/1/bw/001.png","","","natural"
"","","","","","animation","193","1302885","0.0-193.0","1920x1080","","3807.599999997765","61.64","img/117/5.5/0.5/bw/001.png","","","natural"
"","","","","","animation","194","1306559","0.0-194.0","1920x1080","","3673","90.61","img/238/5.5/2/bw/001.png","","","natural"
"","","","","","animation","195","1312070","0.0-195.0","1920x1080","","5509","50.66","img/238/4.5/1.5/bw/001.png","","","natural"
"","","","","","animation","196","1316393","0.0-196.0","1920x1080","","4321.599999997765","16","img/117/2.5/1.5/bw/001.png","","","natural"
"","","","","","animation","197","1320045","0.0-197.0","1920x1080","","3651.300000000745","21.83","img/314/4.5/0.5/bw/001.png","","","natural"
"","","","","","animation","198","1323310","0.0-198.0","1920x1080","","3263.099999997765","66.14","img/117/4.5/2/bw/001.png","","","natural"
"","","","","","animation","199","1327397","0.0-199.0","1920x1080","","4086.699999999255","71.96","img/314/4/2/bw/001.png","","","natural"
"","","","","","animation","200","1331100","0.0-200.0","1920x1080","","3702.89999999851","81.88","img/314/5.5/2/bw/001.png","","","natural"
"","","","","","animation","201","1334748","0.0-201.0","1920x1080","","3646","33.33","img/314/3.5/2/bw/001.png","","","natural"
"","","","","","animation","202","1338442","0.0-202.0","1920x1080","","3692.300000000745","9.39","img/238/3.5/0.66667/bw/001.png","","","natural"
"","","","","","animation","203","1341575","0.0-203.0","1920x1080","","3131.900000002235","2","img/314/2.5/1/bw/001.png","","","natural"
"","","","","","animation","204","1345908","0.0-204.0","1920x1080","","4332","20.11","img/238/2.5/1.5/bw/001.png","","","natural"
"","","","","","animation","205","1349775","0.0-205.0","1920x1080","","3865.199999999255","15.48","img/117/5.5/0.66667/bw/001.png","","","natural"
"","","","","","animation","206","1355207","0.0-206.0","1920x1080","","5431.599999997765","49.60","img/238/4.5/2/bw/001.png","","","natural"
"","","","","","animation","207","1358460","0.0-207.0","1920x1080","","3251.599999997765","19.84","img/314/4/0.66667/bw/001.png","","","natural"
"","","","","","animation","208","1364996","0.0-208.0","1920x1080","","6535.10000000149","42.06","img/314/5.5/0.5/bw/001.png","","","natural"
"","","","","","animation","209","1374674","0.0-209.0","1920x1080","","9676.60000000149","7.67","img/238/4/1/bw/001.png","","","natural"
"","","","","","animation","210","1378558","0.0-210.0","1920x1080","","3882.89999999851","0.13","img/314/2.5/1.5/bw/001.png","","","natural"
"","","","","","animation","211","1382243","0.0-211.0","1920x1080","","3683.60000000149","67.59","img/117/5.5/1.5/bw/001.png","","","natural"
"","","","","","animation","212","1385564","0.0-212.0","1920x1080","","3319.699999999255","41.01","img/117/4.5/1/bw/001.png","","","natural"
"","","","","","animation","213","1389794","0.0-213.0","1920x1080","","4225.599999997765","73.68","img/117/3.5/2/bw/001.png","","","natural"
"","","","","","animation","214","1392399","0.0-214.0","1920x1080","","2604","30.03","img/117/3.5/1/bw/001.png","","","natural"
"","","","","","animation","215","1397146","0.0-215.0","1920x1080","","4744.900000002235","82","img/117/5.5/2/bw/001.png","","","natural"
"","","","","","animation","216","1400946","0.0-216.0","1920x1080","","3799.199999999255","65.87","img/238/3.5/2/bw/001.png","","","natural"
"","","","","","animation","217","1407919","0.0-217.0","1920x1080","","6971.800000000745","50.66","img/117/4.5/1.5/bw/001.png","","","natural"
"","","","","","animation","218","1414196","0.0-218.0","1920x1080","","6275","95","img/314/5.5/0.66667/bw/001.png","","","natural"
"","","","","","animation","219","1419719","0.0-219.0","1920x1080","","5522.300000000745","0.79","img/117/2.5/1/bw/001.png","","","natural"
"","","","","","animation","220","1423345","0.0-220.0","1920x1080","","3624","22.75","img/117/4/1.5/bw/001.png","","","natural"
"","","","","","animation","221","1428135","0.0-221.0","1920x1080","","4789.699999999255","59.79","img/238/4/1.5/bw/001.png","","","natural"
"","","","","","animation","222","1431711","0.0-222.0","1920x1080","","3574.800000000745","6.22","img/314/3.5/0.5/bw/001.png","","","natural"
"","","","","","animation","223","1436662","0.0-223.0","1920x1080","","4949.39999999851","9.92","img/238/4/0.5/bw/001.png","","","natural"
"","","","","","animation","224","1445161","0.0-224.0","1920x1080","","8498.29999999702","0","img/117/3.5/0.5/bw/001.png","","","natural"
"","","","","","animation","225","1450119","0.0-225.0","1920x1080","","4956.699999999255","34.52","img/314/2.5/2/bw/001.png","","","natural"
"","","","","","animation","226","1453431","0.0-226.0","1920x1080","","3310.400000002235","0.00","img/117/2.5/0.66667/bw/001.png","","","natural"
"","","","","","animation","227","1457811","0.0-227.0","1920x1080","","4377","44.31","img/117/4/1/bw/001.png","","","natural"
"","","","","","animation","228","1461515","0.0-228.0","1920x1080","","3702.7000000029802","51.32","img/314/4.5/2/bw/001.png","","","natural"
"","","","","","animation","229","1467344","0.0-229.0","1920x1080","","5827.89999999851","61.90","img/238/4/2/bw/001.png","","","natural"
"","","","","","animation","230","1471999","0.0-230.0","1920x1080","","4653.800000000745","81.48","img/314/5.5/1/bw/001.png","","","natural"
"","","","","","animation","231","1474894","0.0-231.0","1920x1080","","2893.400000002235","0","img/314/3.5/0.66667/bw/001.png","","","natural"
"","","","","","animation","232","1478577","0.0-232.0","1920x1080","","3682.5","96","img/314/5.5/1.5/bw/001.png","","","natural"
"","","","","","animation","233","1483031","0.0-233.0","1920x1080","","4452","44.58","img/238/3.5/1.5/bw/001.png","","","natural"
"","","","","","animation","234","1486627","0.0-234.0","1920x1080","","3595.5","26.46","img/117/3.5/1.5/bw/001.png","","","natural"
"","","","","","animation","235","1489578","0.0-235.0","1920x1080","","2948.800000000745","0.93","img/238/2.5/2/bw/001.png","","","natural"
"","","","","","html-button-response","236","1511208","0.0-236.0","1920x1080","","21636.10000000149","","<div class=""intro"">You are about to view a new series of animations.<br><br></div><div class=""intro"">You will evaluate them based on a different descriptor.<br><br></div><div class=""intro"">Move the slider to indicate how <strong style=""text-transform:capitalize"">APPEALING</strong> you find each animation.<br><br></div><div class=""intro"">0 = Least Appealing<br></div><div class=""intro"">1 = Most Appealing<br><br></div><div class=""intro"">Remember to use the <strong><em>entire range</em></strong> of the slider to make your ratings.<br></div><div class=""intro"">Please <strong><em>take your time</em></strong> and carefully consider each rating you make.<br><br></div>","0","",""
"","","","","","call-function","237","1511210","0.0-237.0","1920x1080","","","","","","",""
"","","","","","animation","238","1515856","0.0-238.0","1920x1080","","4644.39999999851","71.96","img/314/4.5/1.5/bw/001.png","","","appealing"
"","","","","","animation","239","1519404","0.0-239.0","1920x1080","","3546.89999999851","41.80","img/117/4.5/0.66667/bw/001.png","","","appealing"
"","","","","","animation","240","1522592","0.0-240.0","1920x1080","","3187.300000000745","29.10","img/314/4/0.66667/bw/001.png","","","appealing"
"","","","","","animation","241","1525808","0.0-241.0","1920x1080","","3214.800000000745","50.53","img/238/3.5/2/bw/001.png","","","appealing"
"","","","","","animation","242","1530008","0.0-242.0","1920x1080","","4198.900000002235","66.53","img/238/4.5/1.5/bw/001.png","","","appealing"
"","","","","","animation","243","1533560","0.0-243.0","1920x1080","","3550.89999999851","93.65","img/117/5.5/0.5/bw/001.png","","","appealing"
"","","","","","animation","244","1536520","0.0-244.0","1920x1080","","2959","100","img/117/5.5/0.66667/bw/001.png","","","appealing"
"","","","","","animation","245","1540021","0.0-245.0","1920x1080","","3498.89999999851","0.53","img/117/2.5/0.5/bw/001.png","","","appealing"
"","","","","","animation","246","1543376","0.0-246.0","1920x1080","","3354.400000002235","0.13","img/238/2.5/0.5/bw/001.png","","","appealing"
"","","","","","animation","247","1547544","0.0-247.0","1920x1080","","4166.599999997765","52.12","img/314/4/2/bw/001.png","","","appealing"
"","","","","","animation","248","1551271","0.0-248.0","1920x1080","","3725.5","28.31","img/117/3.5/0.5/bw/001.png","","","appealing"
"","","","","","animation","249","1555056","0.0-249.0","1920x1080","","3783.699999999255","40.34","img/314/4.5/0.5/bw/001.png","","","appealing"
"","","","","","animation","250","1558270","0.0-250.0","1920x1080","","3213.800000000745","0.79","img/117/2.5/0.66667/bw/001.png","","","appealing"
"","","","","","animation","251","1561704","0.0-251.0","1920x1080","","3432.300000000745","61.38","img/117/4.5/1.5/bw/001.png","","","appealing"
"","","","","","animation","252","1564904","0.0-252.0","1920x1080","","3198.39999999851","38.62","img/117/4/0.66667/bw/001.png","","","appealing"
"","","","","","animation","253","1568835","0.0-253.0","1920x1080","","3922.800000000745","9","img/117/2.5/1/bw/001.png","","","appealing"
"","","","","","animation","254","1572999","0.0-254.0","1920x1080","","4162.300000000745","41.93","img/238/4/1/bw/001.png","","","appealing"
"","","","","","animation","255","1577444","0.0-255.0","1920x1080","","4444","56.61","img/238/4/1.5/bw/001.png","","","appealing"
"","","","","","animation","256","1581583","0.0-256.0","1920x1080","","4136.800000000745","91.40","img/238/5.5/0.66667/bw/001.png","","","appealing"
"","","","","","animation","257","1586719","0.0-257.0","1920x1080","","5133.900000002235","59.39","img/117/4.5/1/bw/001.png","","","appealing"
"","","","","","animation","258","1590911","0.0-258.0","1920x1080","","4190.699999999255","71.16","img/238/4.5/0.66667/bw/001.png","","","appealing"
"","","","","","animation","259","1596895","0.0-259.0","1920x1080","","5982.199999999255","61.24","img/238/4.5/0.5/bw/001.png","","","appealing"
"","","","","","animation","260","1601544","0.0-260.0","1920x1080","","4648.29999999702","85.19","img/238/4.5/1/bw/001.png","","","appealing"
"","","","","","animation","261","1604432","0.0-261.0","1920x1080","","2887.10000000149","27.51","img/238/4/0.5/bw/001.png","","","appealing"
"","","","","","animation","262","1608061","0.0-262.0","1920x1080","","3626.5","55","img/117/4/1.5/bw/001.png","","","appealing"
"","","","","","animation","263","1611711","0.0-263.0","1920x1080","","3648.60000000149","18.78","img/117/3.5/1.5/bw/001.png","","","appealing"
"","","","","","animation","264","1616577","0.0-264.0","1920x1080","","4865.800000000745","14.15","img/314/4/0.5/bw/001.png","","","appealing"
"","","","","","animation","265","1620015","0.0-265.0","1920x1080","","3436.400000002235","97","img/238/5.5/1.5/bw/001.png","","","appealing"
"","","","","","animation","266","1627394","0.0-266.0","1920x1080","","7376.800000000745","73.28","img/314/4.5/2/bw/001.png","","","appealing"
"","","","","","animation","267","1630565","0.0-267.0","1920x1080","","3172","21.83","img/238/3.5/0.5/bw/001.png","","","appealing"
"","","","","","animation","268","1634325","0.0-268.0","1920x1080","","3759.400000002235","15.34","img/238/3.5/1/bw/001.png","","","appealing"
"","","","","","animation","269","1638345","0.0-269.0","1920x1080","","4018.900000002235","48.28","img/314/4/1.5/bw/001.png","","","appealing"
"","","","","","animation","270","1642108","0.0-270.0","1920x1080","","3761.199999999255","29.50","img/314/3.5/0.66667/bw/001.png","","","appealing"
"","","","","","animation","271","1646060","0.0-271.0","1920x1080","","3950.699999999255","0","img/238/2.5/1.5/bw/001.png","","","appealing"
"","","","","","animation","272","1649522","0.0-272.0","1920x1080","","3459.699999999255","87.70","img/117/5.5/1.5/bw/001.png","","","appealing"
"","","","","","animation","273","1656709","0.0-273.0","1920x1080","","7184.89999999851","52.25","img/117/4/1/bw/001.png","","","appealing"
"","","","","","animation","274","1663980","0.0-274.0","1920x1080","","7270.099999997765","69.97","img/117/4.5/2/bw/001.png","","","appealing"
"","","","","","animation","275","1667158","0.0-275.0","1920x1080","","3176.599999997765","94.58","img/117/5.5/1/bw/001.png","","","appealing"
"","","","","","animation","276","1672227","0.0-276.0","1920x1080","","5067.39999999851","21.69","img/314/3.5/1/bw/001.png","","","appealing"
"","","","","","animation","277","1676828","0.0-277.0","1920x1080","","4598.800000000745","50.13","img/117/3.5/2/bw/001.png","","","appealing"
"","","","","","animation","278","1679342","0.0-278.0","1920x1080","","2512.60000000149","32.67","img/117/3.5/1/bw/001.png","","","appealing"
"","","","","","animation","279","1682124","0.0-279.0","1920x1080","","2781.400000002235","39.42","img/117/4.5/0.5/bw/001.png","","","appealing"
"","","","","","animation","280","1685909","0.0-280.0","1920x1080","","3782.699999999255","0.40","img/314/2.5/2/bw/001.png","","","appealing"
"","","","","","animation","281","1689446","0.0-281.0","1920x1080","","3533.5","0.13","img/314/2.5/1/bw/001.png","","","appealing"
"","","","","","animation","282","1692393","0.0-282.0","1920x1080","","2945.60000000149","0.53","img/314/2.5/0.66667/bw/001.png","","","appealing"
"","","","","","animation","283","1695877","0.0-283.0","1920x1080","","3482","48.15","img/117/4/2/bw/001.png","","","appealing"
"","","","","","animation","284","1698646","0.0-284.0","1920x1080","","2767.800000000745","71.16","img/117/5.5/2/bw/001.png","","","appealing"
"","","","","","animation","285","1703083","0.0-285.0","1920x1080","","4435.20000000298","17.20","img/238/3.5/0.66667/bw/001.png","","","appealing"
"","","","","","animation","286","1707644","0.0-286.0","1920x1080","","4556.900000002235","31.22","img/314/4/1/bw/001.png","","","appealing"
"","","","","","animation","287","1712327","0.0-287.0","1920x1080","","4682","99","img/314/5.5/1.5/bw/001.png","","","appealing"
"","","","","","animation","288","1719143","0.0-288.0","1920x1080","","6815.199999999255","49.07","img/238/3.5/1.5/bw/001.png","","","appealing"
"","","","","","animation","289","1722830","0.0-289.0","1920x1080","","3685.699999999255","78.31","img/238/4.5/2/bw/001.png","","","appealing"
"","","","","","animation","290","1726943","0.0-290.0","1920x1080","","4111.5","42.06","img/314/3.5/1.5/bw/001.png","","","appealing"
"","","","","","animation","291","1729798","0.0-291.0","1920x1080","","2853.39999999851","11.77","img/117/4/0.5/bw/001.png","","","appealing"
"","","","","","animation","292","1734593","0.0-292.0","1920x1080","","4793.400000002235","84.79","img/314/5.5/0.66667/bw/001.png","","","appealing"
"","","","","","animation","293","1738750","0.0-293.0","1920x1080","","4155.699999999255","68.12","img/314/4.5/1/bw/001.png","","","appealing"
"","","","","","animation","294","1742966","0.0-294.0","1920x1080","","4214.699999999255","93.78","img/238/5.5/0.5/bw/001.png","","","appealing"
"","","","","","animation","295","1748164","0.0-295.0","1920x1080","","5198.199999999255","99","img/314/5.5/1/bw/001.png","","","appealing"
"","","","","","animation","296","1752196","0.0-296.0","1920x1080","","4030.599999997765","0.53","img/238/2.5/0.66667/bw/001.png","","","appealing"
"","","","","","animation","297","1756348","0.0-297.0","1920x1080","","4150.39999999851","0.40","img/117/2.5/1.5/bw/001.png","","","appealing"
"","","","","","animation","298","1759644","0.0-298.0","1920x1080","","3293.60000000149","10.98","img/117/3.5/0.66667/bw/001.png","","","appealing"
"","","","","","animation","299","1763208","0.0-299.0","1920x1080","","3563.099999997765","0.40","img/314/2.5/0.5/bw/001.png","","","appealing"
"","","","","","animation","300","1770816","0.0-300.0","1920x1080","","7606.10000000149","85.32","img/238/5.5/2/bw/001.png","","","appealing"
"","","","","","animation","301","1774013","0.0-301.0","1920x1080","","3195.199999999255","9.26","img/314/3.5/0.5/bw/001.png","","","appealing"
"","","","","","animation","302","1778412","0.0-302.0","1920x1080","","4397.79999999702","39.15","img/314/3.5/2/bw/001.png","","","appealing"
"","","","","","animation","303","1782108","0.0-303.0","1920x1080","","3694.400000002235","56.48","img/314/5.5/0.5/bw/001.png","","","appealing"
"","","","","","animation","304","1785580","0.0-304.0","1920x1080","","3470.800000000745","32.01","img/314/4.5/0.66667/bw/001.png","","","appealing"
"","","","","","animation","305","1788796","0.0-305.0","1920x1080","","3214.300000000745","0.53","img/238/2.5/2/bw/001.png","","","appealing"
"","","","","","animation","306","1792780","0.0-306.0","1920x1080","","3982.10000000149","0.40","img/314/2.5/1.5/bw/001.png","","","appealing"
"","","","","","animation","307","1796391","0.0-307.0","1920x1080","","3609.2000000029802","0.53","img/238/2.5/1/bw/001.png","","","appealing"
"","","","","","animation","308","1801508","0.0-308.0","1920x1080","","5115.5","0.93","img/117/2.5/2/bw/001.png","","","appealing"
"","","","","","animation","309","1805828","0.0-309.0","1920x1080","","4318.199999999255","46.96","img/238/4/2/bw/001.png","","","appealing"
"","","","","","animation","310","1809071","0.0-310.0","1920x1080","","3240.099999997765","24.87","img/238/4/0.66667/bw/001.png","","","appealing"
"","","","","","animation","311","1812773","0.0-311.0","1920x1080","","3700.400000002235","97","img/314/5.5/2/bw/001.png","","","appealing"
"","","","","","animation","312","1816678","0.0-312.0","1920x1080","","3903.60000000149","60.98","img/238/5.5/1/bw/001.png","","","appealing"
"","","","","","html-button-response","313","1836580","0.0-313.0","1920x1080","","19901.099999997765","","<div class=""intro"">You are about to view a new series of animations.<br><br></div><div class=""intro"">You will evaluate them based on a different descriptor.<br><br></div><div class=""intro"">Move the slider to indicate how <strong style=""text-transform:capitalize"">RELAXING</strong> you find each animation.<br><br></div><div class=""intro"">0 = Least Relaxing<br></div><div class=""intro"">1 = Most Relaxing<br><br></div><div class=""intro"">Remember to use the <strong><em>entire range</em></strong> of the slider to make your ratings.<br></div><div class=""intro"">Please <strong><em>take your time</em></strong> and carefully consider each rating you make.<br><br></div>","0","",""
"","","","","","call-function","314","1836582","0.0-314.0","1920x1080","","","","","","",""
"","","","","","animation","315","1841193","0.0-315.0","1920x1080","","4610.199999999255","10.32","img/117/4.5/0.5/bw/001.png","","","relaxing"
"","","","","","animation","316","1844366","0.0-316.0","1920x1080","","3170.7000000029802","100","img/238/5.5/2/bw/001.png","","","relaxing"
"","","","","","animation","317","1848015","0.0-317.0","1920x1080","","3646.400000002235","89.95","img/117/5.5/1.5/bw/001.png","","","relaxing"
"","","","","","animation","318","1852334","0.0-318.0","1920x1080","","4317.39999999851","13","img/117/3.5/1/bw/001.png","","","relaxing"
"","","","","","animation","319","1856226","0.0-319.0","1920x1080","","3890.400000002235","45.24","img/117/4.5/1.5/bw/001.png","","","relaxing"
"","","","","","animation","320","1862966","0.0-320.0","1920x1080","","6739","67.06","img/117/5.5/1/bw/001.png","","","relaxing"
"","","","","","animation","321","1865862","0.0-321.0","1920x1080","","2894.099999997765","21.83","img/314/3.5/1.5/bw/001.png","","","relaxing"
"","","","","","animation","322","1868345","0.0-322.0","1920x1080","","2480.60000000149","5","img/238/4/0.5/bw/001.png","","","relaxing"
"","","","","","animation","323","1871078","0.0-323.0","1920x1080","","2731.7000000029802","4.50","img/314/4/0.66667/bw/001.png","","","relaxing"
"","","","","","animation","324","1873801","0.0-324.0","1920x1080","","2722.099999997765","1.98","img/314/4.5/0.5/bw/001.png","","","relaxing"
"","","","","","animation","325","1877812","0.0-325.0","1920x1080","","4008.89999999851","40.48","img/238/4/2/bw/001.png","","","relaxing"
"","","","","","animation","326","1881161","0.0-326.0","1920x1080","","3347.5","17.59","img/117/4/0.5/bw/001.png","","","relaxing"
"","","","","","animation","327","1884367","0.0-327.0","1920x1080","","3205.10000000149","0","img/117/2.5/1/bw/001.png","","","relaxing"
"","","","","","animation","328","1887968","0.0-328.0","1920x1080","","3598.300000000745","82.67","img/117/5.5/2/bw/001.png","","","relaxing"
"","","","","","animation","329","1893236","0.0-329.0","1920x1080","","5267.20000000298","50","img/314/4.5/2/bw/001.png","","","relaxing"
"","","","","","animation","330","1898967","0.0-330.0","1920x1080","","5728.800000000745","25.93","img/117/4.5/0.66667/bw/001.png","","","relaxing"
"","","","","","animation","331","1905735","0.0-331.0","1920x1080","","6765.199999999255","23.28","img/314/4/1.5/bw/001.png","","","relaxing"
"","","","","","animation","332","1912314","0.0-332.0","1920x1080","","6578.10000000149","12.17","img/314/4.5/0.66667/bw/001.png","","","relaxing"
"","","","","","animation","333","1915627","0.0-333.0","1920x1080","","3311.2000000029802","0.53","img/238/3.5/0.66667/bw/001.png","","","relaxing"
"","","","","","animation","334","1918544","0.0-334.0","1920x1080","","2915.599999997765","0.13","img/238/2.5/1.5/bw/001.png","","","relaxing"
"","","","","","animation","335","1922027","0.0-335.0","1920x1080","","3481.89999999851","23.02","img/238/4/1/bw/001.png","","","relaxing"
"","","","","","animation","336","1926794","0.0-336.0","1920x1080","","4765.300000000745","0","img/238/2.5/0.66667/bw/001.png","","","relaxing"
"","","","","","animation","337","1932192","0.0-337.0","1920x1080","","5398.800000000745","41.40","img/314/4.5/1/bw/001.png","","","relaxing"
"","","","","","animation","338","1935509","0.0-338.0","1920x1080","","3315.800000000745","28.57","img/117/4/0.66667/bw/001.png","","","relaxing"
"","","","","","animation","339","1941413","0.0-339.0","1920x1080","","5902.89999999851","0","img/238/2.5/1/bw/001.png","","","relaxing"
"","","","","","animation","340","1946299","0.0-340.0","1920x1080","","4883.400000002235","31.75","img/238/4.5/0.5/bw/001.png","","","relaxing"
"","","","","","animation","341","1949841","0.0-341.0","1920x1080","","3541.2999999970198","0","img/314/2.5/2/bw/001.png","","","relaxing"
"","","","","","animation","342","1954499","0.0-342.0","1920x1080","","4656.60000000149","14.81","img/238/3.5/0.5/bw/001.png","","","relaxing"
"","","","","","animation","343","1959636","0.0-343.0","1920x1080","","5135","44.84","img/238/3.5/1.5/bw/001.png","","","relaxing"
"","","","","","animation","344","1963125","0.0-344.0","1920x1080","","3488.60000000149","13.76","img/314/3.5/0.5/bw/001.png","","","relaxing"
"","","","","","animation","345","1966175","0.0-345.0","1920x1080","","3048.300000000745","0","img/117/2.5/1.5/bw/001.png","","","relaxing"
"","","","","","animation","346","1969492","0.0-346.0","1920x1080","","3315.300000000745","71.43","img/238/5.5/0.5/bw/001.png","","","relaxing"
"","","","","","animation","347","1972825","0.0-347.0","1920x1080","","3331.300000000745","51.59","img/314/3.5/2/bw/001.png","","","relaxing"
"","","","","","animation","348","1976092","0.0-348.0","1920x1080","","3265.89999999851","92.46","img/238/5.5/1/bw/001.png","","","relaxing"
"","","","","","animation","349","1979381","0.0-349.0","1920x1080","","3287.699999999255","54.37","img/238/4.5/2/bw/001.png","","","relaxing"
"","","","","","animation","350","1981861","0.0-350.0","1920x1080","","2478","27.78","img/314/3.5/1/bw/001.png","","","relaxing"
"","","","","","animation","351","1985909","0.0-351.0","1920x1080","","4046.800000000745","31.88","img/117/4/1/bw/001.png","","","relaxing"
"","","","","","animation","352","1989731","0.0-352.0","1920x1080","","3823.199999999255","18.92","img/117/4/1.5/bw/001.png","","","relaxing"
"","","","","","animation","353","1992158","0.0-353.0","1920x1080","","2425","4.63","img/117/3.5/0.5/bw/001.png","","","relaxing"
"","","","","","animation","354","1997364","0.0-354.0","1920x1080","","5204.900000002235","6.22","img/314/4/0.5/bw/001.png","","","relaxing"
"","","","","","animation","355","2001674","0.0-355.0","1920x1080","","4308.5","39.29","img/314/4/2/bw/001.png","","","relaxing"
"","","","","","animation","356","2004932","0.0-356.0","1920x1080","","3256.300000000745","51.32","img/238/4.5/1/bw/001.png","","","relaxing"
"","","","","","animation","357","2008906","0.0-357.0","1920x1080","","3973","38.10","img/238/4.5/0.66667/bw/001.png","","","relaxing"
"","","","","","animation","358","2012206","0.0-358.0","1920x1080","","3298.300000000745","0.00","img/314/2.5/1.5/bw/001.png","","","relaxing"
"","","","","","animation","359","2016878","0.0-359.0","1920x1080","","4670.39999999851","19.31","img/314/4.5/1.5/bw/001.png","","","relaxing"
"","","","","","animation","360","2020564","0.0-360.0","1920x1080","","3683.699999999255","29.23","img/117/4/2/bw/001.png","","","relaxing"
"","","","","","animation","361","2025043","0.0-361.0","1920x1080","","4477.900000002235","51.59","img/117/4.5/2/bw/001.png","","","relaxing"
"","","","","","animation","362","2029780","0.0-362.0","1920x1080","","4736.199999999255","10.32","img/117/3.5/2/bw/001.png","","","relaxing"
"","","","","","animation","363","2038791","0.0-363.0","1920x1080","","9008.099999997765","100","img/314/5.5/1.5/bw/001.png","","","relaxing"
"","","","","","animation","364","2042991","0.0-364.0","1920x1080","","4199.60000000149","11.77","img/238/4/0.66667/bw/001.png","","","relaxing"
"","","","","","animation","365","2046524","0.0-365.0","1920x1080","","3531.099999997765","82.01","img/238/5.5/1.5/bw/001.png","","","relaxing"
"","","","","","animation","366","2050201","0.0-366.0","1920x1080","","3663.800000000745","38.23","img/117/5.5/0.5/bw/001.png","","","relaxing"
"","","","","","animation","367","2054503","0.0-367.0","1920x1080","","4300.099999997765","29.89","img/238/3.5/2/bw/001.png","","","relaxing"
"","","","","","animation","368","2064568","0.0-368.0","1920x1080","","10064.60000000149","0.00","img/117/2.5/0.66667/bw/001.png","","","relaxing"
"","","","","","animation","369","2068845","0.0-369.0","1920x1080","","4275.60000000149","48","img/238/4.5/1.5/bw/001.png","","","relaxing"
"","","","","","animation","370","2072452","0.0-370.0","1920x1080","","3604.400000002235","65.34","img/314/5.5/0.66667/bw/001.png","","","relaxing"
"","","","","","animation","371","2077201","0.0-371.0","1920x1080","","4747","9.66","img/117/3.5/0.66667/bw/001.png","","","relaxing"
"","","","","","animation","372","2082101","0.0-372.0","1920x1080","","4897.900000002235","94.05","img/314/5.5/1/bw/001.png","","","relaxing"
"","","","","","animation","373","2087200","0.0-373.0","1920x1080","","5097.10000000149","0","img/117/2.5/2/bw/001.png","","","relaxing"
"","","","","","animation","374","2090591","0.0-374.0","1920x1080","","3389.300000000745","0.13","img/314/2.5/0.66667/bw/001.png","","","relaxing"
"","","","","","animation","375","2094920","0.0-375.0","1920x1080","","4328.300000000745","0.40","img/117/2.5/0.5/bw/001.png","","","relaxing"
"","","","","","animation","376","2097923","0.0-376.0","1920x1080","","2996.7000000029802","70.50","img/314/5.5/2/bw/001.png","","","relaxing"
"","","","","","animation","377","2103386","0.0-377.0","1920x1080","","5461.699999999255","57.54","img/238/5.5/0.66667/bw/001.png","","","relaxing"
"","","","","","animation","378","2115191","0.0-378.0","1920x1080","","11812.5","83.33","img/314/5.5/0.5/bw/001.png","","","relaxing"
"","","","","","animation","379","2117941","0.0-379.0","1920x1080","","2749.39999999851","22.75","img/314/4/1/bw/001.png","","","relaxing"
"","","","","","animation","380","2121991","0.0-380.0","1920x1080","","4048.699999999255","39.55","img/238/4/1.5/bw/001.png","","","relaxing"
"","","","","","animation","381","2125119","0.0-381.0","1920x1080","","3126.5","25","img/117/4.5/1/bw/001.png","","","relaxing"
"","","","","","animation","382","2127728","0.0-382.0","1920x1080","","2607.89999999851","0.00","img/238/2.5/0.5/bw/001.png","","","relaxing"
"","","","","","animation","383","2132491","0.0-383.0","1920x1080","","4760.89999999851","0.00","img/314/2.5/1/bw/001.png","","","relaxing"
"","","","","","animation","384","2136708","0.0-384.0","1920x1080","","4215.599999997765","7.14","img/314/3.5/0.66667/bw/001.png","","","relaxing"
"","","","","","animation","385","2140199","0.0-385.0","1920x1080","","3484.7000000029802","0","img/314/2.5/0.5/bw/001.png","","","relaxing"
"","","","","","animation","386","2143599","0.0-386.0","1920x1080","","3398.2000000029802","38.89","img/117/3.5/1.5/bw/001.png","","","relaxing"
"","","","","","animation","387","2147774","0.0-387.0","1920x1080","","4174.300000000745","18.65","img/238/3.5/1/bw/001.png","","","relaxing"
"","","","","","animation","388","2150766","0.0-388.0","1920x1080","","2989.300000000745","62.43","img/117/5.5/0.66667/bw/001.png","","","relaxing"
"","","","","","animation","389","2153908","0.0-389.0","1920x1080","","3141","0.79","img/238/2.5/2/bw/001.png","","","relaxing"
"","","","","","html-button-response","390","2168890","0.0-390.0","1920x1080","","14969.60000000149","","<strong>Study Debriefing</strong><br><p class=""debrief""><strong>Background:</strong> The patterns you rated are called <em>fractals</em>. The term fractal describes a class of irregular curves or shapes for which any suitably chosen part is similar in shape to a given larger or smaller part when magnified or reduced to the same size. Fractal properties are found throughout the natural and manmade world. The series of animations you saw today displayed animated fractal patterns of a varying complexity.</p><p class=""debrief""><strong>Purpose of this study:</strong> We hope to better understand how the perception of static fractals differs from the perception of animated fractals, and how the speed of the animated patterns influences people&apos;s perception of them. Fractals allow us to study the perception of aesthetic properties (e.g. the perceived level of beauty in an image) without using recognizable content, which makes them an excellent tool for studying abstract aesthetic judgement.</p><p class=""debrief""><strong>Your part:</strong> Your participation has helped us to further understand how humans perceive these patterns across different levels of speed and complexity. This research with allow us to better understand how the visual system and brain process our ever-changing visual environments.<p class=""debrief""><strong>Feedback and Further information:</strong> If you have additional questions about this study, please feel free to ask the researcher, Nathan Gonzales-Hess at nhess @ uoregon.edu. If you have any questions concerning your rights as a research participant, please contact Research Compliance Services, 5237 University of Oregon, Eugene, OR 97403, 541-346-2510, or email researchCompliance @ uoregon.edu. You can also email the Human Subjects Coordinator for psychology and linguistics research at hscoord @ uoregon.edu. ","0","",""
"","","","","","html-button-response","391","2171509","0.0-391.0","1920x1080","","2614.900000002235","","Thank you for participating in this study. <br>Please click below to finish the experiment and submit your responses.<br><br>","0","",""
"true","","","","","fullscreen","392","2172512","0.0-392.0","1920x1080","15:39 26/10/2022","","","","","",""
