"success","timeout","failed_images","failed_audio","failed_video","trial_type","trial_index","time_elapsed","internal_node_id","resolution","timeStamp","rt","response","stimulus","button_pressed","value","descriptor"
"true","false","[]","[]","[]","preload","0","52045","0.0-0.0","1920x1080","","","","","","",""
"true","false","[]","[]","[]","preload","1","103287","0.0-1.0","1920x1080","","","","","","",""
"true","false","[]","[]","[]","preload","2","156685","0.0-2.0","1920x1080","","","","","","",""
"true","","","","","fullscreen","3","324690","0.0-3.0","1920x1080","10:43 4/11/2022","","","","","",""
"","","","","","survey-html-form","4","336137","0.0-4.0","1920x1080","","11444.900000000023","{""age"":""21"",""gender"":""Female""}","","","",""
"","","","","","html-button-response","5","418151","0.0-5.0","1920x1080","","82175.09999999998","","<div class=""complex"">You are going to see a series of animations.<br><br></div><div class=""complex"">Move the slider to indicate how <strong style=""text-transform:capitalize"">COMPLEX</strong> you find each animation.<br><br></div><div class=""complex"">0 = Least Complex<br></div><div class=""complex"">1 = Most Complex<br><br></div><div class=""complex"">Remember to use the <strong><em>entire range</em></strong> of the slider to make your ratings.<br></div><div class=""complex"">Please <strong><em>take your time</em></strong> and carefully consider each rating you make.<br><br></div><div class=""complex"">The study has five sections and will take about 45 minutes to complete.<br><br></div>","0","",""
"","","","","","call-function","6","418151","0.0-6.0","1920x1080","","","","","","",""
"","","","","","animation","7","432703","0.0-7.0","1920x1080","","14548.599999999977","23.15","img/238/5.5/0.5/bw/001.png","","","complex"
"","","","","","animation","8","441774","0.0-8.0","1920x1080","","9070.599999999977","35.58","img/314/5.5/1/bw/001.png","","","complex"
"","","","","","animation","9","449894","0.0-9.0","1920x1080","","8119.200000000012","42.99","img/314/4/0.5/bw/001.png","","","complex"
"","","","","","animation","10","453966","0.0-10.0","1920x1080","","4070.899999999965","43.25","img/117/4.5/0.5/bw/001.png","","","complex"
"","","","","","animation","11","465438","0.0-11.0","1920x1080","","11470.700000000012","48.54","img/314/4.5/1/bw/001.png","","","complex"
"","","","","","animation","12","472814","0.0-12.0","1920x1080","","7375.200000000012","49.74","img/314/4/1.5/bw/001.png","","","complex"
"","","","","","animation","13","478974","0.0-13.0","1920x1080","","6263","54.76","img/117/4/0.5/bw/001.png","","","complex"
"","","","","","animation","14","486350","0.0-14.0","1920x1080","","7375.099999999977","66.53","img/238/2.5/2/bw/001.png","","","complex"
"","","","","","animation","15","492774","0.0-15.0","1920x1080","","6423.5","44.58","img/238/4/1.5/bw/001.png","","","complex"
"","","","","","animation","16","501366","0.0-16.0","1920x1080","","8590.599999999977","67.86","img/314/2.5/2/bw/001.png","","","complex"
"","","","","","animation","17","505590","0.0-17.0","1920x1080","","4222.899999999907","29.50","img/117/4.5/1/bw/001.png","","","complex"
"","","","","","animation","18","510334","0.0-18.0","1920x1080","","4743.400000000023","70.50","img/117/2.5/1/bw/001.png","","","complex"
"","","","","","animation","19","514294","0.0-19.0","1920x1080","","3959.5999999999767","69.71","img/117/3.5/2/bw/001.png","","","complex"
"","","","","","animation","20","520134","0.0-20.0","1920x1080","","5838.800000000047","39.68","img/238/4/2/bw/001.png","","","complex"
"","","","","","animation","21","526190","0.0-21.0","1920x1080","","6055.70000000007","49.74","img/238/4/1/bw/001.png","","","complex"
"","","","","","animation","22","554646","0.0-22.0","1920x1080","","28559","45.90","img/117/4/1/bw/001.png","","","complex"
"","","","","","animation","23","561806","0.0-23.0","1920x1080","","7159.600000000093","20.37","img/238/5.5/0.66667/bw/001.png","","","complex"
"","","","","","animation","24","565014","0.0-24.0","1920x1080","","3207.0999999999767","70.37","img/314/3.5/0.5/bw/001.png","","","complex"
"","","","","","animation","25","569222","0.0-25.0","1920x1080","","4207.29999999993","45.77","img/314/4/1/bw/001.png","","","complex"
"","","","","","animation","26","579446","0.0-26.0","1920x1080","","10222.800000000047","43","img/238/4.5/2/bw/001.png","","","complex"
"","","","","","animation","27","594438","0.0-27.0","1920x1080","","14991.29999999993","25.66","img/238/5.5/1.5/bw/001.png","","","complex"
"","","","","","animation","28","599287","0.0-28.0","1920x1080","","4935.300000000047","67.06","img/117/2.5/1.5/bw/001.png","","","complex"
"","","","","","animation","29","604089","0.0-29.0","1920x1080","","4800.399999999907","72.75","img/314/3.5/0.66667/bw/001.png","","","complex"
"","","","","","animation","30","611287","0.0-30.0","1920x1080","","7197.599999999977","75.93","img/117/2.5/0.5/bw/001.png","","","complex"
"","","","","","animation","31","614711","0.0-31.0","1920x1080","","3423","74.60","img/314/4/0.66667/bw/001.png","","","complex"
"","","","","","animation","32","618991","0.0-32.0","1920x1080","","4278.899999999907","69.18","img/238/3.5/1/bw/001.png","","","complex"
"","","","","","animation","33","630495","0.0-33.0","1920x1080","","11503.900000000023","60.45","img/117/4.5/0.66667/bw/001.png","","","complex"
"","","","","","animation","34","636407","0.0-34.0","1920x1080","","5910.800000000047","36.11","img/238/5.5/1/bw/001.png","","","complex"
"","","","","","animation","35","642943","0.0-35.0","1920x1080","","6535.199999999953","67.33","img/117/3.5/1/bw/001.png","","","complex"
"","","","","","animation","36","659263","0.0-36.0","1920x1080","","16319.099999999977","32.94","img/117/5.5/1.5/bw/001.png","","","complex"
"","","","","","animation","37","669151","0.0-37.0","1920x1080","","9887.400000000023","31.22","img/117/5.5/1/bw/001.png","","","complex"
"","","","","","animation","38","671175","0.0-38.0","1920x1080","","2022.9000000000233","60.05","img/117/3.5/1.5/bw/001.png","","","complex"
"","","","","","animation","39","673463","0.0-39.0","1920x1080","","2287.5","63.10","img/117/3.5/0.66667/bw/001.png","","","complex"
"","","","","","animation","40","675423","0.0-40.0","1920x1080","","1958.9000000000233","72.88","img/314/2.5/1.5/bw/001.png","","","complex"
"","","","","","animation","41","678551","0.0-41.0","1920x1080","","3127.5999999999767","65.48","img/314/4.5/0.5/bw/001.png","","","complex"
"","","","","","animation","42","683767","0.0-42.0","1920x1080","","5215","66","img/238/4.5/0.5/bw/001.png","","","complex"
"","","","","","animation","43","688519","0.0-43.0","1920x1080","","4751.300000000047","68.52","img/238/3.5/2/bw/001.png","","","complex"
"","","","","","animation","44","696367","0.0-44.0","1920x1080","","7846.900000000023","77.12","img/238/4.5/1.5/bw/001.png","","","complex"
"","","","","","animation","45","701407","0.0-45.0","1920x1080","","5038.600000000093","77","img/238/3.5/0.5/bw/001.png","","","complex"
"","","","","","animation","46","704615","0.0-46.0","1920x1080","","3207.8000000000466","68.52","img/314/3.5/1/bw/001.png","","","complex"
"","","","","","animation","47","706879","0.0-47.0","1920x1080","","2262.29999999993","75.79","img/314/2.5/0.66667/bw/001.png","","","complex"
"","","","","","animation","48","709311","0.0-48.0","1920x1080","","2431.1999999999534","82.28","img/314/2.5/0.5/bw/001.png","","","complex"
"","","","","","animation","49","712751","0.0-49.0","1920x1080","","3439.5999999999767","65.34","img/314/4.5/0.66667/bw/001.png","","","complex"
"","","","","","animation","50","715463","0.0-50.0","1920x1080","","2710.9000000000233","51.46","img/117/4.5/1.5/bw/001.png","","","complex"
"","","","","","animation","51","717471","0.0-51.0","1920x1080","","2007.2000000000698","69.84","img/238/2.5/0.66667/bw/001.png","","","complex"
"","","","","","animation","52","720256","0.0-52.0","1920x1080","","2784.3000000000466","74.34","img/314/3.5/2/bw/001.png","","","complex"
"","","","","","animation","53","723151","0.0-53.0","1920x1080","","2894.20000000007","58.99","img/314/4/2/bw/001.png","","","complex"
"","","","","","animation","54","725656","0.0-54.0","1920x1080","","2503.79999999993","81.22","img/238/2.5/0.5/bw/001.png","","","complex"
"","","","","","animation","55","728623","0.0-55.0","1920x1080","","2966.3000000000466","72.75","img/314/3.5/1.5/bw/001.png","","","complex"
"","","","","","animation","56","736663","0.0-56.0","1920x1080","","8039.099999999977","31","img/314/5.5/1.5/bw/001.png","","","complex"
"","","","","","animation","57","739559","0.0-57.0","1920x1080","","2894.8000000000466","47.75","img/238/4/0.5/bw/001.png","","","complex"
"","","","","","animation","58","744399","0.0-58.0","1920x1080","","4839","39.02","img/238/5.5/2/bw/001.png","","","complex"
"","","","","","animation","59","749656","0.0-59.0","1920x1080","","5256.29999999993","49.21","img/314/5.5/0.5/bw/001.png","","","complex"
"","","","","","animation","60","757857","0.0-60.0","1920x1080","","8199.399999999907","49","img/314/4.5/2/bw/001.png","","","complex"
"","","","","","animation","61","760289","0.0-61.0","1920x1080","","2431.3000000000466","66.40","img/314/2.5/1/bw/001.png","","","complex"
"","","","","","animation","62","762672","0.0-62.0","1920x1080","","2382.3000000000466","73.94","img/238/3.5/1.5/bw/001.png","","","complex"
"","","","","","animation","63","764506","0.0-63.0","1920x1080","","1833.2000000000698","65.48","img/117/4/2/bw/001.png","","","complex"
"","","","","","animation","64","768240","0.0-64.0","1920x1080","","3733","56.08","img/117/4.5/2/bw/001.png","","","complex"
"","","","","","animation","65","771711","0.0-65.0","1920x1080","","3470.3000000000466","42","img/314/5.5/0.66667/bw/001.png","","","complex"
"","","","","","animation","66","775567","0.0-66.0","1920x1080","","3855.9000000000233","53.57","img/314/4.5/1.5/bw/001.png","","","complex"
"","","","","","animation","67","778759","0.0-67.0","1920x1080","","3190.79999999993","36.24","img/117/5.5/2/bw/001.png","","","complex"
"","","","","","animation","68","781656","0.0-68.0","1920x1080","","2895.8000000000466","71.03","img/238/4.5/0.66667/bw/001.png","","","complex"
"","","","","","animation","69","784151","0.0-69.0","1920x1080","","2494.70000000007","70.63","img/238/3.5/0.66667/bw/001.png","","","complex"
"","","","","","animation","70","786383","0.0-70.0","1920x1080","","2231","79.23","img/117/2.5/2/bw/001.png","","","complex"
"","","","","","animation","71","789031","0.0-71.0","1920x1080","","2647.20000000007","76.72","img/238/2.5/1/bw/001.png","","","complex"
"","","","","","animation","72","791456","0.0-72.0","1920x1080","","2424.1999999999534","76.32","img/117/2.5/0.66667/bw/001.png","","","complex"
"","","","","","animation","73","794591","0.0-73.0","1920x1080","","3133.5","31.35","img/314/5.5/2/bw/001.png","","","complex"
"","","","","","animation","74","796689","0.0-74.0","1920x1080","","2097.5999999999767","39.29","img/238/4/0.66667/bw/001.png","","","complex"
"","","","","","animation","75","800599","0.0-75.0","1920x1080","","3909.0999999999767","56","img/117/4/1.5/bw/001.png","","","complex"
"","","","","","animation","76","802735","0.0-76.0","1920x1080","","2134.4000000000233","70.24","img/238/2.5/1.5/bw/001.png","","","complex"
"","","","","","animation","77","807351","0.0-77.0","1920x1080","","4614.900000000023","37.57","img/238/4.5/1/bw/001.png","","","complex"
"","","","","","animation","78","810323","0.0-78.0","1920x1080","","2970.3000000000466","72.22","img/117/4/0.66667/bw/001.png","","","complex"
"","","","","","animation","79","816479","0.0-79.0","1920x1080","","6155.800000000047","79.50","img/117/3.5/0.5/bw/001.png","","","complex"
"","","","","","animation","80","820111","0.0-80.0","1920x1080","","3630.9000000000233","59.39","img/117/5.5/0.66667/bw/001.png","","","complex"
"","","","","","animation","81","823135","0.0-81.0","1920x1080","","3023.5","32.01","img/117/5.5/0.5/bw/001.png","","","complex"
"","","","","","html-button-response","82","842831","0.0-82.0","1920x1080","","19694.900000000023","","<div class=""intro"">You are about to view a new series of animations.<br><br></div><div class=""intro"">You will evaluate them based on a different descriptor.<br><br></div><div class=""intro"">Move the slider to indicate how <strong style=""text-transform:capitalize"">NATURAL</strong> you find each animation.<br><br></div><div class=""intro"">0 = Least Natural<br></div><div class=""intro"">1 = Most Natural<br><br></div><div class=""intro"">Remember to use the <strong><em>entire range</em></strong> of the slider to make your ratings.<br></div><div class=""intro"">Please <strong><em>take your time</em></strong> and carefully consider each rating you make.<br><br></div>","0","",""
"","","","","","call-function","83","842832","0.0-83.0","1920x1080","","","","","","",""
"","","","","","animation","84","849167","0.0-84.0","1920x1080","","6333.599999999977","22","img/314/3.5/0.66667/bw/001.png","","","natural"
"","","","","","animation","85","853111","0.0-85.0","1920x1080","","3942.9000000000233","13.62","img/314/4/2/bw/001.png","","","natural"
"","","","","","animation","86","856190","0.0-86.0","1920x1080","","3078.8000000000466","2","img/117/2.5/0.5/bw/001.png","","","natural"
"","","","","","animation","87","860510","0.0-87.0","1920x1080","","4319.400000000023","18","img/238/5.5/0.5/bw/001.png","","","natural"
"","","","","","animation","88","865089","0.0-88.0","1920x1080","","4577.199999999953","18","img/238/2.5/1/bw/001.png","","","natural"
"","","","","","animation","89","867759","0.0-89.0","1920x1080","","2669.0999999999767","16.93","img/238/2.5/0.5/bw/001.png","","","natural"
"","","","","","animation","90","870079","0.0-90.0","1920x1080","","2319.100000000093","14.68","img/238/2.5/0.66667/bw/001.png","","","natural"
"","","","","","animation","91","873806","0.0-91.0","1920x1080","","3726.70000000007","12.04","img/117/2.5/0.66667/bw/001.png","","","natural"
"","","","","","animation","92","878289","0.0-92.0","1920x1080","","4482.100000000093","0","img/117/4.5/2/bw/001.png","","","natural"
"","","","","","animation","93","880743","0.0-93.0","1920x1080","","2452.4000000000233","5","img/238/3.5/0.5/bw/001.png","","","natural"
"","","","","","animation","94","884121","0.0-94.0","1920x1080","","3378","8.86","img/117/4/1.5/bw/001.png","","","natural"
"","","","","","animation","95","888272","0.0-95.0","1920x1080","","4149.599999999977","13.23","img/314/3.5/1/bw/001.png","","","natural"
"","","","","","animation","96","890463","0.0-96.0","1920x1080","","2189.9000000000233","8.99","img/117/3.5/1/bw/001.png","","","natural"
"","","","","","animation","97","893711","0.0-97.0","1920x1080","","3247","10.85","img/238/4/1.5/bw/001.png","","","natural"
"","","","","","animation","98","896231","0.0-98.0","1920x1080","","2519.0999999999767","5.69","img/117/3.5/0.66667/bw/001.png","","","natural"
"","","","","","animation","99","899343","0.0-99.0","1920x1080","","3110.79999999993","21.43","img/117/2.5/1.5/bw/001.png","","","natural"
"","","","","","animation","100","901111","0.0-100.0","1920x1080","","1767.3000000000466","11.77","img/238/3.5/2/bw/001.png","","","natural"
"","","","","","animation","101","904422","0.0-101.0","1920x1080","","3310.9000000000233","7","img/314/4.5/1.5/bw/001.png","","","natural"
"","","","","","animation","102","907279","0.0-102.0","1920x1080","","2855.4000000000233","4.10","img/117/3.5/2/bw/001.png","","","natural"
"","","","","","animation","103","913279","0.0-103.0","1920x1080","","5999.20000000007","16.67","img/238/5.5/0.66667/bw/001.png","","","natural"
"","","","","","animation","104","919207","0.0-104.0","1920x1080","","5927.099999999977","26","img/314/5.5/1.5/bw/001.png","","","natural"
"","","","","","animation","105","921806","0.0-105.0","1920x1080","","2598.4000000000233","8.20","img/314/4/1/bw/001.png","","","natural"
"","","","","","animation","106","923959","0.0-106.0","1920x1080","","2151.5","3.84","img/314/4/0.66667/bw/001.png","","","natural"
"","","","","","animation","107","926456","0.0-107.0","1920x1080","","2495.9000000000233","18.65","img/238/5.5/2/bw/001.png","","","natural"
"","","","","","animation","108","929022","0.0-108.0","1920x1080","","2565.70000000007","0.79","img/238/3.5/1.5/bw/001.png","","","natural"
"","","","","","animation","109","931447","0.0-109.0","1920x1080","","2423.70000000007","33.47","img/238/2.5/2/bw/001.png","","","natural"
"","","","","","animation","110","935295","0.0-110.0","1920x1080","","3847","9","img/238/4.5/1.5/bw/001.png","","","natural"
"","","","","","animation","111","938688","0.0-111.0","1920x1080","","3392","4.50","img/238/4.5/1/bw/001.png","","","natural"
"","","","","","animation","112","941247","0.0-112.0","1920x1080","","2558","29.37","img/314/2.5/0.5/bw/001.png","","","natural"
"","","","","","animation","113","946311","0.0-113.0","1920x1080","","5063","16","img/314/5.5/0.66667/bw/001.png","","","natural"
"","","","","","animation","114","948447","0.0-114.0","1920x1080","","2135.0999999999767","2.65","img/117/4/0.5/bw/001.png","","","natural"
"","","","","","animation","115","951472","0.0-115.0","1920x1080","","3024.29999999993","28.84","img/314/2.5/0.66667/bw/001.png","","","natural"
"","","","","","animation","116","953674","0.0-116.0","1920x1080","","2200.8000000000466","2.91","img/314/4.5/2/bw/001.png","","","natural"
"","","","","","animation","117","960375","0.0-117.0","1920x1080","","6699.599999999977","19","img/117/5.5/1/bw/001.png","","","natural"
"","","","","","animation","118","962759","0.0-118.0","1920x1080","","2383.5","28.84","img/314/2.5/1.5/bw/001.png","","","natural"
"","","","","","animation","119","965722","0.0-119.0","1920x1080","","2962.399999999907","2.12","img/314/3.5/1.5/bw/001.png","","","natural"
"","","","","","animation","120","968506","0.0-120.0","1920x1080","","2782.70000000007","26.19","img/117/2.5/1/bw/001.png","","","natural"
"","","","","","animation","121","973055","0.0-121.0","1920x1080","","4547.899999999907","0","img/238/4/1/bw/001.png","","","natural"
"","","","","","animation","122","976039","0.0-122.0","1920x1080","","2982.8000000000466","13.49","img/117/5.5/0.5/bw/001.png","","","natural"
"","","","","","animation","123","978527","0.0-123.0","1920x1080","","2487.5999999999767","3.84","img/117/4.5/1.5/bw/001.png","","","natural"
"","","","","","animation","124","980799","0.0-124.0","1920x1080","","2271.1999999999534","2.12","img/238/4/0.66667/bw/001.png","","","natural"
"","","","","","animation","125","984872","0.0-125.0","1920x1080","","4071.79999999993","14.81","img/314/5.5/0.5/bw/001.png","","","natural"
"","","","","","animation","126","989095","0.0-126.0","1920x1080","","4222.400000000023","11.11","img/238/4.5/0.66667/bw/001.png","","","natural"
"","","","","","animation","127","991391","0.0-127.0","1920x1080","","2294.79999999993","12.83","img/314/4.5/0.66667/bw/001.png","","","natural"
"","","","","","animation","128","993639","0.0-128.0","1920x1080","","2246.8000000000466","19.31","img/314/5.5/1/bw/001.png","","","natural"
"","","","","","animation","129","996559","0.0-129.0","1920x1080","","2919.5","12.57","img/117/4.5/0.5/bw/001.png","","","natural"
"","","","","","animation","130","1000415","0.0-130.0","1920x1080","","3855.399999999907","18","img/117/5.5/0.66667/bw/001.png","","","natural"
"","","","","","animation","131","1004943","0.0-131.0","1920x1080","","4526.800000000047","3","img/117/4/0.66667/bw/001.png","","","natural"
"","","","","","animation","132","1006911","0.0-132.0","1920x1080","","1967.1999999999534","0","img/238/3.5/1/bw/001.png","","","natural"
"","","","","","animation","133","1009463","0.0-133.0","1920x1080","","2551.100000000093","16.67","img/117/5.5/2/bw/001.png","","","natural"
"","","","","","animation","134","1012015","0.0-134.0","1920x1080","","2550.899999999907","4.37","img/314/4/0.5/bw/001.png","","","natural"
"","","","","","animation","135","1013955","0.0-135.0","1920x1080","","1939.4000000001397","15.08","img/117/5.5/1.5/bw/001.png","","","natural"
"","","","","","animation","136","1016912","0.0-136.0","1920x1080","","2955.1999999999534","27.12","img/117/2.5/2/bw/001.png","","","natural"
"","","","","","animation","137","1021128","0.0-137.0","1920x1080","","4215.299999999814","1","img/117/3.5/0.5/bw/001.png","","","natural"
"","","","","","animation","138","1024356","0.0-138.0","1920x1080","","3227.600000000093","5.29","img/238/4.5/2/bw/001.png","","","natural"
"","","","","","animation","139","1027264","0.0-139.0","1920x1080","","2906.2999999998137","11.24","img/238/4/2/bw/001.png","","","natural"
"","","","","","animation","140","1029489","0.0-140.0","1920x1080","","2224.5999999998603","5.29","img/117/4.5/0.66667/bw/001.png","","","natural"
"","","","","","animation","141","1033056","0.0-141.0","1920x1080","","3565.6999999999534","3.04","img/314/3.5/2/bw/001.png","","","natural"
"","","","","","animation","142","1036906","0.0-142.0","1920x1080","","3848.6999999999534","6.48","img/117/4.5/1/bw/001.png","","","natural"
"","","","","","animation","143","1040560","0.0-143.0","1920x1080","","3652.9000000001397","6.61","img/117/4/1/bw/001.png","","","natural"
"","","","","","animation","144","1043728","0.0-144.0","1920x1080","","3167","15.08","img/238/5.5/1/bw/001.png","","","natural"
"","","","","","animation","145","1047105","0.0-145.0","1920x1080","","3376.3000000000466","3.70","img/117/3.5/1.5/bw/001.png","","","natural"
"","","","","","animation","146","1050759","0.0-146.0","1920x1080","","3653.5","25.26","img/314/2.5/1/bw/001.png","","","natural"
"","","","","","animation","147","1052955","0.0-147.0","1920x1080","","2194.600000000093","20.63","img/314/2.5/2/bw/001.png","","","natural"
"","","","","","animation","148","1056455","0.0-148.0","1920x1080","","3499.399999999907","0","img/117/4/2/bw/001.png","","","natural"
"","","","","","animation","149","1060599","0.0-149.0","1920x1080","","4143.200000000186","18.65","img/314/5.5/2/bw/001.png","","","natural"
"","","","","","animation","150","1063921","0.0-150.0","1920x1080","","3321.4000000001397","3.70","img/314/4.5/1/bw/001.png","","","natural"
"","","","","","animation","151","1066305","0.0-151.0","1920x1080","","2382.6999999999534","3.17","img/238/3.5/0.66667/bw/001.png","","","natural"
"","","","","","animation","152","1068759","0.0-152.0","1920x1080","","2453.0999999998603","3.57","img/238/4/0.5/bw/001.png","","","natural"
"","","","","","animation","153","1071159","0.0-153.0","1920x1080","","2399.1999999999534","17.86","img/238/5.5/1.5/bw/001.png","","","natural"
"","","","","","animation","154","1073551","0.0-154.0","1920x1080","","2391.5","1.59","img/314/3.5/0.5/bw/001.png","","","natural"
"","","","","","animation","155","1077048","0.0-155.0","1920x1080","","3493.600000000093","2.78","img/314/4.5/0.5/bw/001.png","","","natural"
"","","","","","animation","156","1079040","0.0-156.0","1920x1080","","1991","20.50","img/238/2.5/1.5/bw/001.png","","","natural"
"","","","","","animation","157","1081976","0.0-157.0","1920x1080","","2935.100000000093","0","img/314/4/1.5/bw/001.png","","","natural"
"","","","","","animation","158","1084408","0.0-158.0","1920x1080","","2431.1999999999534","7.80","img/238/4.5/0.5/bw/001.png","","","natural"
"","","","","","html-button-response","159","1111974","0.0-159.0","1920x1080","","27565.40000000014","","<div class=""intro"">You are about to view a new series of animations.<br><br></div><div class=""intro"">You will evaluate them based on a different descriptor.<br><br></div><div class=""intro"">Move the slider to indicate how <strong style=""text-transform:capitalize"">APPEALING</strong> you find each animation.<br><br></div><div class=""intro"">0 = Least Appealing<br></div><div class=""intro"">1 = Most Appealing<br><br></div><div class=""intro"">Remember to use the <strong><em>entire range</em></strong> of the slider to make your ratings.<br></div><div class=""intro"">Please <strong><em>take your time</em></strong> and carefully consider each rating you make.<br><br></div>","0","",""
"","","","","","call-function","160","1111978","0.0-160.0","1920x1080","","","","","","",""
"","","","","","animation","161","1119906","0.0-161.0","1920x1080","","7926.300000000047","49.34","img/238/4.5/0.5/bw/001.png","","","appealing"
"","","","","","animation","162","1124032","0.0-162.0","1920x1080","","4124.899999999907","37.17","img/238/4/0.66667/bw/001.png","","","appealing"
"","","","","","animation","163","1128640","0.0-163.0","1920x1080","","4606.800000000047","85.05","img/117/2.5/2/bw/001.png","","","appealing"
"","","","","","animation","164","1134016","0.0-164.0","1920x1080","","5375","25.26","img/238/3.5/1.5/bw/001.png","","","appealing"
"","","","","","animation","165","1139130","0.0-165.0","1920x1080","","5110.699999999953","78.84","img/314/2.5/1.5/bw/001.png","","","appealing"
"","","","","","animation","166","1141930","0.0-166.0","1920x1080","","2798.0999999998603","9.79","img/117/3.5/0.66667/bw/001.png","","","appealing"
"","","","","","animation","167","1145291","0.0-167.0","1920x1080","","3360.399999999907","25.13","img/117/3.5/2/bw/001.png","","","appealing"
"","","","","","animation","168","1149391","0.0-168.0","1920x1080","","4098.699999999953","10.85","img/314/2.5/0.5/bw/001.png","","","appealing"
"","","","","","animation","169","1151691","0.0-169.0","1920x1080","","2299.1999999999534","7.94","img/314/4/0.5/bw/001.png","","","appealing"
"","","","","","animation","170","1157082","0.0-170.0","1920x1080","","5389.800000000047","38","img/314/4.5/1.5/bw/001.png","","","appealing"
"","","","","","animation","171","1162274","0.0-171.0","1920x1080","","5191.100000000093","30.95","img/117/4.5/1/bw/001.png","","","appealing"
"","","","","","animation","172","1166124","0.0-172.0","1920x1080","","3848.7999999998137","18.39","img/238/4.5/2/bw/001.png","","","appealing"
"","","","","","animation","173","1168341","0.0-173.0","1920x1080","","2215","7.94","img/314/3.5/1/bw/001.png","","","appealing"
"","","","","","animation","174","1175330","0.0-174.0","1920x1080","","6987.899999999907","90","img/238/5.5/0.66667/bw/001.png","","","appealing"
"","","","","","animation","175","1178374","0.0-175.0","1920x1080","","3043.5999999998603","30.03","img/117/4.5/0.66667/bw/001.png","","","appealing"
"","","","","","animation","176","1180524","0.0-176.0","1920x1080","","2148.9000000001397","8.47","img/314/3.5/1.5/bw/001.png","","","appealing"
"","","","","","animation","177","1183714","0.0-177.0","1920x1080","","3188.399999999907","1.32","img/238/4/0.5/bw/001.png","","","appealing"
"","","","","","animation","178","1186791","0.0-178.0","1920x1080","","3076","0","img/314/4.5/0.66667/bw/001.png","","","appealing"
"","","","","","animation","179","1189498","0.0-179.0","1920x1080","","2705.8000000000466","0.93","img/117/3.5/1/bw/001.png","","","appealing"
"","","","","","animation","180","1194858","0.0-180.0","1920x1080","","5358.899999999907","28.57","img/314/4.5/2/bw/001.png","","","appealing"
"","","","","","animation","181","1201450","0.0-181.0","1920x1080","","6590.699999999953","90","img/314/5.5/1.5/bw/001.png","","","appealing"
"","","","","","animation","182","1206026","0.0-182.0","1920x1080","","4574.600000000093","39","img/238/4.5/1.5/bw/001.png","","","appealing"
"","","","","","animation","183","1209092","0.0-183.0","1920x1080","","3064.8000000000466","2.65","img/238/3.5/0.66667/bw/001.png","","","appealing"
"","","","","","animation","184","1219698","0.0-184.0","1920x1080","","10605.699999999953","79.76","img/314/2.5/2/bw/001.png","","","appealing"
"","","","","","animation","185","1222978","0.0-185.0","1920x1080","","3277.6999999999534","17.86","img/117/4/2/bw/001.png","","","appealing"
"","","","","","animation","186","1225942","0.0-186.0","1920x1080","","2962.6999999999534","12.96","img/238/4/1/bw/001.png","","","appealing"
"","","","","","animation","187","1228108","0.0-187.0","1920x1080","","2165.8000000000466","6.35","img/238/3.5/2/bw/001.png","","","appealing"
"","","","","","animation","188","1231992","0.0-188.0","1920x1080","","3882.399999999907","11.38","img/314/4.5/0.5/bw/001.png","","","appealing"
"","","","","","animation","189","1234650","0.0-189.0","1920x1080","","2658","2","img/117/4/0.66667/bw/001.png","","","appealing"
"","","","","","animation","190","1240758","0.0-190.0","1920x1080","","6106.899999999907","88","img/238/5.5/2/bw/001.png","","","appealing"
"","","","","","animation","191","1244642","0.0-191.0","1920x1080","","3882.3000000000466","89","img/117/5.5/1.5/bw/001.png","","","appealing"
"","","","","","animation","192","1251235","0.0-192.0","1920x1080","","6589.100000000093","92","img/238/5.5/1/bw/001.png","","","appealing"
"","","","","","animation","193","1254875","0.0-193.0","1920x1080","","3639.3000000000466","50","img/117/4.5/2/bw/001.png","","","appealing"
"","","","","","animation","194","1257293","0.0-194.0","1920x1080","","2415.5","0","img/238/3.5/0.5/bw/001.png","","","appealing"
"","","","","","animation","195","1259179","0.0-195.0","1920x1080","","1885.5","6.88","img/238/2.5/0.66667/bw/001.png","","","appealing"
"","","","","","animation","196","1261159","0.0-196.0","1920x1080","","1979.3000000000466","4.63","img/314/3.5/0.5/bw/001.png","","","appealing"
"","","","","","animation","197","1266643","0.0-197.0","1920x1080","","5482.700000000186","62.04","img/238/2.5/2/bw/001.png","","","appealing"
"","","","","","animation","198","1271067","0.0-198.0","1920x1080","","4423.5","4.37","img/314/3.5/0.66667/bw/001.png","","","appealing"
"","","","","","animation","199","1274193","0.0-199.0","1920x1080","","3124","18.92","img/238/4.5/1/bw/001.png","","","appealing"
"","","","","","animation","200","1276709","0.0-200.0","1920x1080","","2515.6999999999534","6.88","img/238/2.5/0.5/bw/001.png","","","appealing"
"","","","","","animation","201","1280027","0.0-201.0","1920x1080","","3316.7000000001863","9.66","img/117/2.5/0.66667/bw/001.png","","","appealing"
"","","","","","animation","202","1285176","0.0-202.0","1920x1080","","5148","19.97","img/117/4.5/1.5/bw/001.png","","","appealing"
"","","","","","animation","203","1288435","0.0-203.0","1920x1080","","3258","3.97","img/238/3.5/1/bw/001.png","","","appealing"
"","","","","","animation","204","1295883","0.0-204.0","1920x1080","","7446.800000000047","94","img/238/5.5/0.5/bw/001.png","","","appealing"
"","","","","","animation","205","1298411","0.0-205.0","1920x1080","","2526.3000000000466","35.71","img/117/4/1/bw/001.png","","","appealing"
"","","","","","animation","206","1302283","0.0-206.0","1920x1080","","3871.5","10.58","img/314/3.5/2/bw/001.png","","","appealing"
"","","","","","animation","207","1305379","0.0-207.0","1920x1080","","3094.2000000001863","74.74","img/117/2.5/1.5/bw/001.png","","","appealing"
"","","","","","animation","208","1312251","0.0-208.0","1920x1080","","6871.300000000047","94","img/314/5.5/1/bw/001.png","","","appealing"
"","","","","","animation","209","1320126","0.0-209.0","1920x1080","","7873.199999999953","23.54","img/117/4/1.5/bw/001.png","","","appealing"
"","","","","","animation","210","1328427","0.0-210.0","1920x1080","","8299.899999999907","100","img/314/5.5/2/bw/001.png","","","appealing"
"","","","","","animation","211","1331268","0.0-211.0","1920x1080","","2839.2000000001863","10.58","img/117/3.5/1.5/bw/001.png","","","appealing"
"","","","","","animation","212","1336116","0.0-212.0","1920x1080","","4846.800000000047","100","img/117/5.5/1/bw/001.png","","","appealing"
"","","","","","animation","213","1338836","0.0-213.0","1920x1080","","2718.600000000093","7.14","img/117/2.5/0.5/bw/001.png","","","appealing"
"","","","","","animation","214","1345476","0.0-214.0","1920x1080","","6638.899999999907","98","img/238/5.5/1.5/bw/001.png","","","appealing"
"","","","","","animation","215","1348116","0.0-215.0","1920x1080","","2638.100000000093","8.20","img/117/3.5/0.5/bw/001.png","","","appealing"
"","","","","","animation","216","1352468","0.0-216.0","1920x1080","","4351","11.11","img/238/4.5/0.66667/bw/001.png","","","appealing"
"","","","","","animation","217","1360716","0.0-217.0","1920x1080","","8247","77","img/117/5.5/2/bw/001.png","","","appealing"
"","","","","","animation","218","1362884","0.0-218.0","1920x1080","","2166.7000000001863","7","img/314/4/1/bw/001.png","","","appealing"
"","","","","","animation","219","1366996","0.0-219.0","1920x1080","","4110.40000000014","75.26","img/238/2.5/1.5/bw/001.png","","","appealing"
"","","","","","animation","220","1369843","0.0-220.0","1920x1080","","2846.5999999998603","25.53","img/314/4/2/bw/001.png","","","appealing"
"","","","","","animation","221","1374743","0.0-221.0","1920x1080","","4898.300000000047","80.82","img/117/5.5/0.5/bw/001.png","","","appealing"
"","","","","","animation","222","1377659","0.0-222.0","1920x1080","","2915.5","69.97","img/238/2.5/1/bw/001.png","","","appealing"
"","","","","","animation","223","1384693","0.0-223.0","1920x1080","","7032.399999999907","39.68","img/314/4.5/1/bw/001.png","","","appealing"
"","","","","","animation","224","1389267","0.0-224.0","1920x1080","","4573.5","20.11","img/238/4/2/bw/001.png","","","appealing"
"","","","","","animation","225","1391979","0.0-225.0","1920x1080","","2710.5999999998603","9.26","img/117/4/0.5/bw/001.png","","","appealing"
"","","","","","animation","226","1396893","0.0-226.0","1920x1080","","4912.09999999986","10.85","img/238/4/1.5/bw/001.png","","","appealing"
"","","","","","animation","227","1401592","0.0-227.0","1920x1080","","4698.5","58.60","img/314/2.5/1/bw/001.png","","","appealing"
"","","","","","animation","228","1406176","0.0-228.0","1920x1080","","4582.399999999907","99","img/314/5.5/0.66667/bw/001.png","","","appealing"
"","","","","","animation","229","1408843","0.0-229.0","1920x1080","","2665.8000000000466","24.74","img/314/4/1.5/bw/001.png","","","appealing"
"","","","","","animation","230","1413611","0.0-230.0","1920x1080","","4766.800000000047","74.60","img/117/2.5/1/bw/001.png","","","appealing"
"","","","","","animation","231","1417042","0.0-231.0","1920x1080","","3429.6999999999534","100","img/117/5.5/0.66667/bw/001.png","","","appealing"
"","","","","","animation","232","1422326","0.0-232.0","1920x1080","","5282.399999999907","3","img/314/4/0.66667/bw/001.png","","","appealing"
"","","","","","animation","233","1427626","0.0-233.0","1920x1080","","5299","82.67","img/314/5.5/0.5/bw/001.png","","","appealing"
"","","","","","animation","234","1430426","0.0-234.0","1920x1080","","2798.6999999999534","68.92","img/314/2.5/0.66667/bw/001.png","","","appealing"
"","","","","","animation","235","1434609","0.0-235.0","1920x1080","","4182.5","10.19","img/117/4.5/0.5/bw/001.png","","","appealing"
"","","","","","html-button-response","236","1487376","0.0-236.0","1920x1080","","52764.69999999995","","<div class=""intro"">You are about to view a new series of animations.<br><br></div><div class=""intro"">You will evaluate them based on a different descriptor.<br><br></div><div class=""intro"">Move the slider to indicate how <strong style=""text-transform:capitalize"">RELAXING</strong> you find each animation.<br><br></div><div class=""intro"">0 = Least Relaxing<br></div><div class=""intro"">1 = Most Relaxing<br><br></div><div class=""intro"">Remember to use the <strong><em>entire range</em></strong> of the slider to make your ratings.<br></div><div class=""intro"">Please <strong><em>take your time</em></strong> and carefully consider each rating you make.<br><br></div>","0","",""
"","","","","","call-function","237","1487379","0.0-237.0","1920x1080","","","","","","",""
"","","","","","animation","238","1522776","0.0-238.0","1920x1080","","35395","79.76","img/238/4.5/1.5/bw/001.png","","","relaxing"
"","","","","","animation","239","1528484","0.0-239.0","1920x1080","","5707","0","img/117/3.5/0.5/bw/001.png","","","relaxing"
"","","","","","animation","240","1532027","0.0-240.0","1920x1080","","3542.0999999998603","73.81","img/314/2.5/2/bw/001.png","","","relaxing"
"","","","","","animation","241","1538611","0.0-241.0","1920x1080","","6582.800000000047","14.42","img/314/4.5/1/bw/001.png","","","relaxing"
"","","","","","animation","242","1540926","0.0-242.0","1920x1080","","2312.7000000001863","7.80","img/314/4/2/bw/001.png","","","relaxing"
"","","","","","animation","243","1543300","0.0-243.0","1920x1080","","2372.9000000001397","16.67","img/117/4/1.5/bw/001.png","","","relaxing"
"","","","","","animation","244","1546764","0.0-244.0","1920x1080","","3462.6999999999534","23.28","img/238/4/1.5/bw/001.png","","","relaxing"
"","","","","","animation","245","1553548","0.0-245.0","1920x1080","","6783.09999999986","100","img/314/5.5/0.66667/bw/001.png","","","relaxing"
"","","","","","animation","246","1558996","0.0-246.0","1920x1080","","5446.699999999953","24","img/238/4.5/0.5/bw/001.png","","","relaxing"
"","","","","","animation","247","1562493","0.0-247.0","1920x1080","","3495.1999999999534","29","img/238/4.5/1/bw/001.png","","","relaxing"
"","","","","","animation","248","1564612","0.0-248.0","1920x1080","","2115","2.25","img/314/3.5/0.66667/bw/001.png","","","relaxing"
"","","","","","animation","249","1568012","0.0-249.0","1920x1080","","3399.0999999998603","99","img/314/5.5/1/bw/001.png","","","relaxing"
"","","","","","animation","250","1570748","0.0-250.0","1920x1080","","2735.0999999998603","0.53","img/238/3.5/0.5/bw/001.png","","","relaxing"
"","","","","","animation","251","1576212","0.0-251.0","1920x1080","","5462.600000000093","15.34","img/117/4.5/1/bw/001.png","","","relaxing"
"","","","","","animation","252","1584132","0.0-252.0","1920x1080","","7918.800000000047","100","img/117/5.5/2/bw/001.png","","","relaxing"
"","","","","","animation","253","1589526","0.0-253.0","1920x1080","","5392.899999999907","16","img/117/4/0.5/bw/001.png","","","relaxing"
"","","","","","animation","254","1592500","0.0-254.0","1920x1080","","2972.3000000000466","100","img/238/5.5/2/bw/001.png","","","relaxing"
"","","","","","animation","255","1597392","0.0-255.0","1920x1080","","4891.199999999953","91","img/238/5.5/0.66667/bw/001.png","","","relaxing"
"","","","","","animation","256","1600444","0.0-256.0","1920x1080","","3049.899999999907","3.84","img/117/4/0.66667/bw/001.png","","","relaxing"
"","","","","","animation","257","1605260","0.0-257.0","1920x1080","","4814.600000000093","14.55","img/314/3.5/2/bw/001.png","","","relaxing"
"","","","","","animation","258","1607500","0.0-258.0","1920x1080","","2238.5","17.46","img/314/4.5/0.66667/bw/001.png","","","relaxing"
"","","","","","animation","259","1609726","0.0-259.0","1920x1080","","2224.5999999998603","6.48","img/238/3.5/1/bw/001.png","","","relaxing"
"","","","","","animation","260","1616476","0.0-260.0","1920x1080","","6748.800000000047","65.87","img/117/2.5/2/bw/001.png","","","relaxing"
"","","","","","animation","261","1620542","0.0-261.0","1920x1080","","4065.3000000000466","99","img/117/5.5/0.66667/bw/001.png","","","relaxing"
"","","","","","animation","262","1628776","0.0-262.0","1920x1080","","8231.899999999907","54","img/238/4.5/2/bw/001.png","","","relaxing"
"","","","","","animation","263","1632748","0.0-263.0","1920x1080","","3971.0999999998603","0","img/238/2.5/0.66667/bw/001.png","","","relaxing"
"","","","","","animation","264","1635442","0.0-264.0","1920x1080","","2692.7000000001863","5","img/238/3.5/1.5/bw/001.png","","","relaxing"
"","","","","","animation","265","1639875","0.0-265.0","1920x1080","","4431.800000000047","100","img/117/5.5/1/bw/001.png","","","relaxing"
"","","","","","animation","266","1642192","0.0-266.0","1920x1080","","2315","17.20","img/238/3.5/2/bw/001.png","","","relaxing"
"","","","","","animation","267","1645759","0.0-267.0","1920x1080","","3565.399999999907","7","img/117/4.5/1.5/bw/001.png","","","relaxing"
"","","","","","animation","268","1651476","0.0-268.0","1920x1080","","5715.399999999907","66.14","img/117/5.5/0.5/bw/001.png","","","relaxing"
"","","","","","animation","269","1654593","0.0-269.0","1920x1080","","3115.7999999998137","7.67","img/314/3.5/1.5/bw/001.png","","","relaxing"
"","","","","","animation","270","1658209","0.0-270.0","1920x1080","","3614.6999999999534","99","img/314/5.5/2/bw/001.png","","","relaxing"
"","","","","","animation","271","1661409","0.0-271.0","1920x1080","","3198.7999999998137","5.16","img/314/4.5/1.5/bw/001.png","","","relaxing"
"","","","","","animation","272","1663812","0.0-272.0","1920x1080","","2401.5","0.40","img/314/4/0.5/bw/001.png","","","relaxing"
"","","","","","animation","273","1665860","0.0-273.0","1920x1080","","2046.7999999998137","1.59","img/117/3.5/1/bw/001.png","","","relaxing"
"","","","","","animation","274","1670844","0.0-274.0","1920x1080","","4982.399999999907","99","img/314/5.5/1.5/bw/001.png","","","relaxing"
"","","","","","animation","275","1676562","0.0-275.0","1920x1080","","5716","59.39","img/117/4.5/2/bw/001.png","","","relaxing"
"","","","","","animation","276","1681926","0.0-276.0","1920x1080","","5362.09999999986","99","img/238/5.5/1.5/bw/001.png","","","relaxing"
"","","","","","animation","277","1685316","0.0-277.0","1920x1080","","3388.600000000093","33.99","img/238/4/2/bw/001.png","","","relaxing"
"","","","","","animation","278","1687499","0.0-278.0","1920x1080","","2181.3000000000466","11.64","img/314/2.5/0.66667/bw/001.png","","","relaxing"
"","","","","","animation","279","1692949","0.0-279.0","1920x1080","","5447.90000000014","8","img/314/2.5/1/bw/001.png","","","relaxing"
"","","","","","animation","280","1696660","0.0-280.0","1920x1080","","3710.3000000000466","12.96","img/314/4/1.5/bw/001.png","","","relaxing"
"","","","","","animation","281","1699893","0.0-281.0","1920x1080","","3231.3000000000466","26.32","img/238/2.5/1/bw/001.png","","","relaxing"
"","","","","","animation","282","1706844","0.0-282.0","1920x1080","","6950.399999999907","70.37","img/314/5.5/0.5/bw/001.png","","","relaxing"
"","","","","","animation","283","1709996","0.0-283.0","1920x1080","","3150.6999999999534","66.93","img/117/2.5/1.5/bw/001.png","","","relaxing"
"","","","","","animation","284","1714993","0.0-284.0","1920x1080","","4995.59999999986","3","img/117/4.5/0.5/bw/001.png","","","relaxing"
"","","","","","animation","285","1717460","0.0-285.0","1920x1080","","2465.2999999998137","2.91","img/117/4.5/0.66667/bw/001.png","","","relaxing"
"","","","","","animation","286","1719932","0.0-286.0","1920x1080","","2471.399999999907","4.63","img/314/4.5/0.5/bw/001.png","","","relaxing"
"","","","","","animation","287","1722300","0.0-287.0","1920x1080","","2366.9000000001397","4.23","img/238/3.5/0.66667/bw/001.png","","","relaxing"
"","","","","","animation","288","1724776","0.0-288.0","1920x1080","","2474.5","4.50","img/314/3.5/0.5/bw/001.png","","","relaxing"
"","","","","","animation","289","1728625","0.0-289.0","1920x1080","","3847.3000000000466","9","img/314/3.5/1/bw/001.png","","","relaxing"
"","","","","","animation","290","1732176","0.0-290.0","1920x1080","","3549","1.59","img/238/4/0.66667/bw/001.png","","","relaxing"
"","","","","","animation","291","1738479","0.0-291.0","1920x1080","","6301","57.67","img/238/2.5/2/bw/001.png","","","relaxing"
"","","","","","animation","292","1742101","0.0-292.0","1920x1080","","3620.0999999998603","99","img/117/5.5/1.5/bw/001.png","","","relaxing"
"","","","","","animation","293","1744879","0.0-293.0","1920x1080","","2776.6999999999534","4.10","img/117/2.5/0.5/bw/001.png","","","relaxing"
"","","","","","animation","294","1746843","0.0-294.0","1920x1080","","1963","9.79","img/314/4/1/bw/001.png","","","relaxing"
"","","","","","animation","295","1751276","0.0-295.0","1920x1080","","4432.199999999953","20","img/117/2.5/0.66667/bw/001.png","","","relaxing"
"","","","","","animation","296","1756976","0.0-296.0","1920x1080","","5698.300000000047","6","img/238/4/1/bw/001.png","","","relaxing"
"","","","","","animation","297","1759093","0.0-297.0","1920x1080","","2115.100000000093","26","img/117/2.5/1/bw/001.png","","","relaxing"
"","","","","","animation","298","1764996","0.0-298.0","1920x1080","","5901.899999999907","54","img/314/2.5/1.5/bw/001.png","","","relaxing"
"","","","","","animation","299","1768881","0.0-299.0","1920x1080","","3883.4000000001397","22.09","img/117/3.5/2/bw/001.png","","","relaxing"
"","","","","","animation","300","1772676","0.0-300.0","1920x1080","","3793.7000000001863","98","img/238/5.5/0.5/bw/001.png","","","relaxing"
"","","","","","animation","301","1776093","0.0-301.0","1920x1080","","3414.7000000001863","64.81","img/238/2.5/1.5/bw/001.png","","","relaxing"
"","","","","","animation","302","1779348","0.0-302.0","1920x1080","","3253.5999999998603","32.67","img/117/4/1/bw/001.png","","","relaxing"
"","","","","","animation","303","1783793","0.0-303.0","1920x1080","","4443.699999999953","22.35","img/238/4.5/0.66667/bw/001.png","","","relaxing"
"","","","","","animation","304","1787625","0.0-304.0","1920x1080","","3830.6999999999534","27.12","img/314/4.5/2/bw/001.png","","","relaxing"
"","","","","","animation","305","1792596","0.0-305.0","1920x1080","","4969.600000000093","100","img/238/5.5/1/bw/001.png","","","relaxing"
"","","","","","animation","306","1794976","0.0-306.0","1920x1080","","2378.600000000093","3.70","img/238/2.5/0.5/bw/001.png","","","relaxing"
"","","","","","animation","307","1799241","0.0-307.0","1920x1080","","4264.199999999953","0.40","img/117/3.5/0.66667/bw/001.png","","","relaxing"
"","","","","","animation","308","1802075","0.0-308.0","1920x1080","","2833.5","5.29","img/117/3.5/1.5/bw/001.png","","","relaxing"
"","","","","","animation","309","1804708","0.0-309.0","1920x1080","","2631.5","0.00","img/314/2.5/0.5/bw/001.png","","","relaxing"
"","","","","","animation","310","1810627","0.0-310.0","1920x1080","","5918","8","img/117/4/2/bw/001.png","","","relaxing"
"","","","","","animation","311","1814397","0.0-311.0","1920x1080","","3768.399999999907","1.19","img/314/4/0.66667/bw/001.png","","","relaxing"
"","","","","","animation","312","1816909","0.0-312.0","1920x1080","","2509.5","3.04","img/238/4/0.5/bw/001.png","","","relaxing"
"","","","","","html-button-response","313","1919660","0.0-313.0","1920x1080","","102749.80000000005","","<div class=""intro"">You are about to view a new series of animations.<br><br></div><div class=""intro"">You will evaluate them based on a different descriptor.<br><br></div><div class=""intro"">Move the slider to indicate how <strong style=""text-transform:capitalize"">INTERESTING</strong> you find each animation.<br><br></div><div class=""intro"">0 = Least Interesting<br></div><div class=""intro"">1 = Most Interesting<br><br></div><div class=""intro"">Remember to use the <strong><em>entire range</em></strong> of the slider to make your ratings.<br></div><div class=""intro"">Please <strong><em>take your time</em></strong> and carefully consider each rating you make.<br><br></div>","0","",""
"","","","","","call-function","314","1919664","0.0-314.0","1920x1080","","","","","","",""
"","","","","","animation","315","1928413","0.0-315.0","1920x1080","","8748.40000000014","83.99","img/117/4/1.5/bw/001.png","","","interesting"
"","","","","","animation","316","1932507","0.0-316.0","1920x1080","","4091.899999999907","83.99","img/117/3.5/2/bw/001.png","","","interesting"
"","","","","","animation","317","1938860","0.0-317.0","1920x1080","","6350.5","38.76","img/117/3.5/0.5/bw/001.png","","","interesting"
"","","","","","animation","318","1944095","0.0-318.0","1920x1080","","5233.200000000186","48.94","img/314/4/0.66667/bw/001.png","","","interesting"
"","","","","","animation","319","1950332","0.0-319.0","1920x1080","","6235.699999999953","28.70","img/117/3.5/1.5/bw/001.png","","","interesting"
"","","","","","animation","320","1954285","0.0-320.0","1920x1080","","3952","33.47","img/238/4/1/bw/001.png","","","interesting"
"","","","","","animation","321","1957844","0.0-321.0","1920x1080","","3555.9000000001397","16","img/238/2.5/0.66667/bw/001.png","","","interesting"
"","","","","","animation","322","1971078","0.0-322.0","1920x1080","","13232.800000000047","30.69","img/117/4/1/bw/001.png","","","interesting"
"","","","","","animation","323","1977876","0.0-323.0","1920x1080","","6796.600000000093","99","img/314/5.5/1.5/bw/001.png","","","interesting"
"","","","","","animation","324","1981444","0.0-324.0","1920x1080","","3566.6999999999534","89.81","img/238/4.5/2/bw/001.png","","","interesting"
"","","","","","animation","325","1984574","0.0-325.0","1920x1080","","3128.100000000093","76.06","img/117/4.5/1/bw/001.png","","","interesting"
"","","","","","animation","326","1992428","0.0-326.0","1920x1080","","7852.800000000047","13","img/238/3.5/2/bw/001.png","","","interesting"
"","","","","","animation","327","1996674","0.0-327.0","1920x1080","","4245.5","11.11","img/117/2.5/1.5/bw/001.png","","","interesting"
"","","","","","animation","328","2001580","0.0-328.0","1920x1080","","4904","13.62","img/238/2.5/2/bw/001.png","","","interesting"
"","","","","","animation","329","2006324","0.0-329.0","1920x1080","","4742.5","19.44","img/314/3.5/1.5/bw/001.png","","","interesting"
"","","","","","animation","330","2009734","0.0-330.0","1920x1080","","3408.5999999998603","77.25","img/238/4.5/1.5/bw/001.png","","","interesting"
"","","","","","animation","331","2017041","0.0-331.0","1920x1080","","7304.800000000047","44.18","img/117/3.5/1/bw/001.png","","","interesting"
"","","","","","animation","332","2019717","0.0-332.0","1920x1080","","2674.7000000001863","10.05","img/314/2.5/1.5/bw/001.png","","","interesting"
"","","","","","animation","333","2023429","0.0-333.0","1920x1080","","3709.600000000093","97","img/117/5.5/0.66667/bw/001.png","","","interesting"
"","","","","","animation","334","2031324","0.0-334.0","1920x1080","","7893.800000000047","64","img/238/3.5/1.5/bw/001.png","","","interesting"
"","","","","","animation","335","2035612","0.0-335.0","1920x1080","","4286.300000000047","16.27","img/117/2.5/0.5/bw/001.png","","","interesting"
"","","","","","animation","336","2046580","0.0-336.0","1920x1080","","10966.300000000047","95","img/238/5.5/1.5/bw/001.png","","","interesting"
"","","","","","animation","337","2079180","0.0-337.0","1920x1080","","32598.5","14","img/238/4/1.5/bw/001.png","","","interesting"
"","","","","","animation","338","2082831","0.0-338.0","1920x1080","","3649.1999999997206","100","img/314/5.5/0.5/bw/001.png","","","interesting"
"","","","","","animation","339","2092781","0.0-339.0","1920x1080","","9947.700000000186","35","img/314/3.5/2/bw/001.png","","","interesting"
"","","","","","animation","340","2097792","0.0-340.0","1920x1080","","5008.600000000093","64.02","img/238/4.5/0.66667/bw/001.png","","","interesting"
"","","","","","animation","341","2104625","0.0-341.0","1920x1080","","6831.800000000279","68","img/238/4.5/0.5/bw/001.png","","","interesting"
"","","","","","animation","342","2107781","0.0-342.0","1920x1080","","3155.2000000001863","12.57","img/117/4.5/1.5/bw/001.png","","","interesting"
"","","","","","animation","343","2110212","0.0-343.0","1920x1080","","2429.4000000003725","4.50","img/117/2.5/2/bw/001.png","","","interesting"
"","","","","","animation","344","2114596","0.0-344.0","1920x1080","","4382.700000000186","16.80","img/314/3.5/0.66667/bw/001.png","","","interesting"
"","","","","","animation","345","2127475","0.0-345.0","1920x1080","","12877","16","img/238/4.5/1/bw/001.png","","","interesting"
"","","","","","animation","346","2131295","0.0-346.0","1920x1080","","3818.3000000002794","7.14","img/314/4/2/bw/001.png","","","interesting"
"","","","","","animation","347","2136780","0.0-347.0","1920x1080","","5484.200000000186","38.49","img/314/4/1/bw/001.png","","","interesting"
"","","","","","animation","348","2140667","0.0-348.0","1920x1080","","3885.100000000093","8.99","img/117/4/2/bw/001.png","","","interesting"
"","","","","","animation","349","2145675","0.0-349.0","1920x1080","","5006.800000000279","63.23","img/314/4.5/2/bw/001.png","","","interesting"
"","","","","","animation","350","2151844","0.0-350.0","1920x1080","","6168.300000000279","30.42","img/117/4/0.66667/bw/001.png","","","interesting"
"","","","","","animation","351","2155630","0.0-351.0","1920x1080","","3784.600000000093","18.92","img/238/3.5/0.5/bw/001.png","","","interesting"
"","","","","","animation","352","2160118","0.0-352.0","1920x1080","","4487.699999999721","18.39","img/314/2.5/0.5/bw/001.png","","","interesting"
"","","","","","animation","353","2173540","0.0-353.0","1920x1080","","13419.600000000093","23.41","img/314/3.5/0.5/bw/001.png","","","interesting"
"","","","","","animation","354","2181644","0.0-354.0","1920x1080","","8102.600000000093","34.66","img/314/4.5/0.66667/bw/001.png","","","interesting"
"","","","","","animation","355","2184660","0.0-355.0","1920x1080","","3014.600000000093","19.18","img/238/4/0.66667/bw/001.png","","","interesting"
"","","","","","animation","356","2187266","0.0-356.0","1920x1080","","2604.899999999907","9.52","img/117/2.5/1/bw/001.png","","","interesting"
"","","","","","animation","357","2191188","0.0-357.0","1920x1080","","3921","90.21","img/314/5.5/0.66667/bw/001.png","","","interesting"
"","","","","","animation","358","2194614","0.0-358.0","1920x1080","","3423.7999999998137","19.84","img/314/4/0.5/bw/001.png","","","interesting"
"","","","","","animation","359","2197876","0.0-359.0","1920x1080","","3259.7000000001863","100","img/238/5.5/0.66667/bw/001.png","","","interesting"
"","","","","","animation","360","2206597","0.0-360.0","1920x1080","","8718.700000000186","36","img/314/4/1.5/bw/001.png","","","interesting"
"","","","","","animation","361","2210495","0.0-361.0","1920x1080","","3896.6999999997206","100","img/238/5.5/2/bw/001.png","","","interesting"
"","","","","","animation","362","2217430","0.0-362.0","1920x1080","","6934.200000000186","13.23","img/314/4.5/1.5/bw/001.png","","","interesting"
"","","","","","animation","363","2220365","0.0-363.0","1920x1080","","2933.3000000002794","43.39","img/314/4.5/0.5/bw/001.png","","","interesting"
"","","","","","animation","364","2224633","0.0-364.0","1920x1080","","4267.100000000093","100","img/238/5.5/0.5/bw/001.png","","","interesting"
"","","","","","animation","365","2229840","0.0-365.0","1920x1080","","5205.600000000093","99","img/238/5.5/1/bw/001.png","","","interesting"
"","","","","","animation","366","2233690","0.0-366.0","1920x1080","","3848","94","img/117/5.5/1.5/bw/001.png","","","interesting"
"","","","","","animation","367","2240627","0.0-367.0","1920x1080","","6935.799999999814","88","img/117/5.5/2/bw/001.png","","","interesting"
"","","","","","animation","368","2248084","0.0-368.0","1920x1080","","7455.799999999814","35.98","img/314/3.5/1/bw/001.png","","","interesting"
"","","","","","animation","369","2251900","0.0-369.0","1920x1080","","3813.2000000001863","41.80","img/238/4/2/bw/001.png","","","interesting"
"","","","","","animation","370","2255797","0.0-370.0","1920x1080","","3895.5999999996275","7.94","img/314/2.5/2/bw/001.png","","","interesting"
"","","","","","animation","371","2259024","0.0-371.0","1920x1080","","3225.5","99","img/117/5.5/1/bw/001.png","","","interesting"
"","","","","","animation","372","2262756","0.0-372.0","1920x1080","","3730.8000000002794","6.75","img/314/4.5/1/bw/001.png","","","interesting"
"","","","","","animation","373","2265923","0.0-373.0","1920x1080","","3165.899999999907","8","img/238/2.5/1/bw/001.png","","","interesting"
"","","","","","animation","374","2269297","0.0-374.0","1920x1080","","3372.5","19.71","img/117/4/0.5/bw/001.png","","","interesting"
"","","","","","animation","375","2272574","0.0-375.0","1920x1080","","3274.899999999907","98","img/314/5.5/2/bw/001.png","","","interesting"
"","","","","","animation","376","2276957","0.0-376.0","1920x1080","","4381.399999999907","39.81","img/238/3.5/1/bw/001.png","","","interesting"
"","","","","","animation","377","2279774","0.0-377.0","1920x1080","","2815.399999999907","5.16","img/314/2.5/1/bw/001.png","","","interesting"
"","","","","","animation","378","2281815","0.0-378.0","1920x1080","","2039.2999999998137","3.57","img/238/2.5/1.5/bw/001.png","","","interesting"
"","","","","","animation","379","2283796","0.0-379.0","1920x1080","","1979.7999999998137","12.70","img/314/2.5/0.66667/bw/001.png","","","interesting"
"","","","","","animation","380","2287824","0.0-380.0","1920x1080","","4026.100000000093","21.56","img/238/3.5/0.66667/bw/001.png","","","interesting"
"","","","","","animation","381","2289596","0.0-381.0","1920x1080","","1770.5","25.40","img/117/3.5/0.66667/bw/001.png","","","interesting"
"","","","","","animation","382","2293409","0.0-382.0","1920x1080","","3811.600000000093","7","img/238/2.5/0.5/bw/001.png","","","interesting"
"","","","","","animation","383","2299907","0.0-383.0","1920x1080","","6497","38","img/117/4.5/0.66667/bw/001.png","","","interesting"
"","","","","","animation","384","2301968","0.0-384.0","1920x1080","","2059.399999999907","26.85","img/117/4.5/0.5/bw/001.png","","","interesting"
"","","","","","animation","385","2304258","0.0-385.0","1920x1080","","2289","2.12","img/117/2.5/0.66667/bw/001.png","","","interesting"
"","","","","","animation","386","2309466","0.0-386.0","1920x1080","","5206.899999999907","62.43","img/238/4/0.5/bw/001.png","","","interesting"
"","","","","","animation","387","2311669","0.0-387.0","1920x1080","","2200.5","89.81","img/117/5.5/0.5/bw/001.png","","","interesting"
"","","","","","animation","388","2316244","0.0-388.0","1920x1080","","4573.199999999721","85.71","img/117/4.5/2/bw/001.png","","","interesting"
"","","","","","animation","389","2320196","0.0-389.0","1920x1080","","3950.399999999907","99","img/314/5.5/1/bw/001.png","","","interesting"
"","","","","","html-button-response","390","2346512","0.0-390.0","1920x1080","","26313.80000000028","","<strong>Study Debriefing</strong><br><p class=""debrief""><strong>Background:</strong> The patterns you rated are called <em>fractals</em>. The term fractal describes a class of irregular curves or shapes for which any suitably chosen part is similar in shape to a given larger or smaller part when magnified or reduced to the same size. Fractal properties are found throughout the natural and manmade world. The series of animations you saw today displayed animated fractal patterns of a varying complexity.</p><p class=""debrief""><strong>Purpose of this study:</strong> We hope to better understand how the perception of static fractals differs from the perception of animated fractals, and how the speed of the animated patterns influences people&apos;s perception of them. Fractals allow us to study the perception of aesthetic properties (e.g. the perceived level of beauty in an image) without using recognizable content, which makes them an excellent tool for studying abstract aesthetic judgement.</p><p class=""debrief""><strong>Your part:</strong> Your participation has helped us to further understand how humans perceive these patterns across different levels of speed and complexity. This research with allow us to better understand how the visual system and brain process our ever-changing visual environments.<p class=""debrief""><strong>Feedback and Further information:</strong> If you have additional questions about this study, please feel free to ask the researcher, Nathan Gonzales-Hess at nhess @ uoregon.edu. If you have any questions concerning your rights as a research participant, please contact Research Compliance Services, 5237 University of Oregon, Eugene, OR 97403, 541-346-2510, or email researchCompliance @ uoregon.edu. You can also email the Human Subjects Coordinator for psychology and linguistics research at hscoord @ uoregon.edu. ","0","",""
"","","","","","html-button-response","391","2348855","0.0-391.0","1920x1080","","2339.100000000093","","Thank you for participating in this study. <br>Please click below to finish the experiment and submit your responses.<br><br>","0","",""
"true","","","","","fullscreen","392","2349858","0.0-392.0","1920x1080","11:20 4/11/2022","","","","","",""
