"success","timeout","failed_images","failed_audio","failed_video","trial_type","trial_index","time_elapsed","internal_node_id","resolution","timeStamp","rt","response","stimulus","button_pressed","value","descriptor"
"true","false","[]","[]","[]","preload","0","33447","0.0-0.0","1920x1080","","","","","","",""
"true","false","[]","[]","[]","preload","1","74556","0.0-1.0","1920x1080","","","","","","",""
"true","false","[]","[]","[]","preload","2","96230","0.0-2.0","1920x1080","","","","","","",""
"true","","","","","fullscreen","3","1646541","0.0-3.0","1920x1080","15:21 23/5/2022","","","","","",""
"","","","","","survey-html-form","4","1657255","0.0-4.0","1920x1080","","10712.300000000047","{""age"":""19"",""gender"":""Female""}","","","",""
"","","","","","html-button-response","5","1722975","0.0-5.0","1920x1080","","65718.80000000005","","<div class=""complex"">You are going to see a series of animations.<br><br></div><div class=""complex"">Move the slider to indicate how <strong style=""text-transform:capitalize"">COMPLEX</strong> you find each animation.<br><br></div><div class=""complex"">0 = Least Complex<br></div><div class=""complex"">1 = Most Complex<br><br></div><div class=""complex"">Remember to use the <strong><em>entire range</em></strong> of the slider to make your ratings.<br></div><div class=""complex"">Please <strong><em>take your time</em></strong> and carefully consider each rating you make.<br><br></div><div class=""complex"">The study has five sections and will take about 45 minutes to complete.<br><br></div>","0","",""
"","","","","","call-function","6","1722975","0.0-6.0","1920x1080","","","","","","",""
"","","","","","animation","7","1745791","0.0-7.0","1920x1080","","22812.899999999907","6.88","img/314/5.5/0.66667/bw/001.png","","","complex"
"","","","","","animation","8","1774423","0.0-8.0","1920x1080","","28630.40000000014","14.68","img/238/4/1/bw/001.png","","","complex"
"","","","","","animation","9","1780903","0.0-9.0","1920x1080","","6479.200000000186","45.63","img/238/2.5/1/bw/001.png","","","complex"
"","","","","","animation","10","1788590","0.0-10.0","1920x1080","","7687","50","img/314/2.5/0.66667/bw/001.png","","","complex"
"","","","","","animation","11","1795606","0.0-11.0","1920x1080","","7011.699999999953","39.42","img/314/3.5/2/bw/001.png","","","complex"
"","","","","","animation","12","1801022","0.0-12.0","1920x1080","","5414","37","img/117/3.5/2/bw/001.png","","","complex"
"","","","","","animation","13","1809902","0.0-13.0","1920x1080","","8879.199999999953","4.50","img/314/5.5/1.5/bw/001.png","","","complex"
"","","","","","animation","14","1814718","0.0-14.0","1920x1080","","4815.09999999986","12","img/117/5.5/0.66667/bw/001.png","","","complex"
"","","","","","animation","15","1825462","0.0-15.0","1920x1080","","10743","41.53","img/314/4/1/bw/001.png","","","complex"
"","","","","","animation","16","1830494","0.0-16.0","1920x1080","","5031.5","57.94","img/238/2.5/2/bw/001.png","","","complex"
"","","","","","animation","17","1838286","0.0-17.0","1920x1080","","7790.800000000047","62.04","img/117/3.5/1.5/bw/001.png","","","complex"
"","","","","","animation","18","1850782","0.0-18.0","1920x1080","","12495.59999999986","70.77","img/314/4/0.66667/bw/001.png","","","complex"
"","","","","","animation","19","1856438","0.0-19.0","1920x1080","","5655.300000000047","84.13","img/314/2.5/2/bw/001.png","","","complex"
"","","","","","animation","20","1863174","0.0-20.0","1920x1080","","6735","8.60","img/117/5.5/2/bw/001.png","","","complex"
"","","","","","animation","21","1873806","0.0-21.0","1920x1080","","10631.300000000047","64.81","img/238/4/2/bw/001.png","","","complex"
"","","","","","animation","22","1878054","0.0-22.0","1920x1080","","4247.5","75.13","img/117/3.5/1/bw/001.png","","","complex"
"","","","","","animation","23","1882806","0.0-23.0","1920x1080","","4751","1.32","img/238/5.5/1.5/bw/001.png","","","complex"
"","","","","","animation","24","1886646","0.0-24.0","1920x1080","","3838.6999999999534","50","img/314/3.5/1/bw/001.png","","","complex"
"","","","","","animation","25","1889406","0.0-25.0","1920x1080","","2759.600000000093","67.59","img/238/2.5/1.5/bw/001.png","","","complex"
"","","","","","animation","26","1893878","0.0-26.0","1920x1080","","4471.5","96","img/117/2.5/0.5/bw/001.png","","","complex"
"","","","","","animation","27","1905287","0.0-27.0","1920x1080","","11407.09999999986","62","img/117/4.5/0.66667/bw/001.png","","","complex"
"","","","","","animation","28","1907991","0.0-28.0","1920x1080","","2703.0999999998603","48.41","img/314/4.5/2/bw/001.png","","","complex"
"","","","","","animation","29","1911774","0.0-29.0","1920x1080","","3782.5","63.36","img/314/3.5/0.5/bw/001.png","","","complex"
"","","","","","animation","30","1917391","0.0-30.0","1920x1080","","5615.199999999953","73","img/238/3.5/1/bw/001.png","","","complex"
"","","","","","animation","31","1922246","0.0-31.0","1920x1080","","4854.600000000093","72.49","img/314/3.5/1.5/bw/001.png","","","complex"
"","","","","","animation","32","1927398","0.0-32.0","1920x1080","","5151.199999999953","91.27","img/314/2.5/0.5/bw/001.png","","","complex"
"","","","","","animation","33","1965447","0.0-33.0","1920x1080","","38047.19999999995","47.35","img/238/4/0.66667/bw/001.png","","","complex"
"","","","","","animation","34","1969046","0.0-34.0","1920x1080","","3599.100000000093","3.44","img/238/5.5/0.66667/bw/001.png","","","complex"
"","","","","","animation","35","1974263","0.0-35.0","1920x1080","","5215.299999999814","37.70","img/117/4.5/0.5/bw/001.png","","","complex"
"","","","","","animation","36","1980335","0.0-36.0","1920x1080","","6071.100000000093","43.65","img/117/2.5/1.5/bw/001.png","","","complex"
"","","","","","animation","37","1988119","0.0-37.0","1920x1080","","7783.399999999907","81","img/238/4.5/1.5/bw/001.png","","","complex"
"","","","","","animation","38","1993167","0.0-38.0","1920x1080","","5047","81.75","img/117/4.5/1/bw/001.png","","","complex"
"","","","","","animation","39","2007544","0.0-39.0","1920x1080","","14376.90000000014","6.61","img/314/5.5/0.5/bw/001.png","","","complex"
"","","","","","animation","40","2011312","0.0-40.0","1920x1080","","3767.1999999999534","6.48","img/117/5.5/1.5/bw/001.png","","","complex"
"","","","","","animation","41","2018519","0.0-41.0","1920x1080","","7205.800000000047","55.03","img/238/4/0.5/bw/001.png","","","complex"
"","","","","","animation","42","2021183","0.0-42.0","1920x1080","","2662.899999999907","56.75","img/117/4/1/bw/001.png","","","complex"
"","","","","","animation","43","2026230","0.0-43.0","1920x1080","","5047","43.52","img/314/4.5/0.5/bw/001.png","","","complex"
"","","","","","animation","44","2030806","0.0-44.0","1920x1080","","4575.5","41.93","img/238/4.5/0.66667/bw/001.png","","","complex"
"","","","","","animation","45","2033758","0.0-45.0","1920x1080","","2951.2999999998137","60","img/314/3.5/0.66667/bw/001.png","","","complex"
"","","","","","animation","46","2038744","0.0-46.0","1920x1080","","4985.100000000093","44.84","img/314/2.5/1/bw/001.png","","","complex"
"","","","","","animation","47","2044198","0.0-47.0","1920x1080","","5452","45.11","img/117/2.5/2/bw/001.png","","","complex"
"","","","","","animation","48","2049279","0.0-48.0","1920x1080","","5079.600000000093","89.55","img/238/2.5/0.5/bw/001.png","","","complex"
"","","","","","animation","49","2061974","0.0-49.0","1920x1080","","12694.5","33.33","img/314/4.5/1.5/bw/001.png","","","complex"
"","","","","","animation","50","2065254","0.0-50.0","1920x1080","","3278.7999999998137","27.12","img/238/4/1.5/bw/001.png","","","complex"
"","","","","","animation","51","2071286","0.0-51.0","1920x1080","","6030.799999999814","20.37","img/314/4/0.5/bw/001.png","","","complex"
"","","","","","animation","52","2091056","0.0-52.0","1920x1080","","19766.899999999907","10","img/238/4.5/2/bw/001.png","","","complex"
"","","","","","animation","53","2093664","0.0-53.0","1920x1080","","2607.7999999998137","35.05","img/238/3.5/0.5/bw/001.png","","","complex"
"","","","","","animation","54","2097656","0.0-54.0","1920x1080","","3991.100000000093","5.42","img/117/5.5/1/bw/001.png","","","complex"
"","","","","","animation","55","2100808","0.0-55.0","1920x1080","","3150.7000000001863","12.96","img/238/4.5/1/bw/001.png","","","complex"
"","","","","","animation","56","2107568","0.0-56.0","1920x1080","","6758.899999999907","82.80","img/117/3.5/0.5/bw/001.png","","","complex"
"","","","","","animation","57","2117392","0.0-57.0","1920x1080","","9823.399999999907","62.30","img/117/5.5/0.5/bw/001.png","","","complex"
"","","","","","animation","58","2120947","0.0-58.0","1920x1080","","3553.600000000093","30.29","img/238/3.5/2/bw/001.png","","","complex"
"","","","","","animation","59","2126097","0.0-59.0","1920x1080","","5149","56.48","img/238/3.5/0.66667/bw/001.png","","","complex"
"","","","","","animation","60","2129056","0.0-60.0","1920x1080","","2957.7999999998137","51.06","img/238/3.5/1.5/bw/001.png","","","complex"
"","","","","","animation","61","2133464","0.0-61.0","1920x1080","","4407.200000000186","19.18","img/314/4.5/1/bw/001.png","","","complex"
"","","","","","animation","62","2137536","0.0-62.0","1920x1080","","4070.5","64.42","img/314/2.5/1.5/bw/001.png","","","complex"
"","","","","","animation","63","2140584","0.0-63.0","1920x1080","","3047","69.18","img/117/4/0.66667/bw/001.png","","","complex"
"","","","","","animation","64","2145333","0.0-64.0","1920x1080","","4745.399999999907","78.04","img/117/2.5/1/bw/001.png","","","complex"
"","","","","","animation","65","2149587","0.0-65.0","1920x1080","","4252.699999999721","51.19","img/117/4.5/1.5/bw/001.png","","","complex"
"","","","","","animation","66","2153819","0.0-66.0","1920x1080","","4231","92.59","img/117/2.5/0.66667/bw/001.png","","","complex"
"","","","","","animation","67","2157403","0.0-67.0","1920x1080","","3583.100000000093","3.97","img/238/5.5/1/bw/001.png","","","complex"
"","","","","","animation","68","2167123","0.0-68.0","1920x1080","","9719.19999999972","71.69","img/238/5.5/0.5/bw/001.png","","","complex"
"","","","","","animation","69","2170950","0.0-69.0","1920x1080","","3826.100000000093","41.40","img/117/3.5/0.66667/bw/001.png","","","complex"
"","","","","","animation","70","2177667","0.0-70.0","1920x1080","","6716.100000000093","88.76","img/117/4.5/2/bw/001.png","","","complex"
"","","","","","animation","71","2180691","0.0-71.0","1920x1080","","3022.5","53.31","img/117/4/2/bw/001.png","","","complex"
"","","","","","animation","72","2183634","0.0-72.0","1920x1080","","2943","43.52","img/238/2.5/0.66667/bw/001.png","","","complex"
"","","","","","animation","73","2191717","0.0-73.0","1920x1080","","8081.600000000093","16.01","img/314/5.5/2/bw/001.png","","","complex"
"","","","","","animation","74","2196884","0.0-74.0","1920x1080","","5165.5999999996275","6.88","img/314/4/1.5/bw/001.png","","","complex"
"","","","","","animation","75","2204503","0.0-75.0","1920x1080","","7615","58.73","img/117/4/0.5/bw/001.png","","","complex"
"","","","","","animation","76","2208582","0.0-76.0","1920x1080","","4077.7000000001863","0.93","img/238/5.5/2/bw/001.png","","","complex"
"","","","","","animation","77","2217061","0.0-77.0","1920x1080","","8478.799999999814","64.68","img/314/4/2/bw/001.png","","","complex"
"","","","","","animation","78","2226030","0.0-78.0","1920x1080","","8965.799999999814","14.42","img/238/4.5/0.5/bw/001.png","","","complex"
"","","","","","animation","79","2231789","0.0-79.0","1920x1080","","5758.700000000186","42.20","img/314/4.5/0.66667/bw/001.png","","","complex"
"","","","","","animation","80","2238046","0.0-80.0","1920x1080","","6255.399999999907","32.01","img/314/5.5/1/bw/001.png","","","complex"
"","","","","","animation","81","2240253","0.0-81.0","1920x1080","","2206.2999999998137","29.63","img/117/4/1.5/bw/001.png","","","complex"
"","","","","","html-button-response","82","2258982","0.0-82.0","1920x1080","","18727.700000000186","","<div class=""intro"">You are about to view a new series of animations.<br><br></div><div class=""intro"">You will evaluate them based on a different descriptor.<br><br></div><div class=""intro"">Move the slider to indicate how <strong style=""text-transform:capitalize"">RELAXING</strong> you find each animation.<br><br></div><div class=""intro"">0 = Least Relaxing<br></div><div class=""intro"">1 = Most Relaxing<br><br></div><div class=""intro"">Remember to use the <strong><em>entire range</em></strong> of the slider to make your ratings.<br></div><div class=""intro"">Please <strong><em>take your time</em></strong> and carefully consider each rating you make.<br><br></div>","0","",""
"","","","","","call-function","83","2258983","0.0-83.0","1920x1080","","","","","","",""
"","","","","","animation","84","2270631","0.0-84.0","1920x1080","","11646.5","6","img/117/4.5/1/bw/001.png","","","relaxing"
"","","","","","animation","85","2280663","0.0-85.0","1920x1080","","10030.299999999814","1","img/238/2.5/1/bw/001.png","","","relaxing"
"","","","","","animation","86","2285288","0.0-86.0","1920x1080","","4623.899999999907","2.91","img/314/3.5/2/bw/001.png","","","relaxing"
"","","","","","animation","87","2294303","0.0-87.0","1920x1080","","9014.5","2.38","img/117/3.5/1.5/bw/001.png","","","relaxing"
"","","","","","animation","88","2302031","0.0-88.0","1920x1080","","7726.799999999814","2.78","img/314/4.5/0.5/bw/001.png","","","relaxing"
"","","","","","animation","89","2311775","0.0-89.0","1920x1080","","9742.899999999907","0","img/238/4.5/0.66667/bw/001.png","","","relaxing"
"","","","","","animation","90","2316120","0.0-90.0","1920x1080","","4340.5","3.57","img/117/2.5/2/bw/001.png","","","relaxing"
"","","","","","animation","91","2322098","0.0-91.0","1920x1080","","5973.899999999907","8.73","img/117/4/2/bw/001.png","","","relaxing"
"","","","","","animation","92","2330123","0.0-92.0","1920x1080","","8023.5","36.11","img/314/4.5/1.5/bw/001.png","","","relaxing"
"","","","","","animation","93","2337042","0.0-93.0","1920x1080","","6918.100000000093","79","img/238/5.5/0.66667/bw/001.png","","","relaxing"
"","","","","","animation","94","2341898","0.0-94.0","1920x1080","","4855.199999999721","16.53","img/117/4/1/bw/001.png","","","relaxing"
"","","","","","animation","95","2345907","0.0-95.0","1920x1080","","4007.5","10.32","img/238/3.5/1.5/bw/001.png","","","relaxing"
"","","","","","animation","96","2348690","0.0-96.0","1920x1080","","2782.7000000001863","8","img/238/4.5/0.5/bw/001.png","","","relaxing"
"","","","","","animation","97","2351426","0.0-97.0","1920x1080","","2734.600000000093","2","img/314/2.5/0.66667/bw/001.png","","","relaxing"
"","","","","","animation","98","2357874","0.0-98.0","1920x1080","","6447.200000000186","96","img/238/5.5/1/bw/001.png","","","relaxing"
"","","","","","animation","99","2361626","0.0-99.0","1920x1080","","3750.5","3","img/314/3.5/0.5/bw/001.png","","","relaxing"
"","","","","","animation","100","2370174","0.0-100.0","1920x1080","","8546.700000000186","99","img/314/5.5/2/bw/001.png","","","relaxing"
"","","","","","animation","101","2375757","0.0-101.0","1920x1080","","5582","4.37","img/314/3.5/1/bw/001.png","","","relaxing"
"","","","","","animation","102","2384190","0.0-102.0","1920x1080","","8432.69999999972","68.52","img/117/5.5/0.66667/bw/001.png","","","relaxing"
"","","","","","animation","103","2387409","0.0-103.0","1920x1080","","3218.399999999907","29.89","img/238/4/1.5/bw/001.png","","","relaxing"
"","","","","","animation","104","2391969","0.0-104.0","1920x1080","","4558.800000000279","26","img/117/3.5/1/bw/001.png","","","relaxing"
"","","","","","animation","105","2396745","0.0-105.0","1920x1080","","4774.699999999721","13.10","img/314/3.5/0.66667/bw/001.png","","","relaxing"
"","","","","","animation","106","2401698","0.0-106.0","1920x1080","","4951.200000000186","11.24","img/117/2.5/1.5/bw/001.png","","","relaxing"
"","","","","","animation","107","2412202","0.0-107.0","1920x1080","","10502.80000000028","91.93","img/117/5.5/1.5/bw/001.png","","","relaxing"
"","","","","","animation","108","2417930","0.0-108.0","1920x1080","","5726.899999999907","0","img/117/3.5/0.5/bw/001.png","","","relaxing"
"","","","","","animation","109","2421714","0.0-109.0","1920x1080","","3782.899999999907","51.32","img/314/5.5/0.66667/bw/001.png","","","relaxing"
"","","","","","animation","110","2425590","0.0-110.0","1920x1080","","3875.1999999997206","82.80","img/238/5.5/2/bw/001.png","","","relaxing"
"","","","","","animation","111","2429306","0.0-111.0","1920x1080","","3714.5","0.13","img/238/2.5/0.5/bw/001.png","","","relaxing"
"","","","","","animation","112","2432202","0.0-112.0","1920x1080","","2895.100000000093","0","img/117/2.5/0.5/bw/001.png","","","relaxing"
"","","","","","animation","113","2435940","0.0-113.0","1920x1080","","3737.100000000093","90.08","img/314/5.5/1/bw/001.png","","","relaxing"
"","","","","","animation","114","2444298","0.0-114.0","1920x1080","","8356.799999999814","24","img/117/4.5/2/bw/001.png","","","relaxing"
"","","","","","animation","115","2448914","0.0-115.0","1920x1080","","4614.899999999907","1.98","img/117/2.5/0.66667/bw/001.png","","","relaxing"
"","","","","","animation","116","2459066","0.0-116.0","1920x1080","","10150.80000000028","22.09","img/238/4.5/2/bw/001.png","","","relaxing"
"","","","","","animation","117","2464698","0.0-117.0","1920x1080","","5631.600000000093","5","img/117/3.5/2/bw/001.png","","","relaxing"
"","","","","","animation","118","2468042","0.0-118.0","1920x1080","","3342.5999999996275","4.89","img/117/4/1.5/bw/001.png","","","relaxing"
"","","","","","animation","119","2471218","0.0-119.0","1920x1080","","3175.100000000093","3.57","img/314/4/1/bw/001.png","","","relaxing"
"","","","","","animation","120","2476866","0.0-120.0","1920x1080","","5646.5","97","img/314/5.5/0.5/bw/001.png","","","relaxing"
"","","","","","animation","121","2480562","0.0-121.0","1920x1080","","3694.1999999997206","0.93","img/314/2.5/2/bw/001.png","","","relaxing"
"","","","","","animation","122","2483757","0.0-122.0","1920x1080","","3193.9000000003725","3.04","img/117/2.5/1/bw/001.png","","","relaxing"
"","","","","","animation","123","2488546","0.0-123.0","1920x1080","","4788.5","4.37","img/117/4.5/0.5/bw/001.png","","","relaxing"
"","","","","","animation","124","2491162","0.0-124.0","1920x1080","","2615","5.03","img/238/4/1/bw/001.png","","","relaxing"
"","","","","","animation","125","2497730","0.0-125.0","1920x1080","","6566.799999999814","8","img/238/4.5/1/bw/001.png","","","relaxing"
"","","","","","animation","126","2501226","0.0-126.0","1920x1080","","3494.6999999997206","6.61","img/238/3.5/1/bw/001.png","","","relaxing"
"","","","","","animation","127","2504562","0.0-127.0","1920x1080","","3335.399999999907","3.70","img/238/2.5/2/bw/001.png","","","relaxing"
"","","","","","animation","128","2514042","0.0-128.0","1920x1080","","9478.600000000093","96","img/238/5.5/0.5/bw/001.png","","","relaxing"
"","","","","","animation","129","2518408","0.0-129.0","1920x1080","","4365.199999999721","11.51","img/117/4/0.66667/bw/001.png","","","relaxing"
"","","","","","animation","130","2521723","0.0-130.0","1920x1080","","3313.7999999998137","6.35","img/314/3.5/1.5/bw/001.png","","","relaxing"
"","","","","","animation","131","2527940","0.0-131.0","1920x1080","","6216.199999999721","20.37","img/117/4.5/1.5/bw/001.png","","","relaxing"
"","","","","","animation","132","2539974","0.0-132.0","1920x1080","","12032.30000000028","91.14","img/238/5.5/1.5/bw/001.png","","","relaxing"
"","","","","","animation","133","2543442","0.0-133.0","1920x1080","","3465.5999999996275","8","img/238/4/0.66667/bw/001.png","","","relaxing"
"","","","","","animation","134","2552242","0.0-134.0","1920x1080","","8798.799999999814","87","img/314/5.5/1.5/bw/001.png","","","relaxing"
"","","","","","animation","135","2556210","0.0-135.0","1920x1080","","3967.399999999907","7","img/314/4/0.5/bw/001.png","","","relaxing"
"","","","","","animation","136","2560410","0.0-136.0","1920x1080","","4199.299999999814","3.70","img/238/3.5/0.5/bw/001.png","","","relaxing"
"","","","","","animation","137","2563514","0.0-137.0","1920x1080","","3102.4000000003725","3.97","img/238/2.5/0.66667/bw/001.png","","","relaxing"
"","","","","","animation","138","2566626","0.0-138.0","1920x1080","","3110.399999999907","4.23","img/314/4.5/2/bw/001.png","","","relaxing"
"","","","","","animation","139","2569707","0.0-139.0","1920x1080","","3079.9000000003725","3.84","img/238/4.5/1.5/bw/001.png","","","relaxing"
"","","","","","animation","140","2572082","0.0-140.0","1920x1080","","2374.5","3.31","img/117/3.5/0.66667/bw/001.png","","","relaxing"
"","","","","","animation","141","2576946","0.0-141.0","1920x1080","","4863","1.72","img/314/2.5/1.5/bw/001.png","","","relaxing"
"","","","","","animation","142","2580341","0.0-142.0","1920x1080","","3393.6999999997206","1","img/314/4/0.66667/bw/001.png","","","relaxing"
"","","","","","animation","143","2584658","0.0-143.0","1920x1080","","4315.399999999907","89.42","img/117/5.5/2/bw/001.png","","","relaxing"
"","","","","","animation","144","2589558","0.0-144.0","1920x1080","","4899.4000000003725","25.40","img/314/4.5/0.66667/bw/001.png","","","relaxing"
"","","","","","animation","145","2592794","0.0-145.0","1920x1080","","3234.5","21.69","img/238/4/2/bw/001.png","","","relaxing"
"","","","","","animation","146","2596714","0.0-146.0","1920x1080","","3918.7000000001863","15","img/314/2.5/0.5/bw/001.png","","","relaxing"
"","","","","","animation","147","2606426","0.0-147.0","1920x1080","","9710.599999999627","11.90","img/117/4.5/0.66667/bw/001.png","","","relaxing"
"","","","","","animation","148","2609490","0.0-148.0","1920x1080","","3063.100000000093","6.75","img/238/3.5/0.66667/bw/001.png","","","relaxing"
"","","","","","animation","149","2612058","0.0-149.0","1920x1080","","2566.7999999998137","4.37","img/314/2.5/1/bw/001.png","","","relaxing"
"","","","","","animation","150","2617010","0.0-150.0","1920x1080","","4951.199999999721","0.40","img/238/4/0.5/bw/001.png","","","relaxing"
"","","","","","animation","151","2620298","0.0-151.0","1920x1080","","3286.9000000003725","5.29","img/314/4/1.5/bw/001.png","","","relaxing"
"","","","","","animation","152","2626658","0.0-152.0","1920x1080","","6358.5","5.95","img/238/3.5/2/bw/001.png","","","relaxing"
"","","","","","animation","153","2629957","0.0-153.0","1920x1080","","3297.899999999907","1.32","img/238/2.5/1.5/bw/001.png","","","relaxing"
"","","","","","animation","154","2634347","0.0-154.0","1920x1080","","4388.300000000279","0.40","img/314/4.5/1/bw/001.png","","","relaxing"
"","","","","","animation","155","2637259","0.0-155.0","1920x1080","","2911.0999999996275","45.24","img/117/5.5/0.5/bw/001.png","","","relaxing"
"","","","","","animation","156","2640699","0.0-156.0","1920x1080","","3438.399999999907","7.67","img/117/4/0.5/bw/001.png","","","relaxing"
"","","","","","animation","157","2645410","0.0-157.0","1920x1080","","4710.299999999814","7.54","img/314/4/2/bw/001.png","","","relaxing"
"","","","","","animation","158","2650026","0.0-158.0","1920x1080","","4614.799999999814","56.08","img/117/5.5/1/bw/001.png","","","relaxing"
"","","","","","html-button-response","159","2740963","0.0-159.0","1920x1080","","90935.59999999963","","<div class=""intro"">You are about to view a new series of animations.<br><br></div><div class=""intro"">You will evaluate them based on a different descriptor.<br><br></div><div class=""intro"">Move the slider to indicate how <strong style=""text-transform:capitalize"">APPEALING</strong> you find each animation.<br><br></div><div class=""intro"">0 = Least Appealing<br></div><div class=""intro"">1 = Most Appealing<br><br></div><div class=""intro"">Remember to use the <strong><em>entire range</em></strong> of the slider to make your ratings.<br></div><div class=""intro"">Please <strong><em>take your time</em></strong> and carefully consider each rating you make.<br><br></div>","0","",""
"","","","","","call-function","160","2740967","0.0-160.0","1920x1080","","","","","","",""
"","","","","","animation","161","2746042","0.0-161.0","1920x1080","","5074","14.55","img/314/4/1/bw/001.png","","","appealing"
"","","","","","animation","162","2750506","0.0-162.0","1920x1080","","4463.100000000093","16.27","img/238/4/1/bw/001.png","","","appealing"
"","","","","","animation","163","2755194","0.0-163.0","1920x1080","","4686.600000000093","34","img/314/4.5/1.5/bw/001.png","","","appealing"
"","","","","","animation","164","2757858","0.0-164.0","1920x1080","","2662.7000000001863","69.05","img/117/5.5/1.5/bw/001.png","","","appealing"
"","","","","","animation","165","2761266","0.0-165.0","1920x1080","","3407.5","17.20","img/238/4/0.5/bw/001.png","","","appealing"
"","","","","","animation","166","2767378","0.0-166.0","1920x1080","","6110.399999999907","35.98","img/238/4.5/0.5/bw/001.png","","","appealing"
"","","","","","animation","167","2774978","0.0-167.0","1920x1080","","7598.799999999814","77.78","img/117/2.5/2/bw/001.png","","","appealing"
"","","","","","animation","168","2778107","0.0-168.0","1920x1080","","3127.399999999907","11.24","img/117/4/1/bw/001.png","","","appealing"
"","","","","","animation","169","2783258","0.0-169.0","1920x1080","","5150","37","img/238/4.5/0.66667/bw/001.png","","","appealing"
"","","","","","animation","170","2786423","0.0-170.0","1920x1080","","3164","71.83","img/238/2.5/1.5/bw/001.png","","","appealing"
"","","","","","animation","171","2792434","0.0-171.0","1920x1080","","6010.100000000093","14.95","img/314/4/2/bw/001.png","","","appealing"
"","","","","","animation","172","2803690","0.0-172.0","1920x1080","","11253.700000000186","8.47","img/238/2.5/0.5/bw/001.png","","","appealing"
"","","","","","animation","173","2808026","0.0-173.0","1920x1080","","4333.800000000279","94","img/238/5.5/1.5/bw/001.png","","","appealing"
"","","","","","animation","174","2812850","0.0-174.0","1920x1080","","4821.600000000093","16.80","img/117/4.5/1.5/bw/001.png","","","appealing"
"","","","","","animation","175","2818474","0.0-175.0","1920x1080","","5622.5","27.38","img/117/4/2/bw/001.png","","","appealing"
"","","","","","animation","176","2822508","0.0-176.0","1920x1080","","4031.8000000002794","90.34","img/238/5.5/0.5/bw/001.png","","","appealing"
"","","","","","animation","177","2827440","0.0-177.0","1920x1080","","4931.5","27.51","img/238/3.5/1.5/bw/001.png","","","appealing"
"","","","","","animation","178","2830331","0.0-178.0","1920x1080","","2889.2000000001863","23.81","img/238/4/0.66667/bw/001.png","","","appealing"
"","","","","","animation","179","2833731","0.0-179.0","1920x1080","","3399.2000000001863","22.09","img/238/3.5/2/bw/001.png","","","appealing"
"","","","","","animation","180","2837758","0.0-180.0","1920x1080","","4025.7999999998137","23","img/117/4.5/0.5/bw/001.png","","","appealing"
"","","","","","animation","181","2841308","0.0-181.0","1920x1080","","3548.100000000093","21.03","img/117/3.5/0.5/bw/001.png","","","appealing"
"","","","","","animation","182","2843882","0.0-182.0","1920x1080","","2573.399999999907","70.24","img/314/5.5/2/bw/001.png","","","appealing"
"","","","","","animation","183","2847683","0.0-183.0","1920x1080","","3799.100000000093","35.45","img/314/2.5/0.5/bw/001.png","","","appealing"
"","","","","","animation","184","2851292","0.0-184.0","1920x1080","","3607.6999999997206","30.29","img/314/4.5/0.66667/bw/001.png","","","appealing"
"","","","","","animation","185","2855308","0.0-185.0","1920x1080","","4014.8000000002794","48.15","img/117/3.5/1.5/bw/001.png","","","appealing"
"","","","","","animation","186","2857775","0.0-186.0","1920x1080","","2466.2999999998137","26.46","img/117/2.5/1/bw/001.png","","","appealing"
"","","","","","animation","187","2864791","0.0-187.0","1920x1080","","7014.800000000279","58.20","img/314/4.5/2/bw/001.png","","","appealing"
"","","","","","animation","188","2866946","0.0-188.0","1920x1080","","2154.899999999907","23.02","img/238/2.5/1/bw/001.png","","","appealing"
"","","","","","animation","189","2875074","0.0-189.0","1920x1080","","8126.5","62.57","img/117/3.5/2/bw/001.png","","","appealing"
"","","","","","animation","190","2880124","0.0-190.0","1920x1080","","5047.800000000279","60","img/117/3.5/1/bw/001.png","","","appealing"
"","","","","","animation","191","2883346","0.0-191.0","1920x1080","","3221","30.82","img/238/3.5/0.66667/bw/001.png","","","appealing"
"","","","","","animation","192","2886298","0.0-192.0","1920x1080","","2950.7999999998137","6.75","img/238/2.5/2/bw/001.png","","","appealing"
"","","","","","animation","193","2889026","0.0-193.0","1920x1080","","2726.899999999907","93.39","img/117/5.5/0.66667/bw/001.png","","","appealing"
"","","","","","animation","194","2892884","0.0-194.0","1920x1080","","3857.2999999998137","13.49","img/314/2.5/0.66667/bw/001.png","","","appealing"
"","","","","","animation","195","2896194","0.0-195.0","1920x1080","","3308.7999999998137","90.61","img/314/5.5/0.66667/bw/001.png","","","appealing"
"","","","","","animation","196","2901210","0.0-196.0","1920x1080","","5014.100000000093","22.88","img/238/2.5/0.66667/bw/001.png","","","appealing"
"","","","","","animation","197","2903562","0.0-197.0","1920x1080","","2351.2999999998137","23.41","img/314/2.5/1.5/bw/001.png","","","appealing"
"","","","","","animation","198","2911651","0.0-198.0","1920x1080","","8086.700000000186","52","img/238/4.5/1.5/bw/001.png","","","appealing"
"","","","","","animation","199","2915458","0.0-199.0","1920x1080","","3806.2000000001863","87.43","img/117/5.5/2/bw/001.png","","","appealing"
"","","","","","animation","200","2923274","0.0-200.0","1920x1080","","7814.4000000003725","28.31","img/238/3.5/1/bw/001.png","","","appealing"
"","","","","","animation","201","2933826","0.0-201.0","1920x1080","","10550.5","35","img/117/4.5/0.66667/bw/001.png","","","appealing"
"","","","","","animation","202","2940810","0.0-202.0","1920x1080","","6982.700000000186","84.52","img/238/4.5/2/bw/001.png","","","appealing"
"","","","","","animation","203","2944498","0.0-203.0","1920x1080","","3685.899999999907","12.57","img/314/2.5/1/bw/001.png","","","appealing"
"","","","","","animation","204","2948391","0.0-204.0","1920x1080","","3891.100000000093","31.61","img/314/4.5/0.5/bw/001.png","","","appealing"
"","","","","","animation","205","2950924","0.0-205.0","1920x1080","","2532.4000000003725","14.68","img/117/2.5/1.5/bw/001.png","","","appealing"
"","","","","","animation","206","2953210","0.0-206.0","1920x1080","","2284.9000000003725","16.93","img/314/4/1.5/bw/001.png","","","appealing"
"","","","","","animation","207","2956958","0.0-207.0","1920x1080","","3746.2000000001863","89.42","img/238/5.5/2/bw/001.png","","","appealing"
"","","","","","animation","208","2962763","0.0-208.0","1920x1080","","5803.700000000186","28","img/238/4/2/bw/001.png","","","appealing"
"","","","","","animation","209","2967147","0.0-209.0","1920x1080","","4382.700000000186","30.42","img/117/4.5/2/bw/001.png","","","appealing"
"","","","","","animation","210","2969915","0.0-210.0","1920x1080","","2766.899999999907","25.66","img/117/4/0.66667/bw/001.png","","","appealing"
"","","","","","animation","211","2972408","0.0-211.0","1920x1080","","2491.9000000003725","26.06","img/314/3.5/0.5/bw/001.png","","","appealing"
"","","","","","animation","212","2980841","0.0-212.0","1920x1080","","8432","96","img/238/5.5/1/bw/001.png","","","appealing"
"","","","","","animation","213","2986626","0.0-213.0","1920x1080","","5784.199999999721","27.25","img/117/4/0.5/bw/001.png","","","appealing"
"","","","","","animation","214","2989508","0.0-214.0","1920x1080","","2881.0999999996275","21.69","img/314/3.5/0.66667/bw/001.png","","","appealing"
"","","","","","animation","215","2991758","0.0-215.0","1920x1080","","2248.4000000003725","20.11","img/314/3.5/1.5/bw/001.png","","","appealing"
"","","","","","animation","216","2994091","0.0-216.0","1920x1080","","2332.4000000003725","18.52","img/314/4/0.66667/bw/001.png","","","appealing"
"","","","","","animation","217","2997810","0.0-217.0","1920x1080","","3717.8000000002794","17.59","img/314/3.5/2/bw/001.png","","","appealing"
"","","","","","animation","218","3002083","0.0-218.0","1920x1080","","4271.200000000186","91.80","img/314/5.5/1.5/bw/001.png","","","appealing"
"","","","","","animation","219","3008591","0.0-219.0","1920x1080","","6507.300000000279","92.99","img/314/5.5/1/bw/001.png","","","appealing"
"","","","","","animation","220","3013741","0.0-220.0","1920x1080","","5148.799999999814","92.20","img/238/4.5/1/bw/001.png","","","appealing"
"","","","","","animation","221","3018195","0.0-221.0","1920x1080","","4451.299999999814","88.49","img/314/5.5/0.5/bw/001.png","","","appealing"
"","","","","","animation","222","3024464","0.0-222.0","1920x1080","","6268.5","35.85","img/238/4/1.5/bw/001.png","","","appealing"
"","","","","","animation","223","3042107","0.0-223.0","1920x1080","","17641.600000000093","92.59","img/117/5.5/1/bw/001.png","","","appealing"
"","","","","","animation","224","3047541","0.0-224.0","1920x1080","","5428.700000000186","56.61","img/117/4/1.5/bw/001.png","","","appealing"
"","","","","","animation","225","3051262","0.0-225.0","1920x1080","","3719.7000000001863","43.92","img/314/4.5/1/bw/001.png","","","appealing"
"","","","","","animation","226","3053340","0.0-226.0","1920x1080","","2076.399999999907","16.93","img/117/3.5/0.66667/bw/001.png","","","appealing"
"","","","","","animation","227","3057607","0.0-227.0","1920x1080","","4266.100000000093","62.70","img/314/2.5/2/bw/001.png","","","appealing"
"","","","","","animation","228","3061282","0.0-228.0","1920x1080","","3673.5","13.76","img/117/2.5/0.66667/bw/001.png","","","appealing"
"","","","","","animation","229","3066858","0.0-229.0","1920x1080","","5574.200000000186","98","img/238/5.5/0.66667/bw/001.png","","","appealing"
"","","","","","animation","230","3070778","0.0-230.0","1920x1080","","3919.100000000093","28.04","img/238/3.5/0.5/bw/001.png","","","appealing"
"","","","","","animation","231","3076730","0.0-231.0","1920x1080","","5950.700000000186","22.22","img/117/4.5/1/bw/001.png","","","appealing"
"","","","","","animation","232","3080608","0.0-232.0","1920x1080","","3876.8000000002794","18.25","img/314/4/0.5/bw/001.png","","","appealing"
"","","","","","animation","233","3083346","0.0-233.0","1920x1080","","2736.5","8.33","img/117/2.5/0.5/bw/001.png","","","appealing"
"","","","","","animation","234","3092791","0.0-234.0","1920x1080","","9443.299999999814","90.34","img/117/5.5/0.5/bw/001.png","","","appealing"
"","","","","","animation","235","3098174","0.0-235.0","1920x1080","","5379.5","16","img/314/3.5/1/bw/001.png","","","appealing"
"","","","","","html-button-response","236","3152813","0.0-236.0","1920x1080","","54637.80000000028","","<div class=""intro"">You are about to view a new series of animations.<br><br></div><div class=""intro"">You will evaluate them based on a different descriptor.<br><br></div><div class=""intro"">Move the slider to indicate how <strong style=""text-transform:capitalize"">INTERESTING</strong> you find each animation.<br><br></div><div class=""intro"">0 = Least Interesting<br></div><div class=""intro"">1 = Most Interesting<br><br></div><div class=""intro"">Remember to use the <strong><em>entire range</em></strong> of the slider to make your ratings.<br></div><div class=""intro"">Please <strong><em>take your time</em></strong> and carefully consider each rating you make.<br><br></div>","0","",""
"","","","","","call-function","237","3152818","0.0-237.0","1920x1080","","","","","","",""
"","","","","","animation","238","3156590","0.0-238.0","1920x1080","","3770.399999999907","69.84","img/314/4.5/1.5/bw/001.png","","","interesting"
"","","","","","animation","239","3163054","0.0-239.0","1920x1080","","6465.600000000093","81.08","img/238/5.5/1/bw/001.png","","","interesting"
"","","","","","animation","240","3166143","0.0-240.0","1920x1080","","3087.399999999907","89.15","img/314/2.5/1/bw/001.png","","","interesting"
"","","","","","animation","241","3169504","0.0-241.0","1920x1080","","3359.8000000002794","65.74","img/238/3.5/1.5/bw/001.png","","","interesting"
"","","","","","animation","242","3172311","0.0-242.0","1920x1080","","2806","73.94","img/238/2.5/0.5/bw/001.png","","","interesting"
"","","","","","animation","243","3175787","0.0-243.0","1920x1080","","3474.7999999998137","63.49","img/314/4/2/bw/001.png","","","interesting"
"","","","","","animation","244","3180711","0.0-244.0","1920x1080","","4923.0999999996275","35.71","img/314/5.5/1/bw/001.png","","","interesting"
"","","","","","animation","245","3183671","0.0-245.0","1920x1080","","2958.2999999998137","68.78","img/238/2.5/1/bw/001.png","","","interesting"
"","","","","","animation","246","3196721","0.0-246.0","1920x1080","","13048.799999999814","34","img/117/5.5/2/bw/001.png","","","interesting"
"","","","","","animation","247","3202023","0.0-247.0","1920x1080","","5300.699999999721","58.86","img/314/3.5/1/bw/001.png","","","interesting"
"","","","","","animation","248","3205311","0.0-248.0","1920x1080","","3287.0999999996275","51.06","img/238/2.5/0.66667/bw/001.png","","","interesting"
"","","","","","animation","249","3208454","0.0-249.0","1920x1080","","3142","75.66","img/238/4.5/0.66667/bw/001.png","","","interesting"
"","","","","","animation","250","3211159","0.0-250.0","1920x1080","","2703.5999999996275","78.04","img/238/4/0.66667/bw/001.png","","","interesting"
"","","","","","animation","251","3217495","0.0-251.0","1920x1080","","6334.899999999907","86.64","img/238/5.5/0.5/bw/001.png","","","interesting"
"","","","","","animation","252","3220823","0.0-252.0","1920x1080","","3326.2999999998137","29.89","img/117/3.5/1.5/bw/001.png","","","interesting"
"","","","","","animation","253","3223611","0.0-253.0","1920x1080","","2788.7999999998137","4.50","img/238/5.5/2/bw/001.png","","","interesting"
"","","","","","animation","254","3228277","0.0-254.0","1920x1080","","4664.199999999721","23.68","img/314/5.5/2/bw/001.png","","","interesting"
"","","","","","animation","255","3232986","0.0-255.0","1920x1080","","4708.100000000093","10.58","img/117/3.5/0.5/bw/001.png","","","interesting"
"","","","","","animation","256","3240005","0.0-256.0","1920x1080","","7017.600000000093","23.41","img/314/4.5/2/bw/001.png","","","interesting"
"","","","","","animation","257","3245986","0.0-257.0","1920x1080","","5979.4000000003725","35","img/314/4.5/0.66667/bw/001.png","","","interesting"
"","","","","","animation","258","3251102","0.0-258.0","1920x1080","","5114.5","43.25","img/314/2.5/1.5/bw/001.png","","","interesting"
"","","","","","animation","259","3255036","0.0-259.0","1920x1080","","3932.399999999907","47.22","img/117/4/2/bw/001.png","","","interesting"
"","","","","","animation","260","3261422","0.0-260.0","1920x1080","","6384.699999999721","51.59","img/117/4/1/bw/001.png","","","interesting"
"","","","","","animation","261","3264952","0.0-261.0","1920x1080","","3529.399999999907","56.61","img/117/4/1.5/bw/001.png","","","interesting"
"","","","","","animation","262","3268173","0.0-262.0","1920x1080","","3219.399999999907","66.67","img/314/4/0.5/bw/001.png","","","interesting"
"","","","","","animation","263","3272969","0.0-263.0","1920x1080","","4795","75.26","img/314/4/1/bw/001.png","","","interesting"
"","","","","","animation","264","3276610","0.0-264.0","1920x1080","","3638.899999999907","41.93","img/314/2.5/2/bw/001.png","","","interesting"
"","","","","","animation","265","3281983","0.0-265.0","1920x1080","","5375","8.73","img/238/3.5/0.5/bw/001.png","","","interesting"
"","","","","","animation","266","3285907","0.0-266.0","1920x1080","","3921.899999999907","18.52","img/117/2.5/1/bw/001.png","","","interesting"
"","","","","","animation","267","3289850","0.0-267.0","1920x1080","","3942.1999999997206","92.33","img/314/4.5/1/bw/001.png","","","interesting"
"","","","","","animation","268","3294491","0.0-268.0","1920x1080","","4638.699999999721","15","img/117/2.5/1.5/bw/001.png","","","interesting"
"","","","","","animation","269","3301000","0.0-269.0","1920x1080","","6507.600000000093","79","img/117/4.5/0.66667/bw/001.png","","","interesting"
"","","","","","animation","270","3305617","0.0-270.0","1920x1080","","4615.800000000279","18","img/314/3.5/2/bw/001.png","","","interesting"
"","","","","","animation","271","3316250","0.0-271.0","1920x1080","","10631.799999999814","73","img/238/4.5/2/bw/001.png","","","interesting"
"","","","","","animation","272","3321867","0.0-272.0","1920x1080","","5614.700000000186","91","img/117/5.5/0.5/bw/001.png","","","interesting"
"","","","","","animation","273","3325106","0.0-273.0","1920x1080","","3237.5","17.59","img/314/2.5/0.5/bw/001.png","","","interesting"
"","","","","","animation","274","3331133","0.0-274.0","1920x1080","","6025","20.50","img/314/4/0.66667/bw/001.png","","","interesting"
"","","","","","animation","275","3334938","0.0-275.0","1920x1080","","3804.100000000093","7.14","img/238/3.5/1/bw/001.png","","","interesting"
"","","","","","animation","276","3340523","0.0-276.0","1920x1080","","5582.699999999721","13.76","img/314/3.5/1.5/bw/001.png","","","interesting"
"","","","","","animation","277","3344152","0.0-277.0","1920x1080","","3630.3000000002794","10.19","img/238/4/2/bw/001.png","","","interesting"
"","","","","","animation","278","3347181","0.0-278.0","1920x1080","","3028.100000000093","11.51","img/117/4/0.66667/bw/001.png","","","interesting"
"","","","","","animation","279","3351784","0.0-279.0","1920x1080","","4600.799999999814","14.81","img/314/5.5/0.66667/bw/001.png","","","interesting"
"","","","","","animation","280","3355608","0.0-280.0","1920x1080","","3822.5","11.51","img/314/5.5/1.5/bw/001.png","","","interesting"
"","","","","","animation","281","3358631","0.0-281.0","1920x1080","","3020.0999999996275","26.19","img/117/4.5/2/bw/001.png","","","interesting"
"","","","","","animation","282","3363864","0.0-282.0","1920x1080","","5232.100000000093","31.35","img/314/3.5/0.66667/bw/001.png","","","interesting"
"","","","","","animation","283","3368071","0.0-283.0","1920x1080","","4205.300000000279","81.22","img/117/5.5/1/bw/001.png","","","interesting"
"","","","","","animation","284","3374748","0.0-284.0","1920x1080","","6675.0999999996275","86","img/117/4.5/0.5/bw/001.png","","","interesting"
"","","","","","animation","285","3377812","0.0-285.0","1920x1080","","3062.6999999997206","72.49","img/117/4.5/1.5/bw/001.png","","","interesting"
"","","","","","animation","286","3380998","0.0-286.0","1920x1080","","3184.5","33.60","img/117/4/0.5/bw/001.png","","","interesting"
"","","","","","animation","287","3383465","0.0-287.0","1920x1080","","2465.5","45.90","img/314/3.5/0.5/bw/001.png","","","interesting"
"","","","","","animation","288","3388982","0.0-288.0","1920x1080","","5515.800000000279","19.58","img/238/4.5/1/bw/001.png","","","interesting"
"","","","","","animation","289","3392481","0.0-289.0","1920x1080","","3498.1999999997206","30.42","img/238/4/1.5/bw/001.png","","","interesting"
"","","","","","animation","290","3395298","0.0-290.0","1920x1080","","2815.7999999998137","0","img/117/2.5/0.66667/bw/001.png","","","interesting"
"","","","","","animation","291","3402414","0.0-291.0","1920x1080","","7114.899999999907","79.50","img/238/5.5/1.5/bw/001.png","","","interesting"
"","","","","","animation","292","3406881","0.0-292.0","1920x1080","","4465.799999999814","51.85","img/238/4.5/1.5/bw/001.png","","","interesting"
"","","","","","animation","293","3419872","0.0-293.0","1920x1080","","12984.100000000093","29.89","img/117/5.5/1.5/bw/001.png","","","interesting"
"","","","","","animation","294","3423310","0.0-294.0","1920x1080","","3436.2000000001863","41.67","img/117/3.5/2/bw/001.png","","","interesting"
"","","","","","animation","295","3430976","0.0-295.0","1920x1080","","7664.4000000003725","24.21","img/314/4/1.5/bw/001.png","","","interesting"
"","","","","","animation","296","3436985","0.0-296.0","1920x1080","","6004.399999999907","5.82","img/117/2.5/2/bw/001.png","","","interesting"
"","","","","","animation","297","3440875","0.0-297.0","1920x1080","","3888.1999999997206","11.64","img/117/3.5/0.66667/bw/001.png","","","interesting"
"","","","","","animation","298","3445357","0.0-298.0","1920x1080","","4480.299999999814","8.33","img/238/3.5/2/bw/001.png","","","interesting"
"","","","","","animation","299","3448754","0.0-299.0","1920x1080","","3394.8000000002794","10.71","img/117/2.5/0.5/bw/001.png","","","interesting"
"","","","","","animation","300","3451856","0.0-300.0","1920x1080","","3099.7999999998137","4","img/238/2.5/1.5/bw/001.png","","","interesting"
"","","","","","animation","301","3456415","0.0-301.0","1920x1080","","4557.399999999907","74","img/314/5.5/0.5/bw/001.png","","","interesting"
"","","","","","animation","302","3459515","0.0-302.0","1920x1080","","3098.8000000002794","5.42","img/238/2.5/2/bw/001.png","","","interesting"
"","","","","","animation","303","3463891","0.0-303.0","1920x1080","","4374.200000000186","7.94","img/238/4.5/0.5/bw/001.png","","","interesting"
"","","","","","animation","304","3467006","0.0-304.0","1920x1080","","3112.2999999998137","19.58","img/314/4.5/0.5/bw/001.png","","","interesting"
"","","","","","animation","305","3469738","0.0-305.0","1920x1080","","2731.2999999998137","3.84","img/314/2.5/0.66667/bw/001.png","","","interesting"
"","","","","","animation","306","3473171","0.0-306.0","1920x1080","","3430.7999999998137","80.29","img/117/4.5/1/bw/001.png","","","interesting"
"","","","","","animation","307","3475632","0.0-307.0","1920x1080","","2460.5","74.47","img/238/4/0.5/bw/001.png","","","interesting"
"","","","","","animation","308","3481282","0.0-308.0","1920x1080","","5647.799999999814","47","img/238/3.5/0.66667/bw/001.png","","","interesting"
"","","","","","animation","309","3484832","0.0-309.0","1920x1080","","3549.600000000093","49.34","img/117/3.5/1/bw/001.png","","","interesting"
"","","","","","animation","310","3488515","0.0-310.0","1920x1080","","3681.2999999998137","88.23","img/238/5.5/0.66667/bw/001.png","","","interesting"
"","","","","","animation","311","3492456","0.0-311.0","1920x1080","","3939.899999999907","39.15","img/238/4/1/bw/001.png","","","interesting"
"","","","","","animation","312","3495956","0.0-312.0","1920x1080","","3497.6999999997206","26.32","img/117/5.5/0.66667/bw/001.png","","","interesting"
"","","","","","html-button-response","313","3541969","0.0-313.0","1920x1080","","46011.200000000186","","<div class=""intro"">You are about to view a new series of animations.<br><br></div><div class=""intro"">You will evaluate them based on a different descriptor.<br><br></div><div class=""intro"">Move the slider to indicate how <strong style=""text-transform:capitalize"">NATURAL</strong> you find each animation.<br><br></div><div class=""intro"">0 = Least Natural<br></div><div class=""intro"">1 = Most Natural<br><br></div><div class=""intro"">Remember to use the <strong><em>entire range</em></strong> of the slider to make your ratings.<br></div><div class=""intro"">Please <strong><em>take your time</em></strong> and carefully consider each rating you make.<br><br></div>","0","",""
"","","","","","call-function","314","3541973","0.0-314.0","1920x1080","","","","","","",""
"","","","","","animation","315","3547000","0.0-315.0","1920x1080","","5026.5","25.79","img/314/4.5/0.66667/bw/001.png","","","natural"
"","","","","","animation","316","3550904","0.0-316.0","1920x1080","","3902.7999999998137","1.19","img/117/2.5/2/bw/001.png","","","natural"
"","","","","","animation","317","3555914","0.0-317.0","1920x1080","","5007.700000000186","5.82","img/238/3.5/0.66667/bw/001.png","","","natural"
"","","","","","animation","318","3558652","0.0-318.0","1920x1080","","2735.600000000093","11","img/314/2.5/2/bw/001.png","","","natural"
"","","","","","animation","319","3624354","0.0-319.0","1920x1080","","65700.8999999999","17.33","img/238/3.5/1/bw/001.png","","","natural"
"","","","","","animation","320","3632225","0.0-320.0","1920x1080","","7866.300000000279","81.75","img/117/5.5/0.5/bw/001.png","","","natural"
"","","","","","animation","321","3634995","0.0-321.0","1920x1080","","2768.100000000093","30.95","img/238/3.5/1.5/bw/001.png","","","natural"
"","","","","","animation","322","3638049","0.0-322.0","1920x1080","","3052.7000000001863","64.02","img/314/5.5/0.5/bw/001.png","","","natural"
"","","","","","animation","323","3642364","0.0-323.0","1920x1080","","4314.4000000003725","12","img/314/3.5/0.5/bw/001.png","","","natural"
"","","","","","animation","324","3645448","0.0-324.0","1920x1080","","3082.399999999907","14.95","img/314/4.5/0.5/bw/001.png","","","natural"
"","","","","","animation","325","3649998","0.0-325.0","1920x1080","","4548.899999999907","30.69","img/117/4.5/1.5/bw/001.png","","","natural"
"","","","","","animation","326","3653648","0.0-326.0","1920x1080","","3648.7000000001863","6.48","img/117/2.5/1.5/bw/001.png","","","natural"
"","","","","","animation","327","3656255","0.0-327.0","1920x1080","","2605","8.73","img/117/4/1.5/bw/001.png","","","natural"
"","","","","","animation","328","3668271","0.0-328.0","1920x1080","","12014.30000000028","76.19","img/238/5.5/1/bw/001.png","","","natural"
"","","","","","animation","329","3675164","0.0-329.0","1920x1080","","6891.399999999907","20","img/238/4.5/1/bw/001.png","","","natural"
"","","","","","animation","330","3678931","0.0-330.0","1920x1080","","3764.2999999998137","27.78","img/314/4.5/1/bw/001.png","","","natural"
"","","","","","animation","331","3687431","0.0-331.0","1920x1080","","8497.599999999627","81.35","img/314/5.5/2/bw/001.png","","","natural"
"","","","","","animation","332","3692512","0.0-332.0","1920x1080","","5079.600000000093","89.81","img/238/5.5/0.5/bw/001.png","","","natural"
"","","","","","animation","333","3695052","0.0-333.0","1920x1080","","2536.6999999997206","34.39","img/238/4/1/bw/001.png","","","natural"
"","","","","","animation","334","3697832","0.0-334.0","1920x1080","","2779.2999999998137","4.89","img/238/2.5/2/bw/001.png","","","natural"
"","","","","","animation","335","3700232","0.0-335.0","1920x1080","","2397.2999999998137","2.38","img/117/3.5/2/bw/001.png","","","natural"
"","","","","","animation","336","3703516","0.0-336.0","1920x1080","","3282.100000000093","4.37","img/314/3.5/2/bw/001.png","","","natural"
"","","","","","animation","337","3709432","0.0-337.0","1920x1080","","5915.5","7.94","img/314/3.5/1/bw/001.png","","","natural"
"","","","","","animation","338","3713424","0.0-338.0","1920x1080","","3990","65.87","img/238/5.5/0.66667/bw/001.png","","","natural"
"","","","","","animation","339","3716985","0.0-339.0","1920x1080","","3559.5","25.93","img/238/4/0.66667/bw/001.png","","","natural"
"","","","","","animation","340","3720259","0.0-340.0","1920x1080","","3272","18.65","img/238/3.5/2/bw/001.png","","","natural"
"","","","","","animation","341","3723169","0.0-341.0","1920x1080","","2907.100000000093","31.48","img/238/4.5/0.66667/bw/001.png","","","natural"
"","","","","","animation","342","3725232","0.0-342.0","1920x1080","","2062.5999999996275","9.52","img/238/2.5/0.66667/bw/001.png","","","natural"
"","","","","","animation","343","3727617","0.0-343.0","1920x1080","","2383.399999999907","5.56","img/117/2.5/1/bw/001.png","","","natural"
"","","","","","animation","344","3731666","0.0-344.0","1920x1080","","4046.5","42.99","img/314/4.5/2/bw/001.png","","","natural"
"","","","","","animation","345","3735589","0.0-345.0","1920x1080","","3921.100000000093","9.92","img/314/2.5/0.5/bw/001.png","","","natural"
"","","","","","animation","346","3737869","0.0-346.0","1920x1080","","2277.5","5.82","img/117/3.5/0.66667/bw/001.png","","","natural"
"","","","","","animation","347","3740833","0.0-347.0","1920x1080","","2962.5","3.84","img/238/2.5/0.5/bw/001.png","","","natural"
"","","","","","animation","348","3744524","0.0-348.0","1920x1080","","3690","3.97","img/117/4.5/0.66667/bw/001.png","","","natural"
"","","","","","animation","349","3748043","0.0-349.0","1920x1080","","3517.5999999996275","2.51","img/117/4.5/0.5/bw/001.png","","","natural"
"","","","","","animation","350","3750816","0.0-350.0","1920x1080","","2770.2999999998137","4.10","img/314/3.5/1.5/bw/001.png","","","natural"
"","","","","","animation","351","3754065","0.0-351.0","1920x1080","","3247.2999999998137","2.78","img/117/3.5/1/bw/001.png","","","natural"
"","","","","","animation","352","3756249","0.0-352.0","1920x1080","","2181.899999999907","3.70","img/314/4/2/bw/001.png","","","natural"
"","","","","","animation","353","3760070","0.0-353.0","1920x1080","","3820.100000000093","5.16","img/117/4/1/bw/001.png","","","natural"
"","","","","","animation","354","3762752","0.0-354.0","1920x1080","","2680.600000000093","4.23","img/314/2.5/1/bw/001.png","","","natural"
"","","","","","animation","355","3766573","0.0-355.0","1920x1080","","3819.100000000093","66.01","img/314/4/1.5/bw/001.png","","","natural"
"","","","","","animation","356","3770099","0.0-356.0","1920x1080","","3523.7000000001863","25.13","img/117/4/0.5/bw/001.png","","","natural"
"","","","","","animation","357","3773098","0.0-357.0","1920x1080","","2997.600000000093","38.62","img/117/4.5/2/bw/001.png","","","natural"
"","","","","","animation","358","3775326","0.0-358.0","1920x1080","","2226.7999999998137","33.99","img/314/3.5/0.66667/bw/001.png","","","natural"
"","","","","","animation","359","3779221","0.0-359.0","1920x1080","","3893","93.25","img/117/5.5/2/bw/001.png","","","natural"
"","","","","","animation","360","3781398","0.0-360.0","1920x1080","","2175.5","75.79","img/238/4.5/2/bw/001.png","","","natural"
"","","","","","animation","361","3784599","0.0-361.0","1920x1080","","3199.8000000002794","26.98","img/117/3.5/0.5/bw/001.png","","","natural"
"","","","","","animation","362","3787265","0.0-362.0","1920x1080","","2661.5999999996275","3.04","img/314/2.5/1.5/bw/001.png","","","natural"
"","","","","","animation","363","3794482","0.0-363.0","1920x1080","","7214.799999999814","13.89","img/117/4.5/1/bw/001.png","","","natural"
"","","","","","animation","364","3799015","0.0-364.0","1920x1080","","4531.5","83","img/117/5.5/1/bw/001.png","","","natural"
"","","","","","animation","365","3803048","0.0-365.0","1920x1080","","4030.8000000002794","90.08","img/238/4.5/1.5/bw/001.png","","","natural"
"","","","","","animation","366","3808965","0.0-366.0","1920x1080","","5915.299999999814","40","img/117/4/2/bw/001.png","","","natural"
"","","","","","animation","367","3812624","0.0-367.0","1920x1080","","3657.5","100","img/314/5.5/1/bw/001.png","","","natural"
"","","","","","animation","368","3816404","0.0-368.0","1920x1080","","3776.7000000001863","7.28","img/117/2.5/0.66667/bw/001.png","","","natural"
"","","","","","animation","369","3820282","0.0-369.0","1920x1080","","3877.2000000001863","5.03","img/238/3.5/0.5/bw/001.png","","","natural"
"","","","","","animation","370","3825433","0.0-370.0","1920x1080","","5147.5","7.54","img/314/4/0.5/bw/001.png","","","natural"
"","","","","","animation","371","3829949","0.0-371.0","1920x1080","","4513.9000000003725","75.26","img/117/5.5/1.5/bw/001.png","","","natural"
"","","","","","animation","372","3832507","0.0-372.0","1920x1080","","2557.399999999907","46.83","img/314/4/0.66667/bw/001.png","","","natural"
"","","","","","animation","373","3834732","0.0-373.0","1920x1080","","2223.1999999997206","8.60","img/117/2.5/0.5/bw/001.png","","","natural"
"","","","","","animation","374","3837363","0.0-374.0","1920x1080","","2629.4000000003725","4.50","img/238/2.5/1/bw/001.png","","","natural"
"","","","","","animation","375","3839520","0.0-375.0","1920x1080","","2155.600000000093","2.78","img/238/2.5/1.5/bw/001.png","","","natural"
"","","","","","animation","376","3842499","0.0-376.0","1920x1080","","2977","12.57","img/314/4/1/bw/001.png","","","natural"
"","","","","","animation","377","3846409","0.0-377.0","1920x1080","","3908.7000000001863","85.45","img/314/5.5/1.5/bw/001.png","","","natural"
"","","","","","animation","378","3848600","0.0-378.0","1920x1080","","2188.2000000001863","37.96","img/117/4/0.66667/bw/001.png","","","natural"
"","","","","","animation","379","3855216","0.0-379.0","1920x1080","","6615.299999999814","51.98","img/314/2.5/0.66667/bw/001.png","","","natural"
"","","","","","animation","380","3863932","0.0-380.0","1920x1080","","8711.799999999814","35.32","img/238/4/2/bw/001.png","","","natural"
"","","","","","animation","381","3877466","0.0-381.0","1920x1080","","13532","51","img/238/4.5/0.5/bw/001.png","","","natural"
"","","","","","animation","382","3880475","0.0-382.0","1920x1080","","3007","79.63","img/314/5.5/0.66667/bw/001.png","","","natural"
"","","","","","animation","383","3882916","0.0-383.0","1920x1080","","2439.899999999907","88.89","img/117/5.5/0.66667/bw/001.png","","","natural"
"","","","","","animation","384","3885332","0.0-384.0","1920x1080","","2414.100000000093","46.96","img/117/3.5/1.5/bw/001.png","","","natural"
"","","","","","animation","385","3887517","0.0-385.0","1920x1080","","2183.2000000001863","39.02","img/314/4.5/1.5/bw/001.png","","","natural"
"","","","","","animation","386","3891633","0.0-386.0","1920x1080","","4115","23","img/238/4/0.5/bw/001.png","","","natural"
"","","","","","animation","387","3894782","0.0-387.0","1920x1080","","3147.899999999907","24.74","img/238/4/1.5/bw/001.png","","","natural"
"","","","","","animation","388","3899137","0.0-388.0","1920x1080","","4352.300000000279","86.11","img/238/5.5/1.5/bw/001.png","","","natural"
"","","","","","animation","389","3901716","0.0-389.0","1920x1080","","2577.2999999998137","91.27","img/238/5.5/2/bw/001.png","","","natural"
"","","","","","html-button-response","390","3910981","0.0-390.0","1920x1080","","9263.099999999627","","<strong>Study Debriefing</strong><br><p class=""debrief""><strong>Background:</strong> The patterns you rated are called <em>fractals</em>. The term fractal describes a class of irregular curves or shapes for which any suitably chosen part is similar in shape to a given larger or smaller part when magnified or reduced to the same size. Fractal properties are found throughout the natural and manmade world. The series of animations you saw today displayed animated fractal patterns of a varying complexity.</p><p class=""debrief""><strong>Purpose of this study:</strong> We hope to better understand how the perception of static fractals differs from the perception of animated fractals, and how the speed of the animated patterns influences people&apos;s perception of them. Fractals allow us to study the perception of aesthetic properties (e.g. the perceived level of beauty in an image) without using recognizable content, which makes them an excellent tool for studying abstract aesthetic judgement.</p><p class=""debrief""><strong>Your part:</strong> Your participation has helped us to further understand how humans perceive these patterns across different levels of speed and complexity. This research with allow us to better understand how the visual system and brain process our ever-changing visual environments.<p class=""debrief""><strong>Feedback and Further information:</strong> If you have additional questions about this study, please feel free to ask the researcher, Nathan Gonzales-Hess at nhess @ uoregon.edu. If you have any questions concerning your rights as a research participant, please contact Research Compliance Services, 5237 University of Oregon, Eugene, OR 97403, 541-346-2510, or email researchCompliance @ uoregon.edu. You can also email the Human Subjects Coordinator for psychology and linguistics research at hscoord @ uoregon.edu. ","0","",""
"","","","","","html-button-response","391","3915014","0.0-391.0","1920x1080","","4029","","Thank you for participating in this study. <br>Please click below to finish the experiment and submit your responses.<br><br>","0","",""
"true","","","","","fullscreen","392","3916026","0.0-392.0","1920x1080","16:25 23/5/2022","","","","","",""
