"success","timeout","failed_images","failed_audio","failed_video","trial_type","trial_index","time_elapsed","internal_node_id","resolution","timeStamp","rt","response","stimulus","button_pressed","value","descriptor"
"true","false","[]","[]","[]","preload","0","33921","0.0-0.0","1920x1080","","","","","","",""
"true","false","[]","[]","[]","preload","1","79024","0.0-1.0","1920x1080","","","","","","",""
"true","false","[]","[]","[]","preload","2","116145","0.0-2.0","1920x1080","","","","","","",""
"true","","","","","fullscreen","3","119959","0.0-3.0","1920x1080","13:26 20/5/2022","","","","","",""
"","","","","","survey-html-form","4","128840","0.0-4.0","1920x1080","","8878","{""age"":""19"",""gender"":""Male""}","","","",""
"","","","","","html-button-response","5","138792","0.0-5.0","1920x1080","","9950.600000000093","","<div class=""complex"">You are going to see a series of animations.<br><br></div><div class=""complex"">Move the slider to indicate how <strong style=""text-transform:capitalize"">COMPLEX</strong> you find each animation.<br><br></div><div class=""complex"">0 = Least Complex<br></div><div class=""complex"">1 = Most Complex<br><br></div><div class=""complex"">Remember to use the <strong><em>entire range</em></strong> of the slider to make your ratings.<br></div><div class=""complex"">Please <strong><em>take your time</em></strong> and carefully consider each rating you make.<br><br></div><div class=""complex"">The study has five sections and will take about 45 minutes to complete.<br><br></div>","0","",""
"","","","","","call-function","6","138792","0.0-6.0","1920x1080","","","","","","",""
"","","","","","animation","7","163880","0.0-7.0","1920x1080","","25085.699999999953","37","img/314/5.5/1/bw/001.png","","","complex"
"","","","","","animation","8","170279","0.0-8.0","1920x1080","","6398.399999999907","50.53","img/238/3.5/1/bw/001.png","","","complex"
"","","","","","animation","9","177214","0.0-9.0","1920x1080","","6934.40000000014","62.17","img/238/5.5/0.66667/bw/001.png","","","complex"
"","","","","","animation","10","185863","0.0-10.0","1920x1080","","8647.100000000093","58.20","img/238/4.5/2/bw/001.png","","","complex"
"","","","","","animation","11","194046","0.0-11.0","1920x1080","","8182.800000000047","17.59","img/314/3.5/1/bw/001.png","","","complex"
"","","","","","animation","12","209798","0.0-12.0","1920x1080","","15750.699999999953","62","img/314/4.5/2/bw/001.png","","","complex"
"","","","","","animation","13","217719","0.0-13.0","1920x1080","","7919.300000000047","22.62","img/314/2.5/2/bw/001.png","","","complex"
"","","","","","animation","14","220327","0.0-14.0","1920x1080","","2607","8.20","img/314/2.5/1.5/bw/001.png","","","complex"
"","","","","","animation","15","229502","0.0-15.0","1920x1080","","9174.90000000014","64","img/314/5.5/1.5/bw/001.png","","","complex"
"","","","","","animation","16","238623","0.0-16.0","1920x1080","","9119.59999999986","61","img/238/4.5/1/bw/001.png","","","complex"
"","","","","","animation","17","244855","0.0-17.0","1920x1080","","6230.800000000047","33.86","img/238/4/2/bw/001.png","","","complex"
"","","","","","animation","18","248598","0.0-18.0","1920x1080","","3742.600000000093","36.38","img/238/4.5/1.5/bw/001.png","","","complex"
"","","","","","animation","19","260063","0.0-19.0","1920x1080","","11463.90000000014","27.25","img/314/4/0.5/bw/001.png","","","complex"
"","","","","","animation","20","272382","0.0-20.0","1920x1080","","12318.699999999953","71.03","img/238/5.5/1.5/bw/001.png","","","complex"
"","","","","","animation","21","276134","0.0-21.0","1920x1080","","3751.0999999998603","70.24","img/117/5.5/0.66667/bw/001.png","","","complex"
"","","","","","animation","22","279862","0.0-22.0","1920x1080","","3726.899999999907","43.39","img/117/4.5/0.66667/bw/001.png","","","complex"
"","","","","","animation","23","286271","0.0-23.0","1920x1080","","6408.100000000093","40.34","img/314/4.5/0.5/bw/001.png","","","complex"
"","","","","","animation","24","289879","0.0-24.0","1920x1080","","3606.6999999999534","38.49","img/238/4.5/0.66667/bw/001.png","","","complex"
"","","","","","animation","25","294887","0.0-25.0","1920x1080","","5006.90000000014","2.91","img/238/2.5/1.5/bw/001.png","","","complex"
"","","","","","animation","26","298430","0.0-26.0","1920x1080","","3542.5","25.00","img/314/3.5/2/bw/001.png","","","complex"
"","","","","","animation","27","300855","0.0-27.0","1920x1080","","2424","33.73","img/117/4/0.66667/bw/001.png","","","complex"
"","","","","","animation","28","302990","0.0-28.0","1920x1080","","2135.0999999998603","42.20","img/117/4.5/0.5/bw/001.png","","","complex"
"","","","","","animation","29","305927","0.0-29.0","1920x1080","","2935.5","34.39","img/314/4/0.66667/bw/001.png","","","complex"
"","","","","","animation","30","309159","0.0-30.0","1920x1080","","3230.899999999907","2.38","img/117/2.5/0.66667/bw/001.png","","","complex"
"","","","","","animation","31","312398","0.0-31.0","1920x1080","","3238.8000000000466","7.54","img/238/3.5/1.5/bw/001.png","","","complex"
"","","","","","animation","32","316886","0.0-32.0","1920x1080","","4487.300000000047","49.21","img/238/4.5/0.5/bw/001.png","","","complex"
"","","","","","animation","33","319814","0.0-33.0","1920x1080","","2926.899999999907","2.51","img/238/2.5/0.66667/bw/001.png","","","complex"
"","","","","","animation","34","326382","0.0-34.0","1920x1080","","6567.40000000014","79.76","img/238/5.5/2/bw/001.png","","","complex"
"","","","","","animation","35","331312","0.0-35.0","1920x1080","","4929","63","img/117/4.5/2/bw/001.png","","","complex"
"","","","","","animation","36","336734","0.0-36.0","1920x1080","","5420.899999999907","3.31","img/117/2.5/0.5/bw/001.png","","","complex"
"","","","","","animation","37","339086","0.0-37.0","1920x1080","","2351.100000000093","31.08","img/117/4/2/bw/001.png","","","complex"
"","","","","","animation","38","343470","0.0-38.0","1920x1080","","4383.40000000014","83.20","img/314/5.5/2/bw/001.png","","","complex"
"","","","","","animation","39","346175","0.0-39.0","1920x1080","","2702.9000000001397","39.02","img/238/4/1.5/bw/001.png","","","complex"
"","","","","","animation","40","349190","0.0-40.0","1920x1080","","3015.100000000093","17.06","img/117/3.5/0.5/bw/001.png","","","complex"
"","","","","","animation","41","354183","0.0-41.0","1920x1080","","4990.90000000014","90","img/238/5.5/0.5/bw/001.png","","","complex"
"","","","","","animation","42","356967","0.0-42.0","1920x1080","","2783","0","img/117/2.5/2/bw/001.png","","","complex"
"","","","","","animation","43","360071","0.0-43.0","1920x1080","","3103.5","29.89","img/314/4/2/bw/001.png","","","complex"
"","","","","","animation","44","363399","0.0-44.0","1920x1080","","3326.6999999999534","1.98","img/314/2.5/0.66667/bw/001.png","","","complex"
"","","","","","animation","45","367175","0.0-45.0","1920x1080","","3775.6999999999534","86","img/314/5.5/0.66667/bw/001.png","","","complex"
"","","","","","animation","46","370031","0.0-46.0","1920x1080","","2854.6999999999534","0","img/238/2.5/1/bw/001.png","","","complex"
"","","","","","animation","47","372191","0.0-47.0","1920x1080","","2159.5","1.98","img/238/2.5/2/bw/001.png","","","complex"
"","","","","","animation","48","374871","0.0-48.0","1920x1080","","2679.100000000093","86.90","img/238/5.5/1/bw/001.png","","","complex"
"","","","","","animation","49","377775","0.0-49.0","1920x1080","","2903.5","34.39","img/117/3.5/1/bw/001.png","","","complex"
"","","","","","animation","50","382503","0.0-50.0","1920x1080","","4726.800000000047","10","img/117/4.5/1/bw/001.png","","","complex"
"","","","","","animation","51","386639","0.0-51.0","1920x1080","","4135.399999999907","61.38","img/314/4.5/1.5/bw/001.png","","","complex"
"","","","","","animation","52","390615","0.0-52.0","1920x1080","","3974.8000000000466","91.01","img/117/5.5/1.5/bw/001.png","","","complex"
"","","","","","animation","53","393535","0.0-53.0","1920x1080","","2919.4000000001397","13.10","img/238/3.5/0.66667/bw/001.png","","","complex"
"","","","","","animation","54","396999","0.0-54.0","1920x1080","","3462.8000000000466","1.32","img/117/2.5/1/bw/001.png","","","complex"
"","","","","","animation","55","402735","0.0-55.0","1920x1080","","5735.100000000093","90.34","img/117/5.5/2/bw/001.png","","","complex"
"","","","","","animation","56","405681","0.0-56.0","1920x1080","","2945.2999999998137","29.89","img/117/3.5/2/bw/001.png","","","complex"
"","","","","","animation","57","407567","0.0-57.0","1920x1080","","1884.9000000001397","33.86","img/314/4/1/bw/001.png","","","complex"
"","","","","","animation","58","410407","0.0-58.0","1920x1080","","2839.5999999998603","0","img/314/2.5/0.5/bw/001.png","","","complex"
"","","","","","animation","59","415039","0.0-59.0","1920x1080","","4631.09999999986","17","img/238/4/0.66667/bw/001.png","","","complex"
"","","","","","animation","60","416951","0.0-60.0","1920x1080","","1911","33.20","img/314/4.5/0.66667/bw/001.png","","","complex"
"","","","","","animation","61","422751","0.0-61.0","1920x1080","","5798.899999999907","38.23","img/117/4/1.5/bw/001.png","","","complex"
"","","","","","animation","62","485335","0.0-62.0","1920x1080","","62583.10000000009","22.88","img/314/3.5/0.66667/bw/001.png","","","complex"
"","","","","","animation","63","487447","0.0-63.0","1920x1080","","2111.8000000000466","87.04","img/117/5.5/0.5/bw/001.png","","","complex"
"","","","","","animation","64","489119","0.0-64.0","1920x1080","","1670.6999999999534","42.86","img/314/4.5/1/bw/001.png","","","complex"
"","","","","","animation","65","491582","0.0-65.0","1920x1080","","2463","25.13","img/314/4/1.5/bw/001.png","","","complex"
"","","","","","animation","66","493399","0.0-66.0","1920x1080","","1815.3999999999069","9.92","img/117/4/0.5/bw/001.png","","","complex"
"","","","","","animation","67","496214","0.0-67.0","1920x1080","","2815.100000000093","4.23","img/117/3.5/0.66667/bw/001.png","","","complex"
"","","","","","animation","68","498750","0.0-68.0","1920x1080","","2535","2.12","img/314/3.5/1.5/bw/001.png","","","complex"
"","","","","","animation","69","501238","0.0-69.0","1920x1080","","2487.1999999999534","0.40","img/314/2.5/1/bw/001.png","","","complex"
"","","","","","animation","70","503182","0.0-70.0","1920x1080","","1942.8999999999069","32.41","img/117/4.5/1.5/bw/001.png","","","complex"
"","","","","","animation","71","507951","0.0-71.0","1920x1080","","4767.5","16","img/238/3.5/0.5/bw/001.png","","","complex"
"","","","","","animation","72","510647","0.0-72.0","1920x1080","","2695.8000000000466","17.72","img/314/3.5/0.5/bw/001.png","","","complex"
"","","","","","animation","73","513639","0.0-73.0","1920x1080","","2990.5999999998603","2.91","img/117/2.5/1.5/bw/001.png","","","complex"
"","","","","","animation","74","515982","0.0-74.0","1920x1080","","2342.6999999999534","38.36","img/238/4/0.5/bw/001.png","","","complex"
"","","","","","animation","75","518281","0.0-75.0","1920x1080","","2297.5999999998603","43.78","img/117/4/1/bw/001.png","","","complex"
"","","","","","animation","76","520671","0.0-76.0","1920x1080","","2388.600000000093","44.44","img/238/4/1/bw/001.png","","","complex"
"","","","","","animation","77","522718","0.0-77.0","1920x1080","","2046.7999999998137","33.20","img/117/3.5/1.5/bw/001.png","","","complex"
"","","","","","animation","78","526166","0.0-78.0","1920x1080","","3447","85.32","img/117/5.5/1/bw/001.png","","","complex"
"","","","","","animation","79","530015","0.0-79.0","1920x1080","","3847.600000000093","89.68","img/314/5.5/0.5/bw/001.png","","","complex"
"","","","","","animation","80","531896","0.0-80.0","1920x1080","","1879.5","41.40","img/238/3.5/2/bw/001.png","","","complex"
"","","","","","animation","81","537263","0.0-81.0","1920x1080","","5366.300000000047","3","img/238/2.5/0.5/bw/001.png","","","complex"
"","","","","","html-button-response","82","556665","0.0-82.0","1920x1080","","19400.300000000047","","<div class=""intro"">You are about to view a new series of animations.<br><br></div><div class=""intro"">You will evaluate them based on a different descriptor.<br><br></div><div class=""intro"">Move the slider to indicate how <strong style=""text-transform:capitalize"">APPEALING</strong> you find each animation.<br><br></div><div class=""intro"">0 = Least Appealing<br></div><div class=""intro"">1 = Most Appealing<br><br></div><div class=""intro"">Remember to use the <strong><em>entire range</em></strong> of the slider to make your ratings.<br></div><div class=""intro"">Please <strong><em>take your time</em></strong> and carefully consider each rating you make.<br><br></div>","0","",""
"","","","","","call-function","83","556666","0.0-83.0","1920x1080","","","","","","",""
"","","","","","animation","84","561706","0.0-84.0","1920x1080","","5040.100000000093","0.00","img/117/2.5/1.5/bw/001.png","","","appealing"
"","","","","","animation","85","566799","0.0-85.0","1920x1080","","5089.899999999907","100","img/117/5.5/1/bw/001.png","","","appealing"
"","","","","","animation","86","575730","0.0-86.0","1920x1080","","8929.800000000047","32","img/314/4.5/0.66667/bw/001.png","","","appealing"
"","","","","","animation","87","581081","0.0-87.0","1920x1080","","5350.4000000003725","42.99","img/238/4.5/1.5/bw/001.png","","","appealing"
"","","","","","animation","88","585551","0.0-88.0","1920x1080","","4469.100000000093","92.59","img/314/5.5/1.5/bw/001.png","","","appealing"
"","","","","","animation","89","588559","0.0-89.0","1920x1080","","3007.2999999998137","8.73","img/314/3.5/0.66667/bw/001.png","","","appealing"
"","","","","","animation","90","591207","0.0-90.0","1920x1080","","2647.100000000093","0","img/238/3.5/0.66667/bw/001.png","","","appealing"
"","","","","","animation","91","594816","0.0-91.0","1920x1080","","3606.600000000093","98","img/117/5.5/2/bw/001.png","","","appealing"
"","","","","","animation","92","597408","0.0-92.0","1920x1080","","2591.7000000001863","0.53","img/117/2.5/2/bw/001.png","","","appealing"
"","","","","","animation","93","599792","0.0-93.0","1920x1080","","2382.9000000003725","0.93","img/238/2.5/2/bw/001.png","","","appealing"
"","","","","","animation","94","602176","0.0-94.0","1920x1080","","2383.1999999997206","2.25","img/314/3.5/1.5/bw/001.png","","","appealing"
"","","","","","animation","95","608914","0.0-95.0","1920x1080","","6736.700000000186","78.04","img/238/5.5/0.66667/bw/001.png","","","appealing"
"","","","","","animation","96","611904","0.0-96.0","1920x1080","","2989.2999999998137","23.94","img/117/4/0.66667/bw/001.png","","","appealing"
"","","","","","animation","97","614760","0.0-97.0","1920x1080","","2855.100000000093","14.68","img/238/4/2/bw/001.png","","","appealing"
"","","","","","animation","98","617504","0.0-98.0","1920x1080","","2743.100000000093","0.13","img/117/2.5/0.5/bw/001.png","","","appealing"
"","","","","","animation","99","624208","0.0-99.0","1920x1080","","6703.200000000186","100","img/238/5.5/2/bw/001.png","","","appealing"
"","","","","","animation","100","626450","0.0-100.0","1920x1080","","2238","15.61","img/238/3.5/0.5/bw/001.png","","","appealing"
"","","","","","animation","101","629532","0.0-101.0","1920x1080","","3081","1.32","img/238/3.5/1.5/bw/001.png","","","appealing"
"","","","","","animation","102","633856","0.0-102.0","1920x1080","","4323.799999999814","86","img/314/5.5/0.5/bw/001.png","","","appealing"
"","","","","","animation","103","637856","0.0-103.0","1920x1080","","3999.2000000001863","33.73","img/314/4/1/bw/001.png","","","appealing"
"","","","","","animation","104","640148","0.0-104.0","1920x1080","","2290.2999999998137","14.68","img/314/4.5/0.5/bw/001.png","","","appealing"
"","","","","","animation","105","642592","0.0-105.0","1920x1080","","2443.5999999996275","5.16","img/117/3.5/0.66667/bw/001.png","","","appealing"
"","","","","","animation","106","645216","0.0-106.0","1920x1080","","2622.6999999997206","0.00","img/314/2.5/2/bw/001.png","","","appealing"
"","","","","","animation","107","648208","0.0-107.0","1920x1080","","2991.2000000001863","100","img/238/5.5/0.5/bw/001.png","","","appealing"
"","","","","","animation","108","651456","0.0-108.0","1920x1080","","3247.100000000093","34.39","img/117/4/1/bw/001.png","","","appealing"
"","","","","","animation","109","654333","0.0-109.0","1920x1080","","2873.899999999907","17","img/117/4/0.5/bw/001.png","","","appealing"
"","","","","","animation","110","658666","0.0-110.0","1920x1080","","4332.5","100","img/314/5.5/1/bw/001.png","","","appealing"
"","","","","","animation","111","662250","0.0-111.0","1920x1080","","3582.2000000001863","20.50","img/238/4.5/2/bw/001.png","","","appealing"
"","","","","","animation","112","665242","0.0-112.0","1920x1080","","2991.2999999998137","22.75","img/117/4.5/0.66667/bw/001.png","","","appealing"
"","","","","","animation","113","668306","0.0-113.0","1920x1080","","3063","14.29","img/238/4/1.5/bw/001.png","","","appealing"
"","","","","","animation","114","672402","0.0-114.0","1920x1080","","4094.7000000001863","17.46","img/314/4/0.5/bw/001.png","","","appealing"
"","","","","","animation","115","727269","0.0-115.0","1920x1080","","54863.80000000028","33.20","img/238/4.5/0.66667/bw/001.png","","","appealing"
"","","","","","animation","116","729428","0.0-116.0","1920x1080","","2158.899999999907","10.58","img/238/3.5/2/bw/001.png","","","appealing"
"","","","","","animation","117","732069","0.0-117.0","1920x1080","","2639.5","6.75","img/117/3.5/2/bw/001.png","","","appealing"
"","","","","","animation","118","734153","0.0-118.0","1920x1080","","2083.7000000001863","6.61","img/117/3.5/1/bw/001.png","","","appealing"
"","","","","","animation","119","738260","0.0-119.0","1920x1080","","4106","99","img/314/5.5/0.66667/bw/001.png","","","appealing"
"","","","","","animation","120","740380","0.0-120.0","1920x1080","","2119.1999999997206","26.72","img/238/4/0.5/bw/001.png","","","appealing"
"","","","","","animation","121","743108","0.0-121.0","1920x1080","","2726.7999999998137","17.20","img/238/4/1/bw/001.png","","","appealing"
"","","","","","animation","122","745524","0.0-122.0","1920x1080","","2415.0999999996275","0.40","img/314/2.5/0.66667/bw/001.png","","","appealing"
"","","","","","animation","123","747676","0.0-123.0","1920x1080","","2151.0999999996275","0.13","img/238/2.5/1/bw/001.png","","","appealing"
"","","","","","animation","124","752676","0.0-124.0","1920x1080","","4999.0999999996275","28.84","img/314/4.5/2/bw/001.png","","","appealing"
"","","","","","animation","125","755519","0.0-125.0","1920x1080","","2842.2999999998137","5.16","img/314/2.5/1/bw/001.png","","","appealing"
"","","","","","animation","126","757686","0.0-126.0","1920x1080","","2165.5","18.78","img/238/4.5/1/bw/001.png","","","appealing"
"","","","","","animation","127","760244","0.0-127.0","1920x1080","","2557.5999999996275","2.38","img/238/2.5/0.66667/bw/001.png","","","appealing"
"","","","","","animation","128","762964","0.0-128.0","1920x1080","","2718.9000000003725","33.20","img/117/4/2/bw/001.png","","","appealing"
"","","","","","animation","129","766364","0.0-129.0","1920x1080","","3399.1999999997206","25.79","img/117/4/1.5/bw/001.png","","","appealing"
"","","","","","animation","130","769188","0.0-130.0","1920x1080","","2822.600000000093","100","img/314/5.5/2/bw/001.png","","","appealing"
"","","","","","animation","131","771820","0.0-131.0","1920x1080","","2631","100","img/238/5.5/1.5/bw/001.png","","","appealing"
"","","","","","animation","132","774938","0.0-132.0","1920x1080","","3114.899999999907","0","img/238/2.5/0.5/bw/001.png","","","appealing"
"","","","","","animation","133","777072","0.0-133.0","1920x1080","","2133.100000000093","14.68","img/238/3.5/1/bw/001.png","","","appealing"
"","","","","","animation","134","778799","0.0-134.0","1920x1080","","1725.7999999998137","18.78","img/314/3.5/1/bw/001.png","","","appealing"
"","","","","","animation","135","781771","0.0-135.0","1920x1080","","2971.4000000003725","0","img/238/2.5/1.5/bw/001.png","","","appealing"
"","","","","","animation","136","783815","0.0-136.0","1920x1080","","2042.7000000001863","37.04","img/117/4.5/1.5/bw/001.png","","","appealing"
"","","","","","animation","137","786823","0.0-137.0","1920x1080","","3006.7999999998137","0.53","img/314/2.5/0.5/bw/001.png","","","appealing"
"","","","","","animation","138","789847","0.0-138.0","1920x1080","","3023.5","23.68","img/314/4.5/1/bw/001.png","","","appealing"
"","","","","","animation","139","791711","0.0-139.0","1920x1080","","1863","11.64","img/314/4/2/bw/001.png","","","appealing"
"","","","","","animation","140","795047","0.0-140.0","1920x1080","","3335","100","img/238/5.5/1/bw/001.png","","","appealing"
"","","","","","animation","141","797799","0.0-141.0","1920x1080","","2751","0","img/314/2.5/1.5/bw/001.png","","","appealing"
"","","","","","animation","142","804031","0.0-142.0","1920x1080","","6230.700000000186","31.75","img/314/3.5/0.5/bw/001.png","","","appealing"
"","","","","","animation","143","808590","0.0-143.0","1920x1080","","4558","48.54","img/117/4.5/1/bw/001.png","","","appealing"
"","","","","","animation","144","813674","0.0-144.0","1920x1080","","5082.199999999721","1.59","img/117/2.5/1/bw/001.png","","","appealing"
"","","","","","animation","145","830206","0.0-145.0","1920x1080","","16531.799999999814","64.02","img/314/4.5/1.5/bw/001.png","","","appealing"
"","","","","","animation","146","833625","0.0-146.0","1920x1080","","3414.9000000003725","13.49","img/314/3.5/2/bw/001.png","","","appealing"
"","","","","","animation","147","837290","0.0-147.0","1920x1080","","3664.899999999907","0","img/117/2.5/0.66667/bw/001.png","","","appealing"
"","","","","","animation","148","840513","0.0-148.0","1920x1080","","3220.5","2.78","img/117/3.5/0.5/bw/001.png","","","appealing"
"","","","","","animation","149","843224","0.0-149.0","1920x1080","","2710.600000000093","11.51","img/238/4/0.66667/bw/001.png","","","appealing"
"","","","","","animation","150","847617","0.0-150.0","1920x1080","","4391.700000000186","40.74","img/238/4.5/0.5/bw/001.png","","","appealing"
"","","","","","animation","151","849574","0.0-151.0","1920x1080","","1955.7999999998137","21.03","img/314/4/0.66667/bw/001.png","","","appealing"
"","","","","","animation","152","852033","0.0-152.0","1920x1080","","2458.399999999907","100","img/117/5.5/0.66667/bw/001.png","","","appealing"
"","","","","","animation","153","854249","0.0-153.0","1920x1080","","2215.100000000093","24.47","img/117/4.5/0.5/bw/001.png","","","appealing"
"","","","","","animation","154","856558","0.0-154.0","1920x1080","","2307.6999999997206","12.70","img/117/3.5/1.5/bw/001.png","","","appealing"
"","","","","","animation","155","860161","0.0-155.0","1920x1080","","3602","99","img/117/5.5/0.5/bw/001.png","","","appealing"
"","","","","","animation","156","862961","0.0-156.0","1920x1080","","2799","100","img/117/5.5/1.5/bw/001.png","","","appealing"
"","","","","","animation","157","867577","0.0-157.0","1920x1080","","4614.899999999907","62.96","img/117/4.5/2/bw/001.png","","","appealing"
"","","","","","animation","158","870149","0.0-158.0","1920x1080","","2571.2999999998137","23.15","img/314/4/1.5/bw/001.png","","","appealing"
"","","","","","html-button-response","159","914893","0.0-159.0","1920x1080","","44741.39999999991","","<div class=""intro"">You are about to view a new series of animations.<br><br></div><div class=""intro"">You will evaluate them based on a different descriptor.<br><br></div><div class=""intro"">Move the slider to indicate how <strong style=""text-transform:capitalize"">NATURAL</strong> you find each animation.<br><br></div><div class=""intro"">0 = Least Natural<br></div><div class=""intro"">1 = Most Natural<br><br></div><div class=""intro"">Remember to use the <strong><em>entire range</em></strong> of the slider to make your ratings.<br></div><div class=""intro"">Please <strong><em>take your time</em></strong> and carefully consider each rating you make.<br><br></div>","0","",""
"","","","","","call-function","160","914897","0.0-160.0","1920x1080","","","","","","",""
"","","","","","animation","161","917325","0.0-161.0","1920x1080","","2426.899999999907","0","img/117/3.5/1/bw/001.png","","","natural"
"","","","","","animation","162","920025","0.0-162.0","1920x1080","","2699.9000000003725","22.22","img/238/4/1/bw/001.png","","","natural"
"","","","","","animation","163","921618","0.0-163.0","1920x1080","","1591.7000000001863","27.38","img/117/4/0.66667/bw/001.png","","","natural"
"","","","","","animation","164","923914","0.0-164.0","1920x1080","","2295.100000000093","0","img/238/2.5/0.5/bw/001.png","","","natural"
"","","","","","animation","165","926418","0.0-165.0","1920x1080","","2503","100","img/314/5.5/1.5/bw/001.png","","","natural"
"","","","","","animation","166","928049","0.0-166.0","1920x1080","","1630.5","84.79","img/238/5.5/1.5/bw/001.png","","","natural"
"","","","","","animation","167","930977","0.0-167.0","1920x1080","","2927.100000000093","2.38","img/314/3.5/0.5/bw/001.png","","","natural"
"","","","","","animation","168","932802","0.0-168.0","1920x1080","","1823.3999999999069","7.94","img/238/3.5/2/bw/001.png","","","natural"
"","","","","","animation","169","935258","0.0-169.0","1920x1080","","2455.5","0.13","img/238/2.5/2/bw/001.png","","","natural"
"","","","","","animation","170","938925","0.0-170.0","1920x1080","","3665.600000000093","43.25","img/117/4.5/2/bw/001.png","","","natural"
"","","","","","animation","171","941234","0.0-171.0","1920x1080","","2307.899999999907","0.13","img/314/2.5/0.66667/bw/001.png","","","natural"
"","","","","","animation","172","943742","0.0-172.0","1920x1080","","2507","0.53","img/238/3.5/1/bw/001.png","","","natural"
"","","","","","animation","173","947925","0.0-173.0","1920x1080","","4182.299999999814","26.59","img/314/4/2/bw/001.png","","","natural"
"","","","","","animation","174","951114","0.0-174.0","1920x1080","","3187.399999999907","17.46","img/238/3.5/1.5/bw/001.png","","","natural"
"","","","","","animation","175","953709","0.0-175.0","1920x1080","","2594.2999999998137","7.41","img/314/3.5/1/bw/001.png","","","natural"
"","","","","","animation","176","957930","0.0-176.0","1920x1080","","4219.700000000186","89.95","img/117/5.5/2/bw/001.png","","","natural"
"","","","","","animation","177","961650","0.0-177.0","1920x1080","","3719.100000000093","12.70","img/314/4/0.5/bw/001.png","","","natural"
"","","","","","animation","178","964561","0.0-178.0","1920x1080","","2910.899999999907","32.67","img/238/4.5/0.66667/bw/001.png","","","natural"
"","","","","","animation","179","966585","0.0-179.0","1920x1080","","2022.5","0","img/117/2.5/0.66667/bw/001.png","","","natural"
"","","","","","animation","180","968761","0.0-180.0","1920x1080","","2174.899999999907","29.63","img/314/4/0.66667/bw/001.png","","","natural"
"","","","","","animation","181","970958","0.0-181.0","1920x1080","","2196.2999999998137","1.19","img/117/2.5/2/bw/001.png","","","natural"
"","","","","","animation","182","974914","0.0-182.0","1920x1080","","3954.399999999907","62.30","img/238/4.5/1/bw/001.png","","","natural"
"","","","","","animation","183","976575","0.0-183.0","1920x1080","","1660.5","32","img/238/4/0.5/bw/001.png","","","natural"
"","","","","","animation","184","978602","0.0-184.0","1920x1080","","2025.6000000000931","8.33","img/117/3.5/0.5/bw/001.png","","","natural"
"","","","","","animation","185","981542","0.0-185.0","1920x1080","","2939.2000000001863","100","img/314/5.5/1/bw/001.png","","","natural"
"","","","","","animation","186","983975","0.0-186.0","1920x1080","","2432.100000000093","100","img/117/5.5/0.66667/bw/001.png","","","natural"
"","","","","","animation","187","986659","0.0-187.0","1920x1080","","2683","0","img/314/2.5/1/bw/001.png","","","natural"
"","","","","","animation","188","988930","0.0-188.0","1920x1080","","2269.600000000093","2.38","img/238/2.5/0.66667/bw/001.png","","","natural"
"","","","","","animation","189","993442","0.0-189.0","1920x1080","","4511.300000000279","100","img/238/5.5/2/bw/001.png","","","natural"
"","","","","","animation","190","998142","0.0-190.0","1920x1080","","4698.800000000279","73.28","img/238/5.5/0.5/bw/001.png","","","natural"
"","","","","","animation","191","1000698","0.0-191.0","1920x1080","","2554.600000000093","0.53","img/117/2.5/0.5/bw/001.png","","","natural"
"","","","","","animation","192","1004266","0.0-192.0","1920x1080","","3566.899999999907","88.62","img/117/5.5/1/bw/001.png","","","natural"
"","","","","","animation","193","1006361","0.0-193.0","1920x1080","","2094.600000000093","30.16","img/117/3.5/0.66667/bw/001.png","","","natural"
"","","","","","animation","194","1008308","0.0-194.0","1920x1080","","1946.1000000000931","14.02","img/314/3.5/1.5/bw/001.png","","","natural"
"","","","","","animation","195","1009979","0.0-195.0","1920x1080","","1670.3999999999069","7.41","img/314/4.5/0.66667/bw/001.png","","","natural"
"","","","","","animation","196","1011809","0.0-196.0","1920x1080","","1828","14","img/314/4/1.5/bw/001.png","","","natural"
"","","","","","animation","197","1013778","0.0-197.0","1920x1080","","1967","15","img/238/3.5/0.66667/bw/001.png","","","natural"
"","","","","","animation","198","1016810","0.0-198.0","1920x1080","","3030.7999999998137","94","img/238/5.5/0.66667/bw/001.png","","","natural"
"","","","","","animation","199","1021130","0.0-199.0","1920x1080","","4319","100","img/314/5.5/0.66667/bw/001.png","","","natural"
"","","","","","animation","200","1025498","0.0-200.0","1920x1080","","4366.799999999814","1.19","img/314/2.5/2/bw/001.png","","","natural"
"","","","","","animation","201","1028693","0.0-201.0","1920x1080","","3193.600000000093","0","img/314/2.5/0.5/bw/001.png","","","natural"
"","","","","","animation","202","1031066","0.0-202.0","1920x1080","","2372.600000000093","0","img/117/2.5/1/bw/001.png","","","natural"
"","","","","","animation","203","1033509","0.0-203.0","1920x1080","","2442.3000000002794","23.81","img/117/4/1/bw/001.png","","","natural"
"","","","","","animation","204","1035543","0.0-204.0","1920x1080","","2032.3999999999069","27.25","img/314/4.5/2/bw/001.png","","","natural"
"","","","","","animation","205","1037578","0.0-205.0","1920x1080","","2033.8999999999069","8.47","img/117/3.5/1.5/bw/001.png","","","natural"
"","","","","","animation","206","1040443","0.0-206.0","1920x1080","","2863.899999999907","28.44","img/238/4.5/2/bw/001.png","","","natural"
"","","","","","animation","207","1060778","0.0-207.0","1920x1080","","20333.600000000093","94","img/238/5.5/1/bw/001.png","","","natural"
"","","","","","animation","208","1068026","0.0-208.0","1920x1080","","7246.300000000279","0","img/238/2.5/1.5/bw/001.png","","","natural"
"","","","","","animation","209","1078976","0.0-209.0","1920x1080","","10948.5","25.13","img/117/4/2/bw/001.png","","","natural"
"","","","","","animation","210","1081714","0.0-210.0","1920x1080","","2737.2999999998137","2.51","img/117/2.5/1.5/bw/001.png","","","natural"
"","","","","","animation","211","1084109","0.0-211.0","1920x1080","","2394.2000000001863","10","img/117/4.5/1.5/bw/001.png","","","natural"
"","","","","","animation","212","1086226","0.0-212.0","1920x1080","","2115.2000000001863","100","img/314/5.5/2/bw/001.png","","","natural"
"","","","","","animation","213","1089034","0.0-213.0","1920x1080","","2807.2000000001863","10.19","img/238/4.5/1.5/bw/001.png","","","natural"
"","","","","","animation","214","1091002","0.0-214.0","1920x1080","","1967.3999999999069","8.99","img/238/3.5/0.5/bw/001.png","","","natural"
"","","","","","animation","215","1093066","0.0-215.0","1920x1080","","2063","6.08","img/238/4/0.66667/bw/001.png","","","natural"
"","","","","","animation","216","1095746","0.0-216.0","1920x1080","","2678.600000000093","0.79","img/314/2.5/1.5/bw/001.png","","","natural"
"","","","","","animation","217","1097946","0.0-217.0","1920x1080","","2198.899999999907","38.49","img/117/4.5/1/bw/001.png","","","natural"
"","","","","","animation","218","1107200","0.0-218.0","1920x1080","","9253.5","32.80","img/314/4.5/0.5/bw/001.png","","","natural"
"","","","","","animation","219","1108834","0.0-219.0","1920x1080","","1630","44.58","img/117/4.5/0.5/bw/001.png","","","natural"
"","","","","","animation","220","1111466","0.0-220.0","1920x1080","","2631.0999999996275","18.52","img/117/4/0.5/bw/001.png","","","natural"
"","","","","","animation","221","1124650","0.0-221.0","1920x1080","","13182.700000000186","18.92","img/117/3.5/2/bw/001.png","","","natural"
"","","","","","animation","222","1127059","0.0-222.0","1920x1080","","2408.2000000001863","17.46","img/314/3.5/2/bw/001.png","","","natural"
"","","","","","animation","223","1129298","0.0-223.0","1920x1080","","2237.399999999907","18","img/314/4.5/1/bw/001.png","","","natural"
"","","","","","animation","224","1130976","0.0-224.0","1920x1080","","1677.3999999999069","7.80","img/314/3.5/0.66667/bw/001.png","","","natural"
"","","","","","animation","225","1133127","0.0-225.0","1920x1080","","2149.5","61","img/117/5.5/0.5/bw/001.png","","","natural"
"","","","","","animation","226","1136451","0.0-226.0","1920x1080","","3321.399999999907","23.15","img/314/4.5/1.5/bw/001.png","","","natural"
"","","","","","animation","227","1139834","0.0-227.0","1920x1080","","3380.5","98","img/117/5.5/1.5/bw/001.png","","","natural"
"","","","","","animation","228","1142034","0.0-228.0","1920x1080","","2198.6999999997206","33.60","img/238/4/2/bw/001.png","","","natural"
"","","","","","animation","229","1144126","0.0-229.0","1920x1080","","2091.100000000093","20.77","img/117/4/1.5/bw/001.png","","","natural"
"","","","","","animation","230","1146543","0.0-230.0","1920x1080","","2415.5","0.13","img/238/2.5/1/bw/001.png","","","natural"
"","","","","","animation","231","1149082","0.0-231.0","1920x1080","","2537.4000000003725","0.53","img/314/4/1/bw/001.png","","","natural"
"","","","","","animation","232","1152776","0.0-232.0","1920x1080","","3693.2000000001863","14.95","img/238/4.5/0.5/bw/001.png","","","natural"
"","","","","","animation","233","1155409","0.0-233.0","1920x1080","","2632.2999999998137","17.06","img/117/4.5/0.66667/bw/001.png","","","natural"
"","","","","","animation","234","1158193","0.0-234.0","1920x1080","","2781.899999999907","4.50","img/238/4/1.5/bw/001.png","","","natural"
"","","","","","animation","235","1161098","0.0-235.0","1920x1080","","2900","79.50","img/314/5.5/0.5/bw/001.png","","","natural"
"","","","","","html-button-response","236","1181234","0.0-236.0","1920x1080","","20134.700000000186","","<div class=""intro"">You are about to view a new series of animations.<br><br></div><div class=""intro"">You will evaluate them based on a different descriptor.<br><br></div><div class=""intro"">Move the slider to indicate how <strong style=""text-transform:capitalize"">INTERESTING</strong> you find each animation.<br><br></div><div class=""intro"">0 = Least Interesting<br></div><div class=""intro"">1 = Most Interesting<br><br></div><div class=""intro"">Remember to use the <strong><em>entire range</em></strong> of the slider to make your ratings.<br></div><div class=""intro"">Please <strong><em>take your time</em></strong> and carefully consider each rating you make.<br><br></div>","0","",""
"","","","","","call-function","237","1181236","0.0-237.0","1920x1080","","","","","","",""
"","","","","","animation","238","1186066","0.0-238.0","1920x1080","","4829.5","35.85","img/314/3.5/1.5/bw/001.png","","","interesting"
"","","","","","animation","239","1188976","0.0-239.0","1920x1080","","2909.399999999907","40.08","img/117/4/0.5/bw/001.png","","","interesting"
"","","","","","animation","240","1191693","0.0-240.0","1920x1080","","2715.6999999997206","30.56","img/238/2.5/1/bw/001.png","","","interesting"
"","","","","","animation","241","1193843","0.0-241.0","1920x1080","","2148.7000000001863","30.16","img/314/3.5/1/bw/001.png","","","interesting"
"","","","","","animation","242","1195976","0.0-242.0","1920x1080","","2132.5","26.98","img/314/2.5/1/bw/001.png","","","interesting"
"","","","","","animation","243","1197809","0.0-243.0","1920x1080","","1831.8000000002794","45.11","img/117/4/1/bw/001.png","","","interesting"
"","","","","","animation","244","1200234","0.0-244.0","1920x1080","","2423.600000000093","100","img/314/5.5/1.5/bw/001.png","","","interesting"
"","","","","","animation","245","1202293","0.0-245.0","1920x1080","","2058.3000000002794","31.88","img/117/2.5/1/bw/001.png","","","interesting"
"","","","","","animation","246","1205060","0.0-246.0","1920x1080","","2765.5","99","img/117/5.5/0.5/bw/001.png","","","interesting"
"","","","","","animation","247","1207643","0.0-247.0","1920x1080","","2582","75.26","img/117/4.5/1.5/bw/001.png","","","interesting"
"","","","","","animation","248","1210293","0.0-248.0","1920x1080","","2649.2000000001863","58.20","img/238/4.5/0.5/bw/001.png","","","interesting"
"","","","","","animation","249","1213110","0.0-249.0","1920x1080","","2815.7000000001863","96","img/238/5.5/1/bw/001.png","","","interesting"
"","","","","","animation","250","1215326","0.0-250.0","1920x1080","","2215.600000000093","100","img/238/5.5/0.5/bw/001.png","","","interesting"
"","","","","","animation","251","1217726","0.0-251.0","1920x1080","","2399.2000000001863","100","img/238/5.5/2/bw/001.png","","","interesting"
"","","","","","animation","252","1220343","0.0-252.0","1920x1080","","2615.2999999998137","51.72","img/238/3.5/2/bw/001.png","","","interesting"
"","","","","","animation","253","1222545","0.0-253.0","1920x1080","","2201.5999999996275","85.58","img/314/5.5/0.5/bw/001.png","","","interesting"
"","","","","","animation","254","1225076","0.0-254.0","1920x1080","","2530","100","img/238/5.5/0.66667/bw/001.png","","","interesting"
"","","","","","animation","255","1226850","0.0-255.0","1920x1080","","1772.2000000001863","45.50","img/117/4/1.5/bw/001.png","","","interesting"
"","","","","","animation","256","1229130","0.0-256.0","1920x1080","","2279.100000000093","98","img/314/5.5/2/bw/001.png","","","interesting"
"","","","","","animation","257","1231298","0.0-257.0","1920x1080","","2166.7000000001863","34.13","img/117/2.5/2/bw/001.png","","","interesting"
"","","","","","animation","258","1233459","0.0-258.0","1920x1080","","2160.399999999907","57.80","img/117/4.5/1/bw/001.png","","","interesting"
"","","","","","animation","259","1237345","0.0-259.0","1920x1080","","3885.5","71.69","img/314/3.5/0.5/bw/001.png","","","interesting"
"","","","","","animation","260","1239626","0.0-260.0","1920x1080","","2280.2000000001863","50.79","img/117/3.5/1.5/bw/001.png","","","interesting"
"","","","","","animation","261","1241193","0.0-261.0","1920x1080","","1565.6000000000931","60.85","img/117/4/0.66667/bw/001.png","","","interesting"
"","","","","","animation","262","1245593","0.0-262.0","1920x1080","","4399.100000000093","100","img/314/5.5/1/bw/001.png","","","interesting"
"","","","","","animation","263","1248143","0.0-263.0","1920x1080","","2548.6999999997206","100","img/314/5.5/0.66667/bw/001.png","","","interesting"
"","","","","","animation","264","1250043","0.0-264.0","1920x1080","","1899.2000000001863","50.53","img/117/3.5/0.66667/bw/001.png","","","interesting"
"","","","","","animation","265","1251482","0.0-265.0","1920x1080","","1437.5","57.01","img/314/4/0.66667/bw/001.png","","","interesting"
"","","","","","animation","266","1253179","0.0-266.0","1920x1080","","1696.8999999999069","69.84","img/314/4.5/0.66667/bw/001.png","","","interesting"
"","","","","","animation","267","1255943","0.0-267.0","1920x1080","","2762.899999999907","36.38","img/314/2.5/0.66667/bw/001.png","","","interesting"
"","","","","","animation","268","1257626","0.0-268.0","1920x1080","","1682.0999999996275","37.30","img/314/2.5/0.5/bw/001.png","","","interesting"
"","","","","","animation","269","1259693","0.0-269.0","1920x1080","","2066","56.75","img/314/4.5/0.5/bw/001.png","","","interesting"
"","","","","","animation","270","1261560","0.0-270.0","1920x1080","","1865.7999999998137","63.10","img/238/4/1.5/bw/001.png","","","interesting"
"","","","","","animation","271","1263639","0.0-271.0","1920x1080","","2077.7999999998137","48.15","img/314/4/0.5/bw/001.png","","","interesting"
"","","","","","animation","272","1265361","0.0-272.0","1920x1080","","1720.7000000001863","35.71","img/117/3.5/2/bw/001.png","","","interesting"
"","","","","","animation","273","1267529","0.0-273.0","1920x1080","","2167.100000000093","61.90","img/314/4.5/2/bw/001.png","","","interesting"
"","","","","","animation","274","1269410","0.0-274.0","1920x1080","","1879.5","18.39","img/117/3.5/0.5/bw/001.png","","","interesting"
"","","","","","animation","275","1272945","0.0-275.0","1920x1080","","3534.8000000002794","16.67","img/238/3.5/0.66667/bw/001.png","","","interesting"
"","","","","","animation","276","1275713","0.0-276.0","1920x1080","","2767","59.79","img/117/4.5/2/bw/001.png","","","interesting"
"","","","","","animation","277","1278060","0.0-277.0","1920x1080","","2345.600000000093","91.53","img/117/5.5/1.5/bw/001.png","","","interesting"
"","","","","","animation","278","1280618","0.0-278.0","1920x1080","","2556.3000000002794","4.76","img/314/2.5/1.5/bw/001.png","","","interesting"
"","","","","","animation","279","1285497","0.0-279.0","1920x1080","","4878.300000000279","19.71","img/117/3.5/1/bw/001.png","","","interesting"
"","","","","","animation","280","1287761","0.0-280.0","1920x1080","","2261.7000000001863","28.70","img/117/4/2/bw/001.png","","","interesting"
"","","","","","animation","281","1290866","0.0-281.0","1920x1080","","3103.600000000093","50.13","img/238/4/0.66667/bw/001.png","","","interesting"
"","","","","","animation","282","1293594","0.0-282.0","1920x1080","","2726.8000000002794","86.64","img/117/5.5/0.66667/bw/001.png","","","interesting"
"","","","","","animation","283","1298593","0.0-283.0","1920x1080","","4998.699999999721","57.67","img/117/4.5/0.66667/bw/001.png","","","interesting"
"","","","","","animation","284","1301794","0.0-284.0","1920x1080","","3198","100","img/117/5.5/2/bw/001.png","","","interesting"
"","","","","","animation","285","1304266","0.0-285.0","1920x1080","","2470.899999999907","35.05","img/314/4/1/bw/001.png","","","interesting"
"","","","","","animation","286","1306577","0.0-286.0","1920x1080","","2310.2999999998137","26.85","img/238/3.5/1.5/bw/001.png","","","interesting"
"","","","","","animation","287","1308650","0.0-287.0","1920x1080","","2071.100000000093","47.75","img/238/4/2/bw/001.png","","","interesting"
"","","","","","animation","288","1311994","0.0-288.0","1920x1080","","3342.7999999998137","99","img/117/5.5/1/bw/001.png","","","interesting"
"","","","","","animation","289","1317177","0.0-289.0","1920x1080","","5182.200000000186","10.58","img/117/2.5/1.5/bw/001.png","","","interesting"
"","","","","","animation","290","1319377","0.0-290.0","1920x1080","","2198.399999999907","25","img/238/4/0.5/bw/001.png","","","interesting"
"","","","","","animation","291","1321543","0.0-291.0","1920x1080","","2164.899999999907","6.48","img/238/2.5/0.5/bw/001.png","","","interesting"
"","","","","","animation","292","1324249","0.0-292.0","1920x1080","","2705.0999999996275","20.37","img/238/3.5/1/bw/001.png","","","interesting"
"","","","","","animation","293","1326893","0.0-293.0","1920x1080","","2642.5","66.40","img/238/4.5/1/bw/001.png","","","interesting"
"","","","","","animation","294","1329927","0.0-294.0","1920x1080","","3032.7999999998137","24.21","img/117/2.5/0.5/bw/001.png","","","interesting"
"","","","","","animation","295","1333827","0.0-295.0","1920x1080","","3898.2999999998137","100","img/238/5.5/1.5/bw/001.png","","","interesting"
"","","","","","animation","296","1336594","0.0-296.0","1920x1080","","2765.3000000002794","25","img/238/2.5/2/bw/001.png","","","interesting"
"","","","","","animation","297","1339745","0.0-297.0","1920x1080","","3150.600000000093","53.44","img/117/4.5/0.5/bw/001.png","","","interesting"
"","","","","","animation","298","1343417","0.0-298.0","1920x1080","","3670.2999999998137","10.85","img/238/2.5/1.5/bw/001.png","","","interesting"
"","","","","","animation","299","1364180","0.0-299.0","1920x1080","","20761.399999999907","39.02","img/314/4.5/1.5/bw/001.png","","","interesting"
"","","","","","animation","300","1366834","0.0-300.0","1920x1080","","2652.399999999907","15.48","img/117/2.5/0.66667/bw/001.png","","","interesting"
"","","","","","animation","301","1390319","0.0-301.0","1920x1080","","23484.5","81.61","img/238/4.5/2/bw/001.png","","","interesting"
"","","","","","animation","302","1392722","0.0-302.0","1920x1080","","2401.7999999998137","56.88","img/238/4.5/1.5/bw/001.png","","","interesting"
"","","","","","animation","303","1395703","0.0-303.0","1920x1080","","2979.6999999997206","36.51","img/238/4.5/0.66667/bw/001.png","","","interesting"
"","","","","","animation","304","1398276","0.0-304.0","1920x1080","","2569.600000000093","28.31","img/238/3.5/0.5/bw/001.png","","","interesting"
"","","","","","animation","305","1399748","0.0-305.0","1920x1080","","1470","22.09","img/314/3.5/0.66667/bw/001.png","","","interesting"
"","","","","","animation","306","1401833","0.0-306.0","1920x1080","","2084.5","10.32","img/314/2.5/2/bw/001.png","","","interesting"
"","","","","","animation","307","1404093","0.0-307.0","1920x1080","","2258.7999999998137","28.17","img/314/3.5/2/bw/001.png","","","interesting"
"","","","","","animation","308","1405849","0.0-308.0","1920x1080","","1754.7999999998137","33.99","img/314/4/2/bw/001.png","","","interesting"
"","","","","","animation","309","1407865","0.0-309.0","1920x1080","","2014.3000000002794","21.16","img/238/2.5/0.66667/bw/001.png","","","interesting"
"","","","","","animation","310","1409626","0.0-310.0","1920x1080","","1759.7000000001863","26.72","img/314/4.5/1/bw/001.png","","","interesting"
"","","","","","animation","311","1411229","0.0-311.0","1920x1080","","1601.3000000002794","41.14","img/314/4/1.5/bw/001.png","","","interesting"
"","","","","","animation","312","1412677","0.0-312.0","1920x1080","","1447.1000000000931","42.20","img/238/4/1/bw/001.png","","","interesting"
"","","","","","html-button-response","313","1431100","0.0-313.0","1920x1080","","18422","","<div class=""intro"">You are about to view a new series of animations.<br><br></div><div class=""intro"">You will evaluate them based on a different descriptor.<br><br></div><div class=""intro"">Move the slider to indicate how <strong style=""text-transform:capitalize"">RELAXING</strong> you find each animation.<br><br></div><div class=""intro"">0 = Least Relaxing<br></div><div class=""intro"">1 = Most Relaxing<br><br></div><div class=""intro"">Remember to use the <strong><em>entire range</em></strong> of the slider to make your ratings.<br></div><div class=""intro"">Please <strong><em>take your time</em></strong> and carefully consider each rating you make.<br><br></div>","0","",""
"","","","","","call-function","314","1431103","0.0-314.0","1920x1080","","","","","","",""
"","","","","","animation","315","1434260","0.0-315.0","1920x1080","","3156.5","0.53","img/314/2.5/1.5/bw/001.png","","","relaxing"
"","","","","","animation","316","1436361","0.0-316.0","1920x1080","","2097.1999999997206","15.08","img/238/4.5/1/bw/001.png","","","relaxing"
"","","","","","animation","317","1439027","0.0-317.0","1920x1080","","2665.1999999997206","19.71","img/238/4.5/0.66667/bw/001.png","","","relaxing"
"","","","","","animation","318","1440793","0.0-318.0","1920x1080","","1764.7999999998137","31.08","img/117/3.5/1.5/bw/001.png","","","relaxing"
"","","","","","animation","319","1443433","0.0-319.0","1920x1080","","2638.899999999907","0.00","img/314/2.5/1/bw/001.png","","","relaxing"
"","","","","","animation","320","1446230","0.0-320.0","1920x1080","","2795.600000000093","18.52","img/117/4/2/bw/001.png","","","relaxing"
"","","","","","animation","321","1448010","0.0-321.0","1920x1080","","1778.5999999996275","25.40","img/238/4/1/bw/001.png","","","relaxing"
"","","","","","animation","322","1449827","0.0-322.0","1920x1080","","1816","13.62","img/117/4.5/0.66667/bw/001.png","","","relaxing"
"","","","","","animation","323","1451865","0.0-323.0","1920x1080","","2036.8999999999069","3.04","img/238/4/0.5/bw/001.png","","","relaxing"
"","","","","","animation","324","1454368","0.0-324.0","1920x1080","","2501.2999999998137","72.09","img/314/5.5/1/bw/001.png","","","relaxing"
"","","","","","animation","325","1456360","0.0-325.0","1920x1080","","1991.2000000001863","32.54","img/314/4/0.66667/bw/001.png","","","relaxing"
"","","","","","animation","326","1458838","0.0-326.0","1920x1080","","2476","22.75","img/238/4/2/bw/001.png","","","relaxing"
"","","","","","animation","327","1462044","0.0-327.0","1920x1080","","3205.100000000093","100","img/117/5.5/1.5/bw/001.png","","","relaxing"
"","","","","","animation","328","1464561","0.0-328.0","1920x1080","","2512.7999999998137","0.79","img/117/2.5/0.66667/bw/001.png","","","relaxing"
"","","","","","animation","329","1466760","0.0-329.0","1920x1080","","2198.2999999998137","0.93","img/314/2.5/2/bw/001.png","","","relaxing"
"","","","","","animation","330","1468929","0.0-330.0","1920x1080","","2167.399999999907","31.22","img/117/4.5/2/bw/001.png","","","relaxing"
"","","","","","animation","331","1471410","0.0-331.0","1920x1080","","2480.100000000093","19.05","img/314/4.5/1.5/bw/001.png","","","relaxing"
"","","","","","animation","332","1473594","0.0-332.0","1920x1080","","2180","24.47","img/117/5.5/0.5/bw/001.png","","","relaxing"
"","","","","","animation","333","1476065","0.0-333.0","1920x1080","","2469.7999999998137","0.53","img/238/2.5/2/bw/001.png","","","relaxing"
"","","","","","animation","334","1478110","0.0-334.0","1920x1080","","2044","0.13","img/238/2.5/1/bw/001.png","","","relaxing"
"","","","","","animation","335","1480297","0.0-335.0","1920x1080","","2185.5","17.59","img/314/4.5/2/bw/001.png","","","relaxing"
"","","","","","animation","336","1482227","0.0-336.0","1920x1080","","1927.7999999998137","30.82","img/238/4/0.66667/bw/001.png","","","relaxing"
"","","","","","animation","337","1484329","0.0-337.0","1920x1080","","2100.7999999998137","21.83","img/117/4/0.66667/bw/001.png","","","relaxing"
"","","","","","animation","338","1487745","0.0-338.0","1920x1080","","3414.7999999998137","100","img/314/5.5/0.66667/bw/001.png","","","relaxing"
"","","","","","animation","339","1489439","0.0-339.0","1920x1080","","1692.9000000003725","37.43","img/314/4.5/0.66667/bw/001.png","","","relaxing"
"","","","","","animation","340","1491090","0.0-340.0","1920x1080","","1649.5","30.69","img/117/4/1.5/bw/001.png","","","relaxing"
"","","","","","animation","341","1494112","0.0-341.0","1920x1080","","3021.5","98","img/117/5.5/2/bw/001.png","","","relaxing"
"","","","","","animation","342","1497610","0.0-342.0","1920x1080","","3496.5","36.11","img/238/4.5/0.5/bw/001.png","","","relaxing"
"","","","","","animation","343","1626612","0.0-343.0","1920x1080","","128999.30000000028","11.90","img/117/3.5/0.5/bw/001.png","","","relaxing"
"","","","","","animation","344","1646097","0.0-344.0","1920x1080","","19484.299999999814","9.66","img/117/3.5/2/bw/001.png","","","relaxing"
"","","","","","animation","345","1664175","0.0-345.0","1920x1080","","18076.600000000093","82.94","img/238/5.5/0.5/bw/001.png","","","relaxing"
"","","","","","animation","346","1666697","0.0-346.0","1920x1080","","2520.6999999997206","17.86","img/314/3.5/1.5/bw/001.png","","","relaxing"
"","","","","","animation","347","1669753","0.0-347.0","1920x1080","","3053.7999999998137","6.35","img/314/3.5/1/bw/001.png","","","relaxing"
"","","","","","animation","348","1671913","0.0-348.0","1920x1080","","2159.2000000001863","3.97","img/314/4/1/bw/001.png","","","relaxing"
"","","","","","animation","349","1673728","0.0-349.0","1920x1080","","1812.7000000001863","8.33","img/117/4.5/1/bw/001.png","","","relaxing"
"","","","","","animation","350","1676082","0.0-350.0","1920x1080","","2352.899999999907","81.22","img/117/5.5/1/bw/001.png","","","relaxing"
"","","","","","animation","351","1678230","0.0-351.0","1920x1080","","2147.1999999997206","32.28","img/238/4.5/2/bw/001.png","","","relaxing"
"","","","","","animation","352","1680314","0.0-352.0","1920x1080","","2082","2.51","img/117/2.5/1/bw/001.png","","","relaxing"
"","","","","","animation","353","1682036","0.0-353.0","1920x1080","","1721.5","0","img/238/3.5/2/bw/001.png","","","relaxing"
"","","","","","animation","354","1683437","0.0-354.0","1920x1080","","1399.7999999998137","5.03","img/238/2.5/0.66667/bw/001.png","","","relaxing"
"","","","","","animation","355","1686498","0.0-355.0","1920x1080","","3059.100000000093","28.31","img/117/4.5/1.5/bw/001.png","","","relaxing"
"","","","","","animation","356","1688697","0.0-356.0","1920x1080","","2198.7000000001863","0.79","img/314/2.5/0.66667/bw/001.png","","","relaxing"
"","","","","","animation","357","1690361","0.0-357.0","1920x1080","","1662.3999999999069","1.59","img/238/3.5/1.5/bw/001.png","","","relaxing"
"","","","","","animation","358","1694211","0.0-358.0","1920x1080","","3849.0999999996275","0","img/117/2.5/2/bw/001.png","","","relaxing"
"","","","","","animation","359","1697090","0.0-359.0","1920x1080","","2877.5","13.62","img/238/3.5/0.66667/bw/001.png","","","relaxing"
"","","","","","animation","360","1700261","0.0-360.0","1920x1080","","3168.2999999998137","1.32","img/117/2.5/1.5/bw/001.png","","","relaxing"
"","","","","","animation","361","1702178","0.0-361.0","1920x1080","","1915.7000000001863","8","img/314/4/0.5/bw/001.png","","","relaxing"
"","","","","","animation","362","1704462","0.0-362.0","1920x1080","","2282.7999999998137","2.38","img/238/3.5/0.5/bw/001.png","","","relaxing"
"","","","","","animation","363","1707478","0.0-363.0","1920x1080","","3014.600000000093","38.36","img/314/4.5/1/bw/001.png","","","relaxing"
"","","","","","animation","364","1711794","0.0-364.0","1920x1080","","4315.299999999814","100","img/238/5.5/2/bw/001.png","","","relaxing"
"","","","","","animation","365","1714544","0.0-365.0","1920x1080","","2747.8000000002794","0.53","img/314/2.5/0.5/bw/001.png","","","relaxing"
"","","","","","animation","366","1716178","0.0-366.0","1920x1080","","1632.2000000001863","13.23","img/117/4/1/bw/001.png","","","relaxing"
"","","","","","animation","367","1718128","0.0-367.0","1920x1080","","1948.8999999999069","3.31","img/238/2.5/0.5/bw/001.png","","","relaxing"
"","","","","","animation","368","1720661","0.0-368.0","1920x1080","","2531.6999999997206","25.40","img/117/4.5/0.5/bw/001.png","","","relaxing"
"","","","","","animation","369","1723462","0.0-369.0","1920x1080","","2799.399999999907","45.63","img/314/3.5/2/bw/001.png","","","relaxing"
"","","","","","animation","370","1725866","0.0-370.0","1920x1080","","2401.9000000003725","75.79","img/238/5.5/0.66667/bw/001.png","","","relaxing"
"","","","","","animation","371","1728344","0.0-371.0","1920x1080","","2476.100000000093","75.40","img/314/5.5/2/bw/001.png","","","relaxing"
"","","","","","animation","372","1730411","0.0-372.0","1920x1080","","2065","86.77","img/314/5.5/0.5/bw/001.png","","","relaxing"
"","","","","","animation","373","1800865","0.0-373.0","1920x1080","","70452.8999999999","14.81","img/117/2.5/0.5/bw/001.png","","","relaxing"
"","","","","","animation","374","1802647","0.0-374.0","1920x1080","","1779.8999999999069","23.15","img/314/4/2/bw/001.png","","","relaxing"
"","","","","","animation","375","1834155","0.0-375.0","1920x1080","","31504.899999999907","99","img/238/5.5/1/bw/001.png","","","relaxing"
"","","","","","animation","376","1836328","0.0-376.0","1920x1080","","2167.7999999998137","33.07","img/238/4.5/1.5/bw/001.png","","","relaxing"
"","","","","","animation","377","1837948","0.0-377.0","1920x1080","","1619.0999999996275","16.14","img/117/4/0.5/bw/001.png","","","relaxing"
"","","","","","animation","378","1840275","0.0-378.0","1920x1080","","2325.399999999907","7.28","img/117/3.5/0.66667/bw/001.png","","","relaxing"
"","","","","","animation","379","1842134","0.0-379.0","1920x1080","","1858.2000000001863","7.67","img/238/3.5/1/bw/001.png","","","relaxing"
"","","","","","animation","380","1844114","0.0-380.0","1920x1080","","1978.1999999997206","0.93","img/238/2.5/1.5/bw/001.png","","","relaxing"
"","","","","","animation","381","1845954","0.0-381.0","1920x1080","","1839.2999999998137","3","img/117/3.5/1/bw/001.png","","","relaxing"
"","","","","","animation","382","1847562","0.0-382.0","1920x1080","","1606.0999999996275","14.02","img/314/3.5/0.66667/bw/001.png","","","relaxing"
"","","","","","animation","383","1849730","0.0-383.0","1920x1080","","2166.6999999997206","99","img/314/5.5/1.5/bw/001.png","","","relaxing"
"","","","","","animation","384","1852212","0.0-384.0","1920x1080","","2480.7999999998137","100","img/238/5.5/1.5/bw/001.png","","","relaxing"
"","","","","","animation","385","1853638","0.0-385.0","1920x1080","","1424.6000000000931","21.03","img/314/3.5/0.5/bw/001.png","","","relaxing"
"","","","","","animation","386","1855220","0.0-386.0","1920x1080","","1581.6000000000931","79.89","img/117/5.5/0.66667/bw/001.png","","","relaxing"
"","","","","","animation","387","1857511","0.0-387.0","1920x1080","","2290","25.26","img/238/4/1.5/bw/001.png","","","relaxing"
"","","","","","animation","388","1859428","0.0-388.0","1920x1080","","1915.6000000000931","30.82","img/314/4.5/0.5/bw/001.png","","","relaxing"
"","","","","","animation","389","1861628","0.0-389.0","1920x1080","","2198.899999999907","14.29","img/314/4/1.5/bw/001.png","","","relaxing"
"","","","","","html-button-response","390","1890421","0.0-390.0","1920x1080","","28791.399999999907","","<strong>Study Debriefing</strong><br><p class=""debrief""><strong>Background:</strong> The patterns you rated are called <em>fractals</em>. The term fractal describes a class of irregular curves or shapes for which any suitably chosen part is similar in shape to a given larger or smaller part when magnified or reduced to the same size. Fractal properties are found throughout the natural and manmade world. The series of animations you saw today displayed animated fractal patterns of a varying complexity.</p><p class=""debrief""><strong>Purpose of this study:</strong> We hope to better understand how the perception of static fractals differs from the perception of animated fractals, and how the speed of the animated patterns influences people&apos;s perception of them. Fractals allow us to study the perception of aesthetic properties (e.g. the perceived level of beauty in an image) without using recognizable content, which makes them an excellent tool for studying abstract aesthetic judgement.</p><p class=""debrief""><strong>Your part:</strong> Your participation has helped us to further understand how humans perceive these patterns across different levels of speed and complexity. This research with allow us to better understand how the visual system and brain process our ever-changing visual environments.<p class=""debrief""><strong>Feedback and Further information:</strong> If you have additional questions about this study, please feel free to ask the researcher, Nathan Gonzales-Hess at nhess @ uoregon.edu. If you have any questions concerning your rights as a research participant, please contact Research Compliance Services, 5237 University of Oregon, Eugene, OR 97403, 541-346-2510, or email researchCompliance @ uoregon.edu. You can also email the Human Subjects Coordinator for psychology and linguistics research at hscoord @ uoregon.edu. ","0","",""
"","","","","","html-button-response","391","2187496","0.0-391.0","1920x1080","","297069.09999999986","","Thank you for participating in this study. <br>Please click below to finish the experiment and submit your responses.<br><br>","0","",""
"true","","","","","fullscreen","392","2188523","0.0-392.0","1920x1080","14:0 20/5/2022","","","","","",""
