"success","timeout","failed_images","failed_audio","failed_video","trial_type","trial_index","time_elapsed","internal_node_id","resolution","timeStamp","rt","response","stimulus","button_pressed","value","descriptor"
"true","false","[]","[]","[]","preload","0","35696","0.0-0.0","1920x1080","","","","","","",""
"true","false","[]","[]","[]","preload","1","70363","0.0-1.0","1920x1080","","","","","","",""
"true","false","[]","[]","[]","preload","2","107091","0.0-2.0","1920x1080","","","","","","",""
"true","","","","","fullscreen","3","111511","0.0-3.0","1920x1080","11:32 27/5/2022","","","","","",""
"","","","","","survey-html-form","4","123982","0.0-4.0","1920x1080","","12469.100000023842","{""age"":""19"",""gender"":""Female""}","","","",""
"","","","","","html-button-response","5","172605","0.0-5.0","1920x1080","","48622.19999998808","","<div class=""complex"">You are going to see a series of animations.<br><br></div><div class=""complex"">Move the slider to indicate how <strong style=""text-transform:capitalize"">COMPLEX</strong> you find each animation.<br><br></div><div class=""complex"">0 = Least Complex<br></div><div class=""complex"">1 = Most Complex<br><br></div><div class=""complex"">Remember to use the <strong><em>entire range</em></strong> of the slider to make your ratings.<br></div><div class=""complex"">Please <strong><em>take your time</em></strong> and carefully consider each rating you make.<br><br></div><div class=""complex"">The study has five sections and will take about 45 minutes to complete.<br><br></div>","0","",""
"","","","","","call-function","6","172605","0.0-6.0","1920x1080","","","","","","",""
"","","","","","animation","7","183438","0.0-7.0","1920x1080","","10830.600000023842","2.12","img/314/3.5/0.66667/bw/001.png","","","complex"
"","","","","","animation","8","186942","0.0-8.0","1920x1080","","3502.100000023842","11","img/117/4/2/bw/001.png","","","complex"
"","","","","","animation","9","192749","0.0-9.0","1920x1080","","5806.399999976158","42.59","img/314/2.5/1.5/bw/001.png","","","complex"
"","","","","","animation","10","197461","0.0-10.0","1920x1080","","4711","8.47","img/117/4.5/1.5/bw/001.png","","","complex"
"","","","","","animation","11","201285","0.0-11.0","1920x1080","","3823.199999988079","2.12","img/238/4.5/1/bw/001.png","","","complex"
"","","","","","animation","12","204261","0.0-12.0","1920x1080","","2974.699999988079","38.76","img/117/2.5/1.5/bw/001.png","","","complex"
"","","","","","animation","13","207789","0.0-13.0","1920x1080","","3527.399999976158","32.41","img/117/2.5/0.5/bw/001.png","","","complex"
"","","","","","animation","14","211661","0.0-14.0","1920x1080","","3870.699999988079","28.57","img/117/3.5/2/bw/001.png","","","complex"
"","","","","","animation","15","215245","0.0-15.0","1920x1080","","3583.399999976158","2.51","img/238/5.5/2/bw/001.png","","","complex"
"","","","","","animation","16","217310","0.0-16.0","1920x1080","","2064.600000023842","31.22","img/117/3.5/0.5/bw/001.png","","","complex"
"","","","","","animation","17","221294","0.0-17.0","1920x1080","","3982.699999988079","14.42","img/314/4.5/0.66667/bw/001.png","","","complex"
"","","","","","animation","18","225238","0.0-18.0","1920x1080","","3942.800000011921","27.65","img/314/3.5/0.5/bw/001.png","","","complex"
"","","","","","animation","19","227837","0.0-19.0","1920x1080","","2599","11.77","img/314/4.5/1/bw/001.png","","","complex"
"","","","","","animation","20","231413","0.0-20.0","1920x1080","","3574.7000000476837","67.72","img/117/2.5/1/bw/001.png","","","complex"
"","","","","","animation","21","235461","0.0-21.0","1920x1080","","4047.100000023842","27.91","img/238/4/0.66667/bw/001.png","","","complex"
"","","","","","animation","22","238549","0.0-22.0","1920x1080","","3087.400000035763","35.05","img/314/3.5/2/bw/001.png","","","complex"
"","","","","","animation","23","242685","0.0-23.0","1920x1080","","4135.700000047684","11.51","img/117/4.5/2/bw/001.png","","","complex"
"","","","","","animation","24","247101","0.0-24.0","1920x1080","","4414.899999976158","44.58","img/117/3.5/1.5/bw/001.png","","","complex"
"","","","","","animation","25","253989","0.0-25.0","1920x1080","","6887.600000023842","0","img/117/5.5/0.66667/bw/001.png","","","complex"
"","","","","","animation","26","256917","0.0-26.0","1920x1080","","2927","26.59","img/238/4.5/0.66667/bw/001.png","","","complex"
"","","","","","animation","27","260213","0.0-27.0","1920x1080","","3295","32.14","img/238/4/2/bw/001.png","","","complex"
"","","","","","animation","28","262325","0.0-28.0","1920x1080","","2111.600000023842","52.65","img/314/3.5/1/bw/001.png","","","complex"
"","","","","","animation","29","265094","0.0-29.0","1920x1080","","2767.899999976158","88.76","img/238/2.5/1/bw/001.png","","","complex"
"","","","","","animation","30","267549","0.0-30.0","1920x1080","","2454.199999988079","94.97","img/314/2.5/2/bw/001.png","","","complex"
"","","","","","animation","31","270789","0.0-31.0","1920x1080","","3239.5","3.31","img/238/4.5/1.5/bw/001.png","","","complex"
"","","","","","animation","32","273197","0.0-32.0","1920x1080","","2406.600000023842","38.76","img/117/4/0.5/bw/001.png","","","complex"
"","","","","","animation","33","276045","0.0-33.0","1920x1080","","2847.900000035763","28.44","img/117/4/0.66667/bw/001.png","","","complex"
"","","","","","animation","34","277997","0.0-34.0","1920x1080","","1950.8999999761581","41.93","img/117/3.5/0.66667/bw/001.png","","","complex"
"","","","","","animation","35","280277","0.0-35.0","1920x1080","","2279.100000023842","41.27","img/238/3.5/2/bw/001.png","","","complex"
"","","","","","animation","36","283397","0.0-36.0","1920x1080","","3119.599999964237","92.33","img/238/2.5/0.66667/bw/001.png","","","complex"
"","","","","","animation","37","285493","0.0-37.0","1920x1080","","2095.399999976158","17.20","img/117/4/1/bw/001.png","","","complex"
"","","","","","animation","38","288125","0.0-38.0","1920x1080","","2631","22.75","img/238/3.5/1.5/bw/001.png","","","complex"
"","","","","","animation","39","289845","0.0-39.0","1920x1080","","1719.5999999642372","32.54","img/117/4.5/0.5/bw/001.png","","","complex"
"","","","","","animation","40","294310","0.0-40.0","1920x1080","","4464.100000023842","34.26","img/314/4.5/0.5/bw/001.png","","","complex"
"","","","","","animation","41","298317","0.0-41.0","1920x1080","","4006.400000035763","98","img/117/2.5/0.66667/bw/001.png","","","complex"
"","","","","","animation","42","300997","0.0-42.0","1920x1080","","2679.400000035763","41.80","img/314/4/0.5/bw/001.png","","","complex"
"","","","","","animation","43","304861","0.0-43.0","1920x1080","","3863.199999988079","96","img/238/2.5/1.5/bw/001.png","","","complex"
"","","","","","animation","44","311517","0.0-44.0","1920x1080","","6655.400000035763","0","img/314/5.5/1/bw/001.png","","","complex"
"","","","","","animation","45","314077","0.0-45.0","1920x1080","","2559.2000000476837","97","img/314/2.5/0.5/bw/001.png","","","complex"
"","","","","","animation","46","318653","0.0-46.0","1920x1080","","4575.300000011921","45","img/314/4/0.66667/bw/001.png","","","complex"
"","","","","","animation","47","321333","0.0-47.0","1920x1080","","2679.400000035763","54.10","img/238/4/0.5/bw/001.png","","","complex"
"","","","","","animation","48","326678","0.0-48.0","1920x1080","","5344.300000011921","0.93","img/238/5.5/1/bw/001.png","","","complex"
"","","","","","animation","49","330053","0.0-49.0","1920x1080","","3374.600000023842","100","img/117/2.5/2/bw/001.png","","","complex"
"","","","","","animation","50","332728","0.0-50.0","1920x1080","","2673.400000035763","17.86","img/117/5.5/1.5/bw/001.png","","","complex"
"","","","","","animation","51","337517","0.0-51.0","1920x1080","","4788.5","97","img/314/2.5/0.66667/bw/001.png","","","complex"
"","","","","","animation","52","341029","0.0-52.0","1920x1080","","3511.400000035763","3.57","img/117/5.5/1/bw/001.png","","","complex"
"","","","","","animation","53","343549","0.0-53.0","1920x1080","","2518.699999988079","27.91","img/314/4/1.5/bw/001.png","","","complex"
"","","","","","animation","54","346830","0.0-54.0","1920x1080","","3279.5","99","img/238/2.5/2/bw/001.png","","","complex"
"","","","","","animation","55","351005","0.0-55.0","1920x1080","","4174.600000023842","1.19","img/314/5.5/1.5/bw/001.png","","","complex"
"","","","","","animation","56","354927","0.0-56.0","1920x1080","","3920.800000011921","2.12","img/314/5.5/0.5/bw/001.png","","","complex"
"","","","","","animation","57","357413","0.0-57.0","1920x1080","","2484.699999988079","20.11","img/117/3.5/1/bw/001.png","","","complex"
"","","","","","animation","58","361099","0.0-58.0","1920x1080","","3703.399999976158","10.32","img/117/5.5/2/bw/001.png","","","complex"
"","","","","","animation","59","365971","0.0-59.0","1920x1080","","4871.199999988079","1.59","img/238/5.5/0.66667/bw/001.png","","","complex"
"","","","","","animation","60","369315","0.0-60.0","1920x1080","","3342.7999999523163","3.04","img/238/5.5/1.5/bw/001.png","","","complex"
"","","","","","animation","61","372579","0.0-61.0","1920x1080","","3262.699999988079","4.50","img/314/5.5/2/bw/001.png","","","complex"
"","","","","","animation","62","375187","0.0-62.0","1920x1080","","2607.099999964237","12.30","img/314/4/1/bw/001.png","","","complex"
"","","","","","animation","63","378763","0.0-63.0","1920x1080","","3575.100000023842","2","img/238/5.5/0.5/bw/001.png","","","complex"
"","","","","","animation","64","381187","0.0-64.0","1920x1080","","2423.100000023842","98","img/314/2.5/1/bw/001.png","","","complex"
"","","","","","animation","65","384451","0.0-65.0","1920x1080","","3263.099999964237","72.09","img/238/3.5/0.5/bw/001.png","","","complex"
"","","","","","animation","66","387979","0.0-66.0","1920x1080","","3526.400000035763","57.28","img/314/4.5/2/bw/001.png","","","complex"
"","","","","","animation","67","390228","0.0-67.0","1920x1080","","2248.600000023842","65.08","img/117/4/1.5/bw/001.png","","","complex"
"","","","","","animation","68","395019","0.0-68.0","1920x1080","","4789.5","29","img/117/4.5/0.66667/bw/001.png","","","complex"
"","","","","","animation","69","397979","0.0-69.0","1920x1080","","2958.599999964237","37.30","img/314/4.5/1.5/bw/001.png","","","complex"
"","","","","","animation","70","400894","0.0-70.0","1920x1080","","2914.199999988079","100","img/238/2.5/0.5/bw/001.png","","","complex"
"","","","","","animation","71","403403","0.0-71.0","1920x1080","","2508.100000023842","91.01","img/314/3.5/1.5/bw/001.png","","","complex"
"","","","","","animation","72","407227","0.0-72.0","1920x1080","","3822.699999988079","75.40","img/238/3.5/0.66667/bw/001.png","","","complex"
"","","","","","animation","73","412460","0.0-73.0","1920x1080","","5232.300000011921","77.65","img/238/3.5/1/bw/001.png","","","complex"
"","","","","","animation","74","415445","0.0-74.0","1920x1080","","2983.599999964237","76.72","img/238/4/1.5/bw/001.png","","","complex"
"","","","","","animation","75","418177","0.0-75.0","1920x1080","","2749.600000023842","1.72","img/314/5.5/0.66667/bw/001.png","","","complex"
"","","","","","animation","76","421043","0.0-76.0","1920x1080","","2864.800000011921","21.56","img/238/4.5/0.5/bw/001.png","","","complex"
"","","","","","animation","77","425113","0.0-77.0","1920x1080","","4069","35.32","img/314/4/2/bw/001.png","","","complex"
"","","","","","animation","78","427441","0.0-78.0","1920x1080","","2327.600000023842","33.47","img/117/4.5/1/bw/001.png","","","complex"
"","","","","","animation","79","430585","0.0-79.0","1920x1080","","3142.599999964237","3.70","img/117/5.5/0.5/bw/001.png","","","complex"
"","","","","","animation","80","433881","0.0-80.0","1920x1080","","3295.2000000476837","58.73","img/238/4/1/bw/001.png","","","complex"
"","","","","","animation","81","436529","0.0-81.0","1920x1080","","2646.699999988079","56.48","img/238/4.5/2/bw/001.png","","","complex"
"","","","","","html-button-response","82","455538","0.0-82.0","1920x1080","","19007.80000001192","","<div class=""intro"">You are about to view a new series of animations.<br><br></div><div class=""intro"">You will evaluate them based on a different descriptor.<br><br></div><div class=""intro"">Move the slider to indicate how <strong style=""text-transform:capitalize"">INTERESTING</strong> you find each animation.<br><br></div><div class=""intro"">0 = Least Interesting<br></div><div class=""intro"">1 = Most Interesting<br><br></div><div class=""intro"">Remember to use the <strong><em>entire range</em></strong> of the slider to make your ratings.<br></div><div class=""intro"">Please <strong><em>take your time</em></strong> and carefully consider each rating you make.<br><br></div>","0","",""
"","","","","","call-function","83","455538","0.0-83.0","1920x1080","","","","","","",""
"","","","","","animation","84","464025","0.0-84.0","1920x1080","","8486.199999988079","65.61","img/314/2.5/2/bw/001.png","","","interesting"
"","","","","","animation","85","467681","0.0-85.0","1920x1080","","3655","4.63","img/117/2.5/0.66667/bw/001.png","","","interesting"
"","","","","","animation","86","473345","0.0-86.0","1920x1080","","5662.600000023842","79","img/117/5.5/0.66667/bw/001.png","","","interesting"
"","","","","","animation","87","477385","0.0-87.0","1920x1080","","4039.400000035763","92.20","img/238/5.5/0.66667/bw/001.png","","","interesting"
"","","","","","animation","88","481703","0.0-88.0","1920x1080","","4334.699999988079","32.28","img/314/4/1.5/bw/001.png","","","interesting"
"","","","","","animation","89","484674","0.0-89.0","1920x1080","","2970.199999988079","12.30","img/117/3.5/0.66667/bw/001.png","","","interesting"
"","","","","","animation","90","489103","0.0-90.0","1920x1080","","4428.300000011921","30.16","img/314/4.5/0.5/bw/001.png","","","interesting"
"","","","","","animation","91","492999","0.0-91.0","1920x1080","","3894.600000023842","23.41","img/314/3.5/0.5/bw/001.png","","","interesting"
"","","","","","animation","92","495824","0.0-92.0","1920x1080","","2823.899999976158","21.43","img/314/4/0.5/bw/001.png","","","interesting"
"","","","","","animation","93","500367","0.0-93.0","1920x1080","","4542","28.31","img/314/2.5/1.5/bw/001.png","","","interesting"
"","","","","","animation","94","504935","0.0-94.0","1920x1080","","4566.5","11","img/314/4/1/bw/001.png","","","interesting"
"","","","","","animation","95","507535","0.0-95.0","1920x1080","","2599.100000023842","8.99","img/117/4/1/bw/001.png","","","interesting"
"","","","","","animation","96","510079","0.0-96.0","1920x1080","","2542.699999988079","11.64","img/117/4.5/1.5/bw/001.png","","","interesting"
"","","","","","animation","97","516015","0.0-97.0","1920x1080","","5935","65.87","img/238/4.5/0.66667/bw/001.png","","","interesting"
"","","","","","animation","98","520063","0.0-98.0","1920x1080","","4046.099999964237","6.48","img/238/2.5/2/bw/001.png","","","interesting"
"","","","","","animation","99","525057","0.0-99.0","1920x1080","","4992.399999976158","19.97","img/117/3.5/1.5/bw/001.png","","","interesting"
"","","","","","animation","100","527641","0.0-100.0","1920x1080","","2583.699999988079","21.16","img/238/4/0.66667/bw/001.png","","","interesting"
"","","","","","animation","101","532890","0.0-101.0","1920x1080","","5248.299999952316","94.18","img/238/5.5/2/bw/001.png","","","interesting"
"","","","","","animation","102","536726","0.0-102.0","1920x1080","","3834.099999964237","0","img/238/2.5/0.5/bw/001.png","","","interesting"
"","","","","","animation","103","540253","0.0-103.0","1920x1080","","3543.199999988079","7","img/238/2.5/1.5/bw/001.png","","","interesting"
"","","","","","animation","104","544829","0.0-104.0","1920x1080","","4575.100000023842","14.42","img/117/4/0.66667/bw/001.png","","","interesting"
"","","","","","animation","105","548749","0.0-105.0","1920x1080","","3918.699999988079","35.98","img/238/4.5/2/bw/001.png","","","interesting"
"","","","","","animation","106","551156","0.0-106.0","1920x1080","","2406.600000023842","3.70","img/314/2.5/0.5/bw/001.png","","","interesting"
"","","","","","animation","107","558413","0.0-107.0","1920x1080","","7255.599999964237","98","img/238/5.5/1/bw/001.png","","","interesting"
"","","","","","animation","108","561165","0.0-108.0","1920x1080","","2751.099999964237","21.43","img/314/3.5/1.5/bw/001.png","","","interesting"
"","","","","","animation","109","564039","0.0-109.0","1920x1080","","2873.699999988079","16.01","img/314/4.5/1.5/bw/001.png","","","interesting"
"","","","","","animation","110","566413","0.0-110.0","1920x1080","","2372.5","23.15","img/117/4/1.5/bw/001.png","","","interesting"
"","","","","","animation","111","569197","0.0-111.0","1920x1080","","2783.300000011921","5.03","img/314/2.5/0.66667/bw/001.png","","","interesting"
"","","","","","animation","112","572189","0.0-112.0","1920x1080","","2991.199999988079","18.52","img/117/2.5/1.5/bw/001.png","","","interesting"
"","","","","","animation","113","574997","0.0-113.0","1920x1080","","2807.199999988079","13.23","img/117/4/0.5/bw/001.png","","","interesting"
"","","","","","animation","114","577181","0.0-114.0","1920x1080","","2183.199999988079","5.82","img/238/2.5/0.66667/bw/001.png","","","interesting"
"","","","","","animation","115","582108","0.0-115.0","1920x1080","","4926.599999964237","98","img/314/5.5/0.5/bw/001.png","","","interesting"
"","","","","","animation","116","584933","0.0-116.0","1920x1080","","2823.300000011921","0","img/238/2.5/1/bw/001.png","","","interesting"
"","","","","","animation","117","589701","0.0-117.0","1920x1080","","4767.299999952316","21.83","img/117/4/2/bw/001.png","","","interesting"
"","","","","","animation","118","601272","0.0-118.0","1920x1080","","11585.899999976158","93","img/238/4.5/0.5/bw/001.png","","","interesting"
"","","","","","animation","119","606596","0.0-119.0","1920x1080","","5321.799999952316","64.55","img/314/4.5/1/bw/001.png","","","interesting"
"","","","","","animation","120","610564","0.0-120.0","1920x1080","","3966.7999999523163","77.12","img/117/4.5/1/bw/001.png","","","interesting"
"","","","","","animation","121","617075","0.0-121.0","1920x1080","","6510.199999988079","88.10","img/314/5.5/2/bw/001.png","","","interesting"
"","","","","","animation","122","619822","0.0-122.0","1920x1080","","2745.399999976158","0","img/117/2.5/1/bw/001.png","","","interesting"
"","","","","","animation","123","623072","0.0-123.0","1920x1080","","3248.699999988079","25.79","img/117/3.5/2/bw/001.png","","","interesting"
"","","","","","animation","124","626324","0.0-124.0","1920x1080","","3250.5","75.66","img/117/4.5/0.5/bw/001.png","","","interesting"
"","","","","","animation","125","629723","0.0-125.0","1920x1080","","3398.599999964237","9.13","img/238/3.5/1/bw/001.png","","","interesting"
"","","","","","animation","126","632444","0.0-126.0","1920x1080","","2719.100000023842","88.62","img/117/5.5/1.5/bw/001.png","","","interesting"
"","","","","","animation","127","634839","0.0-127.0","1920x1080","","2393.899999976158","73.94","img/238/5.5/0.5/bw/001.png","","","interesting"
"","","","","","animation","128","637907","0.0-128.0","1920x1080","","3067.7999999523163","12.57","img/117/3.5/0.5/bw/001.png","","","interesting"
"","","","","","animation","129","640390","0.0-129.0","1920x1080","","2481.399999976158","6.88","img/238/3.5/0.66667/bw/001.png","","","interesting"
"","","","","","animation","130","643308","0.0-130.0","1920x1080","","2916.699999988079","89.81","img/238/5.5/1.5/bw/001.png","","","interesting"
"","","","","","animation","131","645596","0.0-131.0","1920x1080","","2286.899999976158","5","img/238/3.5/2/bw/001.png","","","interesting"
"","","","","","animation","132","648955","0.0-132.0","1920x1080","","3358.5","66","img/314/4.5/2/bw/001.png","","","interesting"
"","","","","","animation","133","651299","0.0-133.0","1920x1080","","2342.400000035763","3.31","img/117/2.5/0.5/bw/001.png","","","interesting"
"","","","","","animation","134","654140","0.0-134.0","1920x1080","","2839.2999999523163","18.65","img/117/2.5/2/bw/001.png","","","interesting"
"","","","","","animation","135","657132","0.0-135.0","1920x1080","","2990.699999988079","16.93","img/117/3.5/1/bw/001.png","","","interesting"
"","","","","","animation","136","661272","0.0-136.0","1920x1080","","4139.300000011921","38.62","img/238/4/2/bw/001.png","","","interesting"
"","","","","","animation","137","665406","0.0-137.0","1920x1080","","4132.100000023842","40.34","img/238/4.5/1/bw/001.png","","","interesting"
"","","","","","animation","138","668856","0.0-138.0","1920x1080","","3449.199999988079","50.13","img/117/5.5/0.5/bw/001.png","","","interesting"
"","","","","","animation","139","672006","0.0-139.0","1920x1080","","3148.699999988079","26.72","img/117/4.5/0.66667/bw/001.png","","","interesting"
"","","","","","animation","140","679060","0.0-140.0","1920x1080","","7053.300000011921","53","img/117/5.5/1/bw/001.png","","","interesting"
"","","","","","animation","141","683132","0.0-141.0","1920x1080","","4071.399999976158","63.62","img/314/5.5/1/bw/001.png","","","interesting"
"","","","","","animation","142","686372","0.0-142.0","1920x1080","","3239","14.95","img/238/4/1/bw/001.png","","","interesting"
"","","","","","animation","143","688673","0.0-143.0","1920x1080","","2299.399999976158","33","img/238/4/1.5/bw/001.png","","","interesting"
"","","","","","animation","144","692773","0.0-144.0","1920x1080","","4099","41.14","img/314/3.5/2/bw/001.png","","","interesting"
"","","","","","animation","145","699732","0.0-145.0","1920x1080","","6958.299999952316","17.72","img/238/4.5/1.5/bw/001.png","","","interesting"
"","","","","","animation","146","703132","0.0-146.0","1920x1080","","3399.099999964237","78.97","img/314/5.5/1.5/bw/001.png","","","interesting"
"","","","","","animation","147","706684","0.0-147.0","1920x1080","","3551","3","img/314/3.5/1/bw/001.png","","","interesting"
"","","","","","animation","148","712307","0.0-148.0","1920x1080","","5622.199999988079","89.02","img/314/5.5/0.66667/bw/001.png","","","interesting"
"","","","","","animation","149","715191","0.0-149.0","1920x1080","","2882.100000023842","11.38","img/238/4/0.5/bw/001.png","","","interesting"
"","","","","","animation","150","718196","0.0-150.0","1920x1080","","3003.7999999523163","21.56","img/314/3.5/0.66667/bw/001.png","","","interesting"
"","","","","","animation","151","720596","0.0-151.0","1920x1080","","2399.099999964237","9.13","img/238/3.5/0.5/bw/001.png","","","interesting"
"","","","","","animation","152","723289","0.0-152.0","1920x1080","","2691.699999988079","3.44","img/314/2.5/1/bw/001.png","","","interesting"
"","","","","","animation","153","726108","0.0-153.0","1920x1080","","2817.699999988079","29.89","img/117/4.5/2/bw/001.png","","","interesting"
"","","","","","animation","154","729056","0.0-154.0","1920x1080","","2947.7000000476837","15.61","img/314/4/0.66667/bw/001.png","","","interesting"
"","","","","","animation","155","733412","0.0-155.0","1920x1080","","4354.5","68.78","img/117/5.5/2/bw/001.png","","","interesting"
"","","","","","animation","156","736956","0.0-156.0","1920x1080","","3542.899999976158","40.34","img/314/4.5/0.66667/bw/001.png","","","interesting"
"","","","","","animation","157","740172","0.0-157.0","1920x1080","","3215.099999964237","22.09","img/314/4/2/bw/001.png","","","interesting"
"","","","","","animation","158","742839","0.0-158.0","1920x1080","","2665.900000035763","15.08","img/238/3.5/1.5/bw/001.png","","","interesting"
"","","","","","html-button-response","159","762852","0.0-159.0","1920x1080","","20011.400000035763","","<div class=""intro"">You are about to view a new series of animations.<br><br></div><div class=""intro"">You will evaluate them based on a different descriptor.<br><br></div><div class=""intro"">Move the slider to indicate how <strong style=""text-transform:capitalize"">RELAXING</strong> you find each animation.<br><br></div><div class=""intro"">0 = Least Relaxing<br></div><div class=""intro"">1 = Most Relaxing<br><br></div><div class=""intro"">Remember to use the <strong><em>entire range</em></strong> of the slider to make your ratings.<br></div><div class=""intro"">Please <strong><em>take your time</em></strong> and carefully consider each rating you make.<br><br></div>","0","",""
"","","","","","call-function","160","762853","0.0-160.0","1920x1080","","","","","","",""
"","","","","","animation","161","767129","0.0-161.0","1920x1080","","4275.099999964237","34.66","img/314/4/1.5/bw/001.png","","","relaxing"
"","","","","","animation","162","769780","0.0-162.0","1920x1080","","2650","7.80","img/238/4/0.5/bw/001.png","","","relaxing"
"","","","","","animation","163","772732","0.0-163.0","1920x1080","","2950.899999976158","0","img/238/2.5/0.66667/bw/001.png","","","relaxing"
"","","","","","animation","164","775628","0.0-164.0","1920x1080","","2894.899999976158","0.79","img/117/2.5/1/bw/001.png","","","relaxing"
"","","","","","animation","165","779428","0.0-165.0","1920x1080","","3798.300000011921","54.10","img/117/4.5/1/bw/001.png","","","relaxing"
"","","","","","animation","166","781892","0.0-166.0","1920x1080","","2462.600000023842","0","img/314/2.5/2/bw/001.png","","","relaxing"
"","","","","","animation","167","784916","0.0-167.0","1920x1080","","3023.5","8.73","img/117/3.5/0.66667/bw/001.png","","","relaxing"
"","","","","","animation","168","787460","0.0-168.0","1920x1080","","2542.5","7.94","img/314/4/0.66667/bw/001.png","","","relaxing"
"","","","","","animation","169","789874","0.0-169.0","1920x1080","","2412.800000011921","6.08","img/314/4/0.5/bw/001.png","","","relaxing"
"","","","","","animation","170","792690","0.0-170.0","1920x1080","","2815.2999999523163","20","img/238/3.5/2/bw/001.png","","","relaxing"
"","","","","","animation","171","794900","0.0-171.0","1920x1080","","2209.100000023842","1.59","img/238/2.5/0.5/bw/001.png","","","relaxing"
"","","","","","animation","172","798708","0.0-172.0","1920x1080","","3806.399999976158","46.96","img/314/4.5/0.5/bw/001.png","","","relaxing"
"","","","","","animation","173","801428","0.0-173.0","1920x1080","","2719.600000023842","39","img/117/4.5/0.5/bw/001.png","","","relaxing"
"","","","","","animation","174","804908","0.0-174.0","1920x1080","","3478.600000023842","0","img/314/2.5/0.66667/bw/001.png","","","relaxing"
"","","","","","animation","175","810996","0.0-175.0","1920x1080","","6086.800000011921","91.14","img/238/5.5/1.5/bw/001.png","","","relaxing"
"","","","","","animation","176","813324","0.0-176.0","1920x1080","","2326.5","6.88","img/238/4/0.66667/bw/001.png","","","relaxing"
"","","","","","animation","177","818073","0.0-177.0","1920x1080","","4748.300000011921","51.32","img/117/4/2/bw/001.png","","","relaxing"
"","","","","","animation","178","820908","0.0-178.0","1920x1080","","2832.800000011921","42.72","img/314/3.5/1.5/bw/001.png","","","relaxing"
"","","","","","animation","179","825790","0.0-179.0","1920x1080","","4881","85.58","img/117/5.5/2/bw/001.png","","","relaxing"
"","","","","","animation","180","827948","0.0-180.0","1920x1080","","2157.100000023842","6.08","img/238/4.5/1.5/bw/001.png","","","relaxing"
"","","","","","animation","181","831741","0.0-181.0","1920x1080","","3791.800000011921","0","img/238/2.5/1/bw/001.png","","","relaxing"
"","","","","","animation","182","835316","0.0-182.0","1920x1080","","3573.300000011921","21.83","img/117/4/1.5/bw/001.png","","","relaxing"
"","","","","","animation","183","838316","0.0-183.0","1920x1080","","2999","16.67","img/117/3.5/1.5/bw/001.png","","","relaxing"
"","","","","","animation","184","840364","0.0-184.0","1920x1080","","2047","9.66","img/238/3.5/1/bw/001.png","","","relaxing"
"","","","","","animation","185","846307","0.0-185.0","1920x1080","","5942.700000047684","82","img/238/5.5/0.5/bw/001.png","","","relaxing"
"","","","","","animation","186","849789","0.0-186.0","1920x1080","","3480.7000000476837","57.14","img/238/4.5/2/bw/001.png","","","relaxing"
"","","","","","animation","187","858540","0.0-187.0","1920x1080","","8749.300000011921","68.92","img/314/5.5/0.5/bw/001.png","","","relaxing"
"","","","","","animation","188","868973","0.0-188.0","1920x1080","","10432.5","85.85","img/238/5.5/2/bw/001.png","","","relaxing"
"","","","","","animation","189","871907","0.0-189.0","1920x1080","","2932.600000023842","0.93","img/314/2.5/1.5/bw/001.png","","","relaxing"
"","","","","","animation","190","874890","0.0-190.0","1920x1080","","2980.800000011921","6.08","img/238/3.5/0.66667/bw/001.png","","","relaxing"
"","","","","","animation","191","877389","0.0-191.0","1920x1080","","2498.399999976158","2.38","img/117/3.5/0.5/bw/001.png","","","relaxing"
"","","","","","animation","192","880075","0.0-192.0","1920x1080","","2685","1.32","img/314/2.5/1/bw/001.png","","","relaxing"
"","","","","","animation","193","883873","0.0-193.0","1920x1080","","3796.2000000476837","84.39","img/117/5.5/1/bw/001.png","","","relaxing"
"","","","","","animation","194","886690","0.0-194.0","1920x1080","","2815.5","91.40","img/314/5.5/1/bw/001.png","","","relaxing"
"","","","","","animation","195","889948","0.0-195.0","1920x1080","","3257","78.57","img/314/5.5/2/bw/001.png","","","relaxing"
"","","","","","animation","196","892644","0.0-196.0","1920x1080","","2694.400000035763","0","img/238/4/2/bw/001.png","","","relaxing"
"","","","","","animation","197","895364","0.0-197.0","1920x1080","","2718.399999976158","0.00","img/117/2.5/2/bw/001.png","","","relaxing"
"","","","","","animation","198","898066","0.0-198.0","1920x1080","","2708.300000011921","15.21","img/117/4.5/1.5/bw/001.png","","","relaxing"
"","","","","","animation","199","904116","0.0-199.0","1920x1080","","6049.300000011921","98","img/238/5.5/1/bw/001.png","","","relaxing"
"","","","","","animation","200","907988","0.0-200.0","1920x1080","","3871","0","img/238/2.5/1.5/bw/001.png","","","relaxing"
"","","","","","animation","201","910766","0.0-201.0","1920x1080","","2776.199999988079","7.41","img/314/3.5/1/bw/001.png","","","relaxing"
"","","","","","animation","202","913716","0.0-202.0","1920x1080","","2949.100000023842","17.06","img/238/4.5/0.5/bw/001.png","","","relaxing"
"","","","","","animation","203","917309","0.0-203.0","1920x1080","","3591.400000035763","8.47","img/117/4/1/bw/001.png","","","relaxing"
"","","","","","animation","204","923684","0.0-204.0","1920x1080","","6374.100000023842","81","img/238/5.5/0.66667/bw/001.png","","","relaxing"
"","","","","","animation","205","927756","0.0-205.0","1920x1080","","4071.100000023842","69.31","img/117/5.5/0.5/bw/001.png","","","relaxing"
"","","","","","animation","206","931340","0.0-206.0","1920x1080","","3582.600000023842","88.49","img/117/5.5/1.5/bw/001.png","","","relaxing"
"","","","","","animation","207","935500","0.0-207.0","1920x1080","","4158.400000035763","30.95","img/314/4.5/0.66667/bw/001.png","","","relaxing"
"","","","","","animation","208","939756","0.0-208.0","1920x1080","","4254.800000011921","1.59","img/117/2.5/1.5/bw/001.png","","","relaxing"
"","","","","","animation","209","942700","0.0-209.0","1920x1080","","2942.400000035763","23.81","img/238/4/1.5/bw/001.png","","","relaxing"
"","","","","","animation","210","945766","0.0-210.0","1920x1080","","3064.699999988079","12.57","img/314/3.5/0.5/bw/001.png","","","relaxing"
"","","","","","animation","211","949572","0.0-211.0","1920x1080","","3805.199999988079","5.29","img/117/3.5/1/bw/001.png","","","relaxing"
"","","","","","animation","212","951816","0.0-212.0","1920x1080","","2241.7000000476837","0","img/117/4/0.5/bw/001.png","","","relaxing"
"","","","","","animation","213","954356","0.0-213.0","1920x1080","","2539.5","0","img/117/2.5/0.5/bw/001.png","","","relaxing"
"","","","","","animation","214","960276","0.0-214.0","1920x1080","","5910.5","60","img/117/4.5/2/bw/001.png","","","relaxing"
"","","","","","animation","215","962492","0.0-215.0","1920x1080","","2214.699999988079","53","img/238/4/1/bw/001.png","","","relaxing"
"","","","","","animation","216","965441","0.0-216.0","1920x1080","","2947.5","49.60","img/314/4.5/1/bw/001.png","","","relaxing"
"","","","","","animation","217","968424","0.0-217.0","1920x1080","","2981.899999976158","14.95","img/117/3.5/2/bw/001.png","","","relaxing"
"","","","","","animation","218","971108","0.0-218.0","1920x1080","","2682.899999976158","80","img/314/5.5/1.5/bw/001.png","","","relaxing"
"","","","","","animation","219","973641","0.0-219.0","1920x1080","","2531.600000023842","90.08","img/117/5.5/0.66667/bw/001.png","","","relaxing"
"","","","","","animation","220","977548","0.0-220.0","1920x1080","","3906.399999976158","15.08","img/238/4.5/1/bw/001.png","","","relaxing"
"","","","","","animation","221","980374","0.0-221.0","1920x1080","","2824","0.00","img/314/2.5/0.5/bw/001.png","","","relaxing"
"","","","","","animation","222","983291","0.0-222.0","1920x1080","","2916","4.63","img/238/3.5/0.5/bw/001.png","","","relaxing"
"","","","","","animation","223","986457","0.0-223.0","1920x1080","","3165.300000011921","19.84","img/238/3.5/1.5/bw/001.png","","","relaxing"
"","","","","","animation","224","992674","0.0-224.0","1920x1080","","6215.400000035763","68","img/314/5.5/0.66667/bw/001.png","","","relaxing"
"","","","","","animation","225","995974","0.0-225.0","1920x1080","","3298.5","37.96","img/314/4/2/bw/001.png","","","relaxing"
"","","","","","animation","226","999257","0.0-226.0","1920x1080","","3282.399999976158","34","img/314/4.5/1.5/bw/001.png","","","relaxing"
"","","","","","animation","227","1002157","0.0-227.0","1920x1080","","2898.800000011921","26.46","img/117/4.5/0.66667/bw/001.png","","","relaxing"
"","","","","","animation","228","1005407","0.0-228.0","1920x1080","","3248.900000035763","45","img/314/4.5/2/bw/001.png","","","relaxing"
"","","","","","animation","229","1008628","0.0-229.0","1920x1080","","3219.800000011921","25","img/314/3.5/2/bw/001.png","","","relaxing"
"","","","","","animation","230","1011891","0.0-230.0","1920x1080","","3261.399999976158","24.47","img/314/4/1/bw/001.png","","","relaxing"
"","","","","","animation","231","1015716","0.0-231.0","1920x1080","","3823.899999976158","35","img/238/4.5/0.66667/bw/001.png","","","relaxing"
"","","","","","animation","232","1020564","0.0-232.0","1920x1080","","4847.199999988079","0","img/117/4/0.66667/bw/001.png","","","relaxing"
"","","","","","animation","233","1023407","0.0-233.0","1920x1080","","2841.5","1.72","img/314/3.5/0.66667/bw/001.png","","","relaxing"
"","","","","","animation","234","1026974","0.0-234.0","1920x1080","","3566","0","img/117/2.5/0.66667/bw/001.png","","","relaxing"
"","","","","","animation","235","1029857","0.0-235.0","1920x1080","","2881.800000011921","6.48","img/238/2.5/2/bw/001.png","","","relaxing"
"","","","","","html-button-response","236","1048808","0.0-236.0","1920x1080","","18949.5","","<div class=""intro"">You are about to view a new series of animations.<br><br></div><div class=""intro"">You will evaluate them based on a different descriptor.<br><br></div><div class=""intro"">Move the slider to indicate how <strong style=""text-transform:capitalize"">NATURAL</strong> you find each animation.<br><br></div><div class=""intro"">0 = Least Natural<br></div><div class=""intro"">1 = Most Natural<br><br></div><div class=""intro"">Remember to use the <strong><em>entire range</em></strong> of the slider to make your ratings.<br></div><div class=""intro"">Please <strong><em>take your time</em></strong> and carefully consider each rating you make.<br><br></div>","0","",""
"","","","","","call-function","237","1048809","0.0-237.0","1920x1080","","","","","","",""
"","","","","","animation","238","1053580","0.0-238.0","1920x1080","","4770.800000011921","78.70","img/117/5.5/1.5/bw/001.png","","","natural"
"","","","","","animation","239","1058657","0.0-239.0","1920x1080","","5075.5","70.77","img/314/4.5/0.5/bw/001.png","","","natural"
"","","","","","animation","240","1063844","0.0-240.0","1920x1080","","5184.900000035763","68","img/238/4.5/1/bw/001.png","","","natural"
"","","","","","animation","241","1069180","0.0-241.0","1920x1080","","5334","89.02","img/238/4.5/2/bw/001.png","","","natural"
"","","","","","animation","242","1076748","0.0-242.0","1920x1080","","7566.599999964237","59","img/117/5.5/2/bw/001.png","","","natural"
"","","","","","animation","243","1084307","0.0-243.0","1920x1080","","7557.300000011921","58.60","img/238/5.5/1.5/bw/001.png","","","natural"
"","","","","","animation","244","1087973","0.0-244.0","1920x1080","","3664.899999976158","0.40","img/117/2.5/0.5/bw/001.png","","","natural"
"","","","","","animation","245","1091475","0.0-245.0","1920x1080","","3500.199999988079","1.98","img/314/2.5/1/bw/001.png","","","natural"
"","","","","","animation","246","1095107","0.0-246.0","1920x1080","","3630.199999988079","53.84","img/314/5.5/0.66667/bw/001.png","","","natural"
"","","","","","animation","247","1098323","0.0-247.0","1920x1080","","3215.5","63.36","img/314/4/0.5/bw/001.png","","","natural"
"","","","","","animation","248","1101091","0.0-248.0","1920x1080","","2766.5","2.12","img/238/2.5/0.5/bw/001.png","","","natural"
"","","","","","animation","249","1104907","0.0-249.0","1920x1080","","3814.5","4.89","img/238/2.5/2/bw/001.png","","","natural"
"","","","","","animation","250","1107690","0.0-250.0","1920x1080","","2782","0","img/117/2.5/1/bw/001.png","","","natural"
"","","","","","animation","251","1113611","0.0-251.0","1920x1080","","5919.900000035763","63","img/117/5.5/0.5/bw/001.png","","","natural"
"","","","","","animation","252","1117106","0.0-252.0","1920x1080","","3493.800000011921","68.52","img/117/3.5/1/bw/001.png","","","natural"
"","","","","","animation","253","1123157","0.0-253.0","1920x1080","","6048.800000011921","78.97","img/314/5.5/2/bw/001.png","","","natural"
"","","","","","animation","254","1126123","0.0-254.0","1920x1080","","2964.900000035763","74.87","img/117/5.5/1/bw/001.png","","","natural"
"","","","","","animation","255","1130979","0.0-255.0","1920x1080","","4855.100000023842","57.67","img/117/3.5/0.5/bw/001.png","","","natural"
"","","","","","animation","256","1136147","0.0-256.0","1920x1080","","5164.900000035763","64.95","img/314/4.5/1.5/bw/001.png","","","natural"
"","","","","","animation","257","1138922","0.0-257.0","1920x1080","","2774.399999976158","26.46","img/117/3.5/0.66667/bw/001.png","","","natural"
"","","","","","animation","258","1143346","0.0-258.0","1920x1080","","4422.899999976158","65","img/314/5.5/0.5/bw/001.png","","","natural"
"","","","","","animation","259","1145822","0.0-259.0","1920x1080","","2474.899999976158","2","img/238/2.5/0.66667/bw/001.png","","","natural"
"","","","","","animation","260","1149705","0.0-260.0","1920x1080","","3881.899999976158","76.98","img/238/5.5/0.66667/bw/001.png","","","natural"
"","","","","","animation","261","1152339","0.0-261.0","1920x1080","","2631.599999964237","65.48","img/117/4.5/0.66667/bw/001.png","","","natural"
"","","","","","animation","262","1155674","0.0-262.0","1920x1080","","3333.7999999523163","60.45","img/117/4/0.66667/bw/001.png","","","natural"
"","","","","","animation","263","1158610","0.0-263.0","1920x1080","","2934.600000023842","50.40","img/238/3.5/0.5/bw/001.png","","","natural"
"","","","","","animation","264","1162122","0.0-264.0","1920x1080","","3510.5","6.08","img/117/2.5/1.5/bw/001.png","","","natural"
"","","","","","animation","265","1166874","0.0-265.0","1920x1080","","4750.899999976158","32","img/238/4/1.5/bw/001.png","","","natural"
"","","","","","animation","266","1169439","0.0-266.0","1920x1080","","2560.800000011921","21.16","img/314/3.5/1.5/bw/001.png","","","natural"
"","","","","","animation","267","1173026","0.0-267.0","1920x1080","","3586.199999988079","0","img/117/2.5/0.66667/bw/001.png","","","natural"
"","","","","","animation","268","1175842","0.0-268.0","1920x1080","","2814.2999999523163","60.85","img/314/4.5/1/bw/001.png","","","natural"
"","","","","","animation","269","1179456","0.0-269.0","1920x1080","","3612.600000023842","75.26","img/238/5.5/1/bw/001.png","","","natural"
"","","","","","animation","270","1182746","0.0-270.0","1920x1080","","3289.199999988079","4.10","img/314/2.5/0.5/bw/001.png","","","natural"
"","","","","","animation","271","1185026","0.0-271.0","1920x1080","","2278.399999976158","59","img/314/4.5/2/bw/001.png","","","natural"
"","","","","","animation","272","1190906","0.0-272.0","1920x1080","","5878.800000011921","89","img/238/4.5/0.66667/bw/001.png","","","natural"
"","","","","","animation","273","1193962","0.0-273.0","1920x1080","","3055","59.26","img/238/4/1/bw/001.png","","","natural"
"","","","","","animation","274","1198538","0.0-274.0","1920x1080","","4575.5","74.34","img/314/5.5/1/bw/001.png","","","natural"
"","","","","","animation","275","1201889","0.0-275.0","1920x1080","","3349.300000011921","44.84","img/238/4/2/bw/001.png","","","natural"
"","","","","","animation","276","1205138","0.0-276.0","1920x1080","","3248.2999999523163","51.32","img/238/4.5/0.5/bw/001.png","","","natural"
"","","","","","animation","277","1208289","0.0-277.0","1920x1080","","3149.399999976158","38","img/238/3.5/1/bw/001.png","","","natural"
"","","","","","animation","278","1213057","0.0-278.0","1920x1080","","4767.099999964237","56.75","img/314/4/2/bw/001.png","","","natural"
"","","","","","animation","279","1216239","0.0-279.0","1920x1080","","3179.699999988079","46.96","img/238/4/0.5/bw/001.png","","","natural"
"","","","","","animation","280","1219139","0.0-280.0","1920x1080","","2898.800000011921","0","img/314/2.5/0.66667/bw/001.png","","","natural"
"","","","","","animation","281","1222572","0.0-281.0","1920x1080","","3431.600000023842","10.32","img/117/3.5/1.5/bw/001.png","","","natural"
"","","","","","animation","282","1224657","0.0-282.0","1920x1080","","2084.300000011921","2.25","img/238/2.5/1/bw/001.png","","","natural"
"","","","","","animation","283","1227594","0.0-283.0","1920x1080","","2935.100000023842","13.76","img/238/3.5/0.66667/bw/001.png","","","natural"
"","","","","","animation","284","1230865","0.0-284.0","1920x1080","","3270.300000011921","64.95","img/314/5.5/1.5/bw/001.png","","","natural"
"","","","","","animation","285","1233705","0.0-285.0","1920x1080","","2837.100000023842","18.25","img/238/4/0.66667/bw/001.png","","","natural"
"","","","","","animation","286","1236746","0.0-286.0","1920x1080","","3039.199999988079","1.98","img/238/3.5/1.5/bw/001.png","","","natural"
"","","","","","animation","287","1243683","0.0-287.0","1920x1080","","6935.699999988079","61.90","img/117/4.5/1/bw/001.png","","","natural"
"","","","","","animation","288","1251241","0.0-288.0","1920x1080","","7555.600000023842","76","img/117/4.5/1.5/bw/001.png","","","natural"
"","","","","","animation","289","1254178","0.0-289.0","1920x1080","","2934.600000023842","71","img/238/4.5/1.5/bw/001.png","","","natural"
"","","","","","animation","290","1256272","0.0-290.0","1920x1080","","2093.2999999523163","58","img/238/3.5/2/bw/001.png","","","natural"
"","","","","","animation","291","1258321","0.0-291.0","1920x1080","","2048.800000011921","3.57","img/314/3.5/0.5/bw/001.png","","","natural"
"","","","","","animation","292","1260608","0.0-292.0","1920x1080","","2286.099999964237","4.63","img/314/4/0.66667/bw/001.png","","","natural"
"","","","","","animation","293","1264211","0.0-293.0","1920x1080","","3601","87","img/238/5.5/0.5/bw/001.png","","","natural"
"","","","","","animation","294","1267577","0.0-294.0","1920x1080","","3363.899999976158","60.45","img/117/4/2/bw/001.png","","","natural"
"","","","","","animation","295","1269738","0.0-295.0","1920x1080","","2159.5","19.58","img/314/4/1.5/bw/001.png","","","natural"
"","","","","","animation","296","1272421","0.0-296.0","1920x1080","","2682","11","img/117/4/1/bw/001.png","","","natural"
"","","","","","animation","297","1275888","0.0-297.0","1920x1080","","3464.7999999523163","5.56","img/314/3.5/2/bw/001.png","","","natural"
"","","","","","animation","298","1278488","0.0-298.0","1920x1080","","2598.800000011921","16.27","img/117/3.5/2/bw/001.png","","","natural"
"","","","","","animation","299","1281432","0.0-299.0","1920x1080","","2943.100000023842","8","img/314/3.5/1/bw/001.png","","","natural"
"","","","","","animation","300","1283738","0.0-300.0","1920x1080","","2303.5","21.03","img/117/4.5/0.5/bw/001.png","","","natural"
"","","","","","animation","301","1286072","0.0-301.0","1920x1080","","2333.2999999523163","1.59","img/117/2.5/2/bw/001.png","","","natural"
"","","","","","animation","302","1288008","0.0-302.0","1920x1080","","1935.0999999642372","16.80","img/117/4/1.5/bw/001.png","","","natural"
"","","","","","animation","303","1291138","0.0-303.0","1920x1080","","3128","0.93","img/238/2.5/1.5/bw/001.png","","","natural"
"","","","","","animation","304","1293856","0.0-304.0","1920x1080","","2717","13","img/314/4.5/0.66667/bw/001.png","","","natural"
"","","","","","animation","305","1296609","0.0-305.0","1920x1080","","2750.5","22","img/314/4/1/bw/001.png","","","natural"
"","","","","","animation","306","1299554","0.0-306.0","1920x1080","","2944.400000035763","5.56","img/117/4/0.5/bw/001.png","","","natural"
"","","","","","animation","307","1302521","0.0-307.0","1920x1080","","2964.800000011921","64","img/238/5.5/2/bw/001.png","","","natural"
"","","","","","animation","308","1304977","0.0-308.0","1920x1080","","2454.099999964237","71","img/117/5.5/0.66667/bw/001.png","","","natural"
"","","","","","animation","309","1307821","0.0-309.0","1920x1080","","2843.099999964237","2.12","img/314/2.5/1.5/bw/001.png","","","natural"
"","","","","","animation","310","1310039","0.0-310.0","1920x1080","","2216.099999964237","4","img/314/2.5/2/bw/001.png","","","natural"
"","","","","","animation","311","1312339","0.0-311.0","1920x1080","","2296.399999976158","17.46","img/314/3.5/0.66667/bw/001.png","","","natural"
"","","","","","animation","312","1314905","0.0-312.0","1920x1080","","2564.699999988079","22.88","img/117/4.5/2/bw/001.png","","","natural"
"","","","","","html-button-response","313","1333712","0.0-313.0","1920x1080","","18806.899999976158","","<div class=""intro"">You are about to view a new series of animations.<br><br></div><div class=""intro"">You will evaluate them based on a different descriptor.<br><br></div><div class=""intro"">Move the slider to indicate how <strong style=""text-transform:capitalize"">APPEALING</strong> you find each animation.<br><br></div><div class=""intro"">0 = Least Appealing<br></div><div class=""intro"">1 = Most Appealing<br><br></div><div class=""intro"">Remember to use the <strong><em>entire range</em></strong> of the slider to make your ratings.<br></div><div class=""intro"">Please <strong><em>take your time</em></strong> and carefully consider each rating you make.<br><br></div>","0","",""
"","","","","","call-function","314","1333713","0.0-314.0","1920x1080","","","","","","",""
"","","","","","animation","315","1336407","0.0-315.0","1920x1080","","2693.899999976158","61","img/117/4.5/2/bw/001.png","","","appealing"
"","","","","","animation","316","1338344","0.0-316.0","1920x1080","","1936.300000011921","57","img/314/4.5/1/bw/001.png","","","appealing"
"","","","","","animation","317","1342144","0.0-317.0","1920x1080","","3798","56","img/238/4.5/1/bw/001.png","","","appealing"
"","","","","","animation","318","1345623","0.0-318.0","1920x1080","","3478.400000035763","30.29","img/238/4/0.66667/bw/001.png","","","appealing"
"","","","","","animation","319","1348503","0.0-319.0","1920x1080","","2878.5","80","img/117/5.5/1/bw/001.png","","","appealing"
"","","","","","animation","320","1350887","0.0-320.0","1920x1080","","2382.699999988079","0","img/117/2.5/1/bw/001.png","","","appealing"
"","","","","","animation","321","1353992","0.0-321.0","1920x1080","","3103.199999988079","24.34","img/314/4/0.66667/bw/001.png","","","appealing"
"","","","","","animation","322","1356813","0.0-322.0","1920x1080","","2820.5","0","img/117/2.5/0.5/bw/001.png","","","appealing"
"","","","","","animation","323","1360230","0.0-323.0","1920x1080","","3415.5","23.54","img/314/3.5/2/bw/001.png","","","appealing"
"","","","","","animation","324","1363604","0.0-324.0","1920x1080","","3371.699999988079","33","img/238/4/2/bw/001.png","","","appealing"
"","","","","","animation","325","1367037","0.0-325.0","1920x1080","","3432.400000035763","34.79","img/117/4/2/bw/001.png","","","appealing"
"","","","","","animation","326","1369455","0.0-326.0","1920x1080","","2416.100000023842","0.40","img/314/2.5/1.5/bw/001.png","","","appealing"
"","","","","","animation","327","1371587","0.0-327.0","1920x1080","","2130.400000035763","13.49","img/238/3.5/2/bw/001.png","","","appealing"
"","","","","","animation","328","1373854","0.0-328.0","1920x1080","","2265.600000023842","34","img/238/4/1.5/bw/001.png","","","appealing"
"","","","","","animation","329","1378187","0.0-329.0","1920x1080","","4331.600000023842","31.75","img/314/4/1/bw/001.png","","","appealing"
"","","","","","animation","330","1381054","0.0-330.0","1920x1080","","2865.100000023842","39.15","img/238/4.5/0.5/bw/001.png","","","appealing"
"","","","","","animation","331","1383746","0.0-331.0","1920x1080","","2690","19.18","img/238/4/1/bw/001.png","","","appealing"
"","","","","","animation","332","1387456","0.0-332.0","1920x1080","","3709.100000023842","28.31","img/314/4/0.5/bw/001.png","","","appealing"
"","","","","","animation","333","1390880","0.0-333.0","1920x1080","","3422.399999976158","22.35","img/117/4.5/0.5/bw/001.png","","","appealing"
"","","","","","animation","334","1396421","0.0-334.0","1920x1080","","5539.200000047684","94","img/314/5.5/1.5/bw/001.png","","","appealing"
"","","","","","animation","335","1399273","0.0-335.0","1920x1080","","2850.199999988079","0.93","img/117/2.5/2/bw/001.png","","","appealing"
"","","","","","animation","336","1401755","0.0-336.0","1920x1080","","2480.300000011921","13.23","img/238/3.5/1.5/bw/001.png","","","appealing"
"","","","","","animation","337","1404027","0.0-337.0","1920x1080","","2271.100000023842","10.58","img/238/3.5/0.5/bw/001.png","","","appealing"
"","","","","","animation","338","1406639","0.0-338.0","1920x1080","","2610.7000000476837","0","img/314/2.5/0.5/bw/001.png","","","appealing"
"","","","","","animation","339","1409176","0.0-339.0","1920x1080","","2534.2999999523163","82.14","img/117/5.5/2/bw/001.png","","","appealing"
"","","","","","animation","340","1411976","0.0-340.0","1920x1080","","2798.600000023842","0.93","img/314/2.5/1/bw/001.png","","","appealing"
"","","","","","animation","341","1415292","0.0-341.0","1920x1080","","3314.400000035763","50.66","img/238/4.5/0.66667/bw/001.png","","","appealing"
"","","","","","animation","342","1418039","0.0-342.0","1920x1080","","2746.300000011921","32","img/238/4/0.5/bw/001.png","","","appealing"
"","","","","","animation","343","1419978","0.0-343.0","1920x1080","","1937.699999988079","14.42","img/117/4/0.5/bw/001.png","","","appealing"
"","","","","","animation","344","1422986","0.0-344.0","1920x1080","","3006.5","87","img/117/5.5/0.66667/bw/001.png","","","appealing"
"","","","","","animation","345","1426066","0.0-345.0","1920x1080","","3078.199999988079","26","img/117/3.5/0.5/bw/001.png","","","appealing"
"","","","","","animation","346","1429033","0.0-346.0","1920x1080","","2964.300000011921","18","img/314/4.5/0.5/bw/001.png","","","appealing"
"","","","","","animation","347","1431688","0.0-347.0","1920x1080","","2652.599999964237","0","img/117/2.5/1.5/bw/001.png","","","appealing"
"","","","","","animation","348","1434789","0.0-348.0","1920x1080","","3099.699999988079","8.20","img/117/3.5/2/bw/001.png","","","appealing"
"","","","","","animation","349","1442962","0.0-349.0","1920x1080","","8172","3","img/238/2.5/1.5/bw/001.png","","","appealing"
"","","","","","animation","350","1446071","0.0-350.0","1920x1080","","3106.5","92","img/314/5.5/1/bw/001.png","","","appealing"
"","","","","","animation","351","1448817","0.0-351.0","1920x1080","","2744.5","67","img/314/3.5/1.5/bw/001.png","","","appealing"
"","","","","","animation","352","1451720","0.0-352.0","1920x1080","","2901.699999988079","13.49","img/314/2.5/0.66667/bw/001.png","","","appealing"
"","","","","","animation","353","1454580","0.0-353.0","1920x1080","","2857.399999976158","4","img/314/2.5/2/bw/001.png","","","appealing"
"","","","","","animation","354","1457039","0.0-354.0","1920x1080","","2457.900000035763","45.50","img/117/4/1.5/bw/001.png","","","appealing"
"","","","","","animation","355","1462088","0.0-355.0","1920x1080","","5047.700000047684","85","img/314/5.5/2/bw/001.png","","","appealing"
"","","","","","animation","356","1463991","0.0-356.0","1920x1080","","1901.699999988079","43.92","img/117/4/0.66667/bw/001.png","","","appealing"
"","","","","","animation","357","1466987","0.0-357.0","1920x1080","","2994.5","76.46","img/314/5.5/0.66667/bw/001.png","","","appealing"
"","","","","","animation","358","1470954","0.0-358.0","1920x1080","","3965.199999988079","43","img/117/4/1/bw/001.png","","","appealing"
"","","","","","animation","359","1474239","0.0-359.0","1920x1080","","3283.7000000476837","3","img/238/2.5/2/bw/001.png","","","appealing"
"","","","","","animation","360","1478521","0.0-360.0","1920x1080","","4277.600000023842","0.40","img/117/2.5/0.66667/bw/001.png","","","appealing"
"","","","","","animation","361","1481239","0.0-361.0","1920x1080","","2716.399999976158","13.76","img/238/3.5/1/bw/001.png","","","appealing"
"","","","","","animation","362","1484007","0.0-362.0","1920x1080","","2766.199999988079","26","img/314/3.5/0.5/bw/001.png","","","appealing"
"","","","","","animation","363","1487713","0.0-363.0","1920x1080","","3704.400000035763","83.47","img/117/5.5/0.5/bw/001.png","","","appealing"
"","","","","","animation","364","1490321","0.0-364.0","1920x1080","","2606.5","65.48","img/238/4.5/2/bw/001.png","","","appealing"
"","","","","","animation","365","1492737","0.0-365.0","1920x1080","","2414.5","1.72","img/238/2.5/1/bw/001.png","","","appealing"
"","","","","","animation","366","1494780","0.0-366.0","1920x1080","","2041.6000000238419","32.41","img/117/4.5/0.66667/bw/001.png","","","appealing"
"","","","","","animation","367","1497582","0.0-367.0","1920x1080","","2800.099999964237","39.42","img/238/4.5/1.5/bw/001.png","","","appealing"
"","","","","","animation","368","1500521","0.0-368.0","1920x1080","","2938.199999988079","0.93","img/238/2.5/0.5/bw/001.png","","","appealing"
"","","","","","animation","369","1504627","0.0-369.0","1920x1080","","4104.299999952316","83.07","img/238/5.5/0.66667/bw/001.png","","","appealing"
"","","","","","animation","370","1507054","0.0-370.0","1920x1080","","2426.300000011921","48","img/314/3.5/1/bw/001.png","","","appealing"
"","","","","","animation","371","1510730","0.0-371.0","1920x1080","","3674","61.64","img/117/4.5/1.5/bw/001.png","","","appealing"
"","","","","","animation","372","1514353","0.0-372.0","1920x1080","","3621.899999976158","64.81","img/117/4.5/1/bw/001.png","","","appealing"
"","","","","","animation","373","1517559","0.0-373.0","1920x1080","","3203.5","48","img/117/3.5/1.5/bw/001.png","","","appealing"
"","","","","","animation","374","1520375","0.0-374.0","1920x1080","","2814.599999964237","87.83","img/238/5.5/2/bw/001.png","","","appealing"
"","","","","","animation","375","1523260","0.0-375.0","1920x1080","","2883.5","89.42","img/238/5.5/1.5/bw/001.png","","","appealing"
"","","","","","animation","376","1525371","0.0-376.0","1920x1080","","2108.900000035763","30.82","img/314/3.5/0.66667/bw/001.png","","","appealing"
"","","","","","animation","377","1528780","0.0-377.0","1920x1080","","3407.300000011921","20","img/238/3.5/0.66667/bw/001.png","","","appealing"
"","","","","","animation","378","1532738","0.0-378.0","1920x1080","","3955.800000011921","38","img/314/4/2/bw/001.png","","","appealing"
"","","","","","animation","379","1535823","0.0-379.0","1920x1080","","3081.800000011921","21.16","img/117/3.5/0.66667/bw/001.png","","","appealing"
"","","","","","animation","380","1538138","0.0-380.0","1920x1080","","2313.399999976158","14.42","img/117/3.5/1/bw/001.png","","","appealing"
"","","","","","animation","381","1540431","0.0-381.0","1920x1080","","2291.199999988079","17.72","img/314/4/1.5/bw/001.png","","","appealing"
"","","","","","animation","382","1542938","0.0-382.0","1920x1080","","2505.300000011921","73.15","img/238/5.5/1/bw/001.png","","","appealing"
"","","","","","animation","383","1545448","0.0-383.0","1920x1080","","2508.899999976158","36.64","img/314/4.5/1.5/bw/001.png","","","appealing"
"","","","","","animation","384","1548138","0.0-384.0","1920x1080","","2688.099999964237","69","img/238/5.5/0.5/bw/001.png","","","appealing"
"","","","","","animation","385","1550571","0.0-385.0","1920x1080","","2431.7000000476837","88","img/314/5.5/0.5/bw/001.png","","","appealing"
"","","","","","animation","386","1554287","0.0-386.0","1920x1080","","3714.699999988079","80.16","img/117/5.5/1.5/bw/001.png","","","appealing"
"","","","","","animation","387","1557848","0.0-387.0","1920x1080","","3559.300000011921","49.74","img/314/4.5/0.66667/bw/001.png","","","appealing"
"","","","","","animation","388","1559607","0.0-388.0","1920x1080","","1756.5","32.54","img/314/4.5/2/bw/001.png","","","appealing"
"","","","","","animation","389","1562775","0.0-389.0","1920x1080","","3166.800000011921","1","img/238/2.5/0.66667/bw/001.png","","","appealing"
"","","","","","html-button-response","390","1613722","0.0-390.0","1920x1080","","50943.700000047684","","<strong>Study Debriefing</strong><br><p class=""debrief""><strong>Background:</strong> The patterns you rated are called <em>fractals</em>. The term fractal describes a class of irregular curves or shapes for which any suitably chosen part is similar in shape to a given larger or smaller part when magnified or reduced to the same size. Fractal properties are found throughout the natural and manmade world. The series of animations you saw today displayed animated fractal patterns of a varying complexity.</p><p class=""debrief""><strong>Purpose of this study:</strong> We hope to better understand how the perception of static fractals differs from the perception of animated fractals, and how the speed of the animated patterns influences people&apos;s perception of them. Fractals allow us to study the perception of aesthetic properties (e.g. the perceived level of beauty in an image) without using recognizable content, which makes them an excellent tool for studying abstract aesthetic judgement.</p><p class=""debrief""><strong>Your part:</strong> Your participation has helped us to further understand how humans perceive these patterns across different levels of speed and complexity. This research with allow us to better understand how the visual system and brain process our ever-changing visual environments.<p class=""debrief""><strong>Feedback and Further information:</strong> If you have additional questions about this study, please feel free to ask the researcher, Nathan Gonzales-Hess at nhess @ uoregon.edu. If you have any questions concerning your rights as a research participant, please contact Research Compliance Services, 5237 University of Oregon, Eugene, OR 97403, 541-346-2510, or email researchCompliance @ uoregon.edu. You can also email the Human Subjects Coordinator for psychology and linguistics research at hscoord @ uoregon.edu. ","0","",""
"","","","","","html-button-response","391","1617807","0.0-391.0","1920x1080","","4081.099999964237","","Thank you for participating in this study. <br>Please click below to finish the experiment and submit your responses.<br><br>","0","",""
"true","","","","","fullscreen","392","1618811","0.0-392.0","1920x1080","11:58 27/5/2022","","","","","",""
