"success","timeout","failed_images","failed_audio","failed_video","trial_type","trial_index","time_elapsed","internal_node_id","resolution","timeStamp","rt","response","stimulus","button_pressed","value","descriptor"
"true","false","[]","[]","[]","preload","0","5788","0.0-0.0","1920x1080","","","","","","",""
"true","false","[]","[]","[]","preload","1","11834","0.0-1.0","1920x1080","","","","","","",""
"true","false","[]","[]","[]","preload","2","17620","0.0-2.0","1920x1080","","","","","","",""
"true","","","","","fullscreen","3","209493","0.0-3.0","1920x1080","9:53 10/10/2022","","","","","",""
"","","","","","survey-html-form","4","226508","0.0-4.0","1920x1080","","17011.899999976158","{""age"":""18"",""gender"":""Woman""}","","","",""
"","","","","","html-button-response","5","299204","0.0-5.0","1920x1080","","72694.89999997616","","<div class=""complex"">You are going to see a series of animations.<br><br></div><div class=""complex"">Move the slider to indicate how <strong style=""text-transform:capitalize"">COMPLEX</strong> you find each animation.<br><br></div><div class=""complex"">0 = Least Complex<br></div><div class=""complex"">1 = Most Complex<br><br></div><div class=""complex"">Remember to use the <strong><em>entire range</em></strong> of the slider to make your ratings.<br></div><div class=""complex"">Please <strong><em>take your time</em></strong> and carefully consider each rating you make.<br><br></div><div class=""complex"">The study has five sections and will take about 45 minutes to complete.<br><br></div>","0","",""
"","","","","","call-function","6","299205","0.0-6.0","1920x1080","","","","","","",""
"","","","","","animation","7","306924","0.0-7.0","1920x1080","","7717.900000035763","25.13","img/117/3.5/1/bw/001.png","","","complex"
"","","","","","animation","8","315964","0.0-8.0","1920x1080","","9039.399999976158","24.87","img/238/4/0.5/bw/001.png","","","complex"
"","","","","","animation","9","328523","0.0-9.0","1920x1080","","12558.599999964237","10","img/314/5.5/1/bw/001.png","","","complex"
"","","","","","animation","10","339051","0.0-10.0","1920x1080","","10526.800000011921","30.29","img/117/3.5/2/bw/001.png","","","complex"
"","","","","","animation","11","343723","0.0-11.0","1920x1080","","4671","25.26","img/238/4/1.5/bw/001.png","","","complex"
"","","","","","animation","12","348971","0.0-12.0","1920x1080","","5247.600000023842","22","img/314/4.5/1/bw/001.png","","","complex"
"","","","","","animation","13","356540","0.0-13.0","1920x1080","","7567.299999952316","33.07","img/314/3.5/0.5/bw/001.png","","","complex"
"","","","","","animation","14","364956","0.0-14.0","1920x1080","","8415.199999988079","9.26","img/117/5.5/2/bw/001.png","","","complex"
"","","","","","animation","15","372476","0.0-15.0","1920x1080","","7519.099999964237","11.24","img/117/5.5/0.5/bw/001.png","","","complex"
"","","","","","animation","16","376420","0.0-16.0","1920x1080","","3943.599999964237","25.40","img/117/4/0.5/bw/001.png","","","complex"
"","","","","","animation","17","382980","0.0-17.0","1920x1080","","6559.5","22.88","img/314/4/2/bw/001.png","","","complex"
"","","","","","animation","18","389460","0.0-18.0","1920x1080","","6478.899999976158","19.71","img/238/4.5/2/bw/001.png","","","complex"
"","","","","","animation","19","393500","0.0-19.0","1920x1080","","4039.199999988079","33.07","img/117/3.5/0.5/bw/001.png","","","complex"
"","","","","","animation","20","400708","0.0-20.0","1920x1080","","7207.5","10.45","img/238/5.5/1/bw/001.png","","","complex"
"","","","","","animation","21","411404","0.0-21.0","1920x1080","","10695","27.25","img/117/4/1.5/bw/001.png","","","complex"
"","","","","","animation","22","416435","0.0-22.0","1920x1080","","5031.100000023842","32.80","img/238/3.5/0.5/bw/001.png","","","complex"
"","","","","","animation","23","420564","0.0-23.0","1920x1080","","4128.5","18.92","img/238/4.5/0.5/bw/001.png","","","complex"
"","","","","","animation","24","427515","0.0-24.0","1920x1080","","6950","18.25","img/117/4.5/0.66667/bw/001.png","","","complex"
"","","","","","animation","25","434819","0.0-25.0","1920x1080","","7303.599999964237","19.84","img/117/4.5/2/bw/001.png","","","complex"
"","","","","","animation","26","439075","0.0-26.0","1920x1080","","4255.400000035763","19.71","img/238/4.5/0.66667/bw/001.png","","","complex"
"","","","","","animation","27","447739","0.0-27.0","1920x1080","","8663","36.11","img/314/3.5/1.5/bw/001.png","","","complex"
"","","","","","animation","28","453195","0.0-28.0","1920x1080","","5455.199999988079","9.52","img/238/5.5/1.5/bw/001.png","","","complex"
"","","","","","animation","29","463755","0.0-29.0","1920x1080","","10559.100000023842","44.58","img/238/2.5/0.5/bw/001.png","","","complex"
"","","","","","animation","30","474459","0.0-30.0","1920x1080","","10703.300000011921","19","img/314/4.5/1.5/bw/001.png","","","complex"
"","","","","","animation","31","484538","0.0-31.0","1920x1080","","10079.199999988079","19.58","img/117/4.5/1.5/bw/001.png","","","complex"
"","","","","","animation","32","493242","0.0-32.0","1920x1080","","8703.099999964237","11","img/314/5.5/2/bw/001.png","","","complex"
"","","","","","animation","33","501426","0.0-33.0","1920x1080","","8182.900000035763","45.90","img/314/2.5/1.5/bw/001.png","","","complex"
"","","","","","animation","34","510298","0.0-34.0","1920x1080","","8871.400000035763","36","img/238/3.5/2/bw/001.png","","","complex"
"","","","","","animation","35","513554","0.0-35.0","1920x1080","","3254.899999976158","37.04","img/314/3.5/1/bw/001.png","","","complex"
"","","","","","animation","36","517564","0.0-36.0","1920x1080","","4009","43.65","img/117/2.5/1.5/bw/001.png","","","complex"
"","","","","","animation","37","526770","0.0-37.0","1920x1080","","9205.699999988079","29.89","img/238/3.5/1.5/bw/001.png","","","complex"
"","","","","","animation","38","529602","0.0-38.0","1920x1080","","2831","44.97","img/117/2.5/2/bw/001.png","","","complex"
"","","","","","animation","39","533818","0.0-39.0","1920x1080","","4215","45.63","img/238/2.5/2/bw/001.png","","","complex"
"","","","","","animation","40","539041","0.0-40.0","1920x1080","","5223.700000047684","26.46","img/314/4/0.5/bw/001.png","","","complex"
"","","","","","animation","41","542689","0.0-41.0","1920x1080","","3647.2000000476837","32.41","img/117/3.5/0.66667/bw/001.png","","","complex"
"","","","","","animation","42","547978","0.0-42.0","1920x1080","","5288.300000011921","28.04","img/117/4/1/bw/001.png","","","complex"
"","","","","","animation","43","559448","0.0-43.0","1920x1080","","11470","19.44","img/238/4/0.66667/bw/001.png","","","complex"
"","","","","","animation","44","563625","0.0-44.0","1920x1080","","4175.5","9.79","img/238/5.5/0.66667/bw/001.png","","","complex"
"","","","","","animation","45","568664","0.0-45.0","1920x1080","","5038.699999988079","44.84","img/238/2.5/0.66667/bw/001.png","","","complex"
"","","","","","animation","46","571762","0.0-46.0","1920x1080","","3096.599999964237","45.11","img/117/2.5/1/bw/001.png","","","complex"
"","","","","","animation","47","575417","0.0-47.0","1920x1080","","3653.100000023842","45.11","img/117/2.5/0.5/bw/001.png","","","complex"
"","","","","","animation","48","579801","0.0-48.0","1920x1080","","4383.399999976158","26.19","img/314/4/0.66667/bw/001.png","","","complex"
"","","","","","animation","49","583801","0.0-49.0","1920x1080","","3999.100000023842","9.66","img/238/5.5/2/bw/001.png","","","complex"
"","","","","","animation","50","590753","0.0-50.0","1920x1080","","6951.199999988079","19.58","img/314/4.5/0.66667/bw/001.png","","","complex"
"","","","","","animation","51","595498","0.0-51.0","1920x1080","","4742.900000035763","11.51","img/314/5.5/0.66667/bw/001.png","","","complex"
"","","","","","animation","52","600427","0.0-52.0","1920x1080","","4927.700000047684","12.17","img/117/5.5/1.5/bw/001.png","","","complex"
"","","","","","animation","53","606714","0.0-53.0","1920x1080","","6286.5","13.76","img/238/5.5/0.5/bw/001.png","","","complex"
"","","","","","animation","54","610307","0.0-54.0","1920x1080","","3591.899999976158","18.12","img/314/4.5/0.5/bw/001.png","","","complex"
"","","","","","animation","55","613381","0.0-55.0","1920x1080","","3073.100000023842","13.49","img/117/5.5/0.66667/bw/001.png","","","complex"
"","","","","","animation","56","617381","0.0-56.0","1920x1080","","3999.2999999523163","26.06","img/117/3.5/1.5/bw/001.png","","","complex"
"","","","","","animation","57","621323","0.0-57.0","1920x1080","","3940.699999988079","44.05","img/238/2.5/1.5/bw/001.png","","","complex"
"","","","","","animation","58","623923","0.0-58.0","1920x1080","","2599.400000035763","44.97","img/314/2.5/0.66667/bw/001.png","","","complex"
"","","","","","animation","59","634180","0.0-59.0","1920x1080","","10256.699999988079","21.30","img/117/4.5/0.5/bw/001.png","","","complex"
"","","","","","animation","60","639050","0.0-60.0","1920x1080","","4869.199999988079","31.08","img/314/3.5/0.66667/bw/001.png","","","complex"
"","","","","","animation","61","643986","0.0-61.0","1920x1080","","4934.800000011921","34.66","img/314/3.5/2/bw/001.png","","","complex"
"","","","","","animation","62","647059","0.0-62.0","1920x1080","","3071.699999988079","43.92","img/117/2.5/0.66667/bw/001.png","","","complex"
"","","","","","animation","63","649843","0.0-63.0","1920x1080","","2783.199999988079","33.86","img/117/4/0.66667/bw/001.png","","","complex"
"","","","","","animation","64","652923","0.0-64.0","1920x1080","","3079.300000011921","45.37","img/314/2.5/0.5/bw/001.png","","","complex"
"","","","","","animation","65","657611","0.0-65.0","1920x1080","","4690","10.19","img/314/5.5/0.5/bw/001.png","","","complex"
"","","","","","animation","66","662040","0.0-66.0","1920x1080","","4427.900000035763","24.74","img/238/4/1/bw/001.png","","","complex"
"","","","","","animation","67","665880","0.0-67.0","1920x1080","","3838.5","10.05","img/314/5.5/1.5/bw/001.png","","","complex"
"","","","","","animation","68","676456","0.0-68.0","1920x1080","","10575.400000035763","22.88","img/238/4.5/1/bw/001.png","","","complex"
"","","","","","animation","69","680752","0.0-69.0","1920x1080","","4294.699999988079","23","img/238/4.5/1.5/bw/001.png","","","complex"
"","","","","","animation","70","686362","0.0-70.0","1920x1080","","5609.300000011921","25.00","img/314/4/1/bw/001.png","","","complex"
"","","","","","animation","71","689495","0.0-71.0","1920x1080","","3132.5","24.34","img/238/4/2/bw/001.png","","","complex"
"","","","","","animation","72","692672","0.0-72.0","1920x1080","","3175.7000000476837","26.19","img/117/4.5/1/bw/001.png","","","complex"
"","","","","","animation","73","695611","0.0-73.0","1920x1080","","2938.5","26.32","img/314/4.5/2/bw/001.png","","","complex"
"","","","","","animation","74","699472","0.0-74.0","1920x1080","","3859.100000023842","44.44","img/314/2.5/1/bw/001.png","","","complex"
"","","","","","animation","75","703440","0.0-75.0","1920x1080","","3964.800000011921","29.89","img/117/4/2/bw/001.png","","","complex"
"","","","","","animation","76","707952","0.0-76.0","1920x1080","","4510.600000023842","11.38","img/117/5.5/1/bw/001.png","","","complex"
"","","","","","animation","77","710545","0.0-77.0","1920x1080","","2592.100000023842","26.59","img/238/3.5/0.66667/bw/001.png","","","complex"
"","","","","","animation","78","713952","0.0-78.0","1920x1080","","3406.100000023842","26.85","img/314/4/1.5/bw/001.png","","","complex"
"","","","","","animation","79","717515","0.0-79.0","1920x1080","","3567.300000011921","38.62","img/238/3.5/1/bw/001.png","","","complex"
"","","","","","animation","80","719811","0.0-80.0","1920x1080","","2294.800000011921","45.11","img/238/2.5/1/bw/001.png","","","complex"
"","","","","","animation","81","722627","0.0-81.0","1920x1080","","2814.900000035763","45.37","img/314/2.5/2/bw/001.png","","","complex"
"","","","","","html-button-response","82","742023","0.0-82.0","1920x1080","","19394.5","","<div class=""intro"">You are about to view a new series of animations.<br><br></div><div class=""intro"">You will evaluate them based on a different descriptor.<br><br></div><div class=""intro"">Move the slider to indicate how <strong style=""text-transform:capitalize"">NATURAL</strong> you find each animation.<br><br></div><div class=""intro"">0 = Least Natural<br></div><div class=""intro"">1 = Most Natural<br><br></div><div class=""intro"">Remember to use the <strong><em>entire range</em></strong> of the slider to make your ratings.<br></div><div class=""intro"">Please <strong><em>take your time</em></strong> and carefully consider each rating you make.<br><br></div>","0","",""
"","","","","","call-function","83","742023","0.0-83.0","1920x1080","","","","","","",""
"","","","","","animation","84","754051","0.0-84.0","1920x1080","","12027.300000011921","9.79","img/314/4/2/bw/001.png","","","natural"
"","","","","","animation","85","761475","0.0-85.0","1920x1080","","7422.399999976158","10.32","img/117/4.5/0.5/bw/001.png","","","natural"
"","","","","","animation","86","765995","0.0-86.0","1920x1080","","4518.900000035763","9.79","img/117/4.5/1/bw/001.png","","","natural"
"","","","","","animation","87","769835","0.0-87.0","1920x1080","","3839.199999988079","10.45","img/314/4.5/0.5/bw/001.png","","","natural"
"","","","","","animation","88","777551","0.0-88.0","1920x1080","","7710.600000023842","9.66","img/238/4.5/0.5/bw/001.png","","","natural"
"","","","","","animation","89","782443","0.0-89.0","1920x1080","","4890.600000023842","9.79","img/314/4/0.5/bw/001.png","","","natural"
"","","","","","animation","90","787952","0.0-90.0","1920x1080","","5507.600000023842","29.76","img/314/5.5/2/bw/001.png","","","natural"
"","","","","","animation","91","792400","0.0-91.0","1920x1080","","4446.300000011921","9.92","img/117/4.5/0.66667/bw/001.png","","","natural"
"","","","","","animation","92","797983","0.0-92.0","1920x1080","","5582.599999964237","10.32","img/117/4/2/bw/001.png","","","natural"
"","","","","","animation","93","803984","0.0-93.0","1920x1080","","5999.100000023842","12.30","img/314/3.5/0.5/bw/001.png","","","natural"
"","","","","","animation","94","810561","0.0-94.0","1920x1080","","6576.600000023842","10.19","img/117/4/1.5/bw/001.png","","","natural"
"","","","","","animation","95","816011","0.0-95.0","1920x1080","","5448","29.89","img/117/5.5/0.66667/bw/001.png","","","natural"
"","","","","","animation","96","820104","0.0-96.0","1920x1080","","4091.900000035763","29.76","img/314/5.5/1/bw/001.png","","","natural"
"","","","","","animation","97","826627","0.0-97.0","1920x1080","","6522.600000023842","5.16","img/314/2.5/1/bw/001.png","","","natural"
"","","","","","animation","98","831447","0.0-98.0","1920x1080","","4819.099999964237","20.24","img/314/4.5/0.66667/bw/001.png","","","natural"
"","","","","","animation","99","836100","0.0-99.0","1920x1080","","4655.300000011921","22.62","img/117/5.5/2/bw/001.png","","","natural"
"","","","","","animation","100","842196","0.0-100.0","1920x1080","","6094.600000023842","21","img/238/5.5/1.5/bw/001.png","","","natural"
"","","","","","animation","101","846132","0.0-101.0","1920x1080","","3935.2000000476837","10.32","img/238/4/0.5/bw/001.png","","","natural"
"","","","","","animation","102","850932","0.0-102.0","1920x1080","","4799.200000047684","4.50","img/117/2.5/0.66667/bw/001.png","","","natural"
"","","","","","animation","103","855276","0.0-103.0","1920x1080","","4342.399999976158","10.45","img/314/4/1.5/bw/001.png","","","natural"
"","","","","","animation","104","860716","0.0-104.0","1920x1080","","5439.5","10.85","img/117/4.5/2/bw/001.png","","","natural"
"","","","","","animation","105","866624","0.0-105.0","1920x1080","","5907","5.03","img/238/2.5/1/bw/001.png","","","natural"
"","","","","","animation","106","874444","0.0-106.0","1920x1080","","7818.699999988079","25.93","img/117/5.5/1/bw/001.png","","","natural"
"","","","","","animation","107","879276","0.0-107.0","1920x1080","","4830.699999988079","9.79","img/117/4.5/1.5/bw/001.png","","","natural"
"","","","","","animation","108","884852","0.0-108.0","1920x1080","","5575.400000035763","9.26","img/238/3.5/2/bw/001.png","","","natural"
"","","","","","animation","109","888740","0.0-109.0","1920x1080","","3887","6.75","img/238/3.5/0.5/bw/001.png","","","natural"
"","","","","","animation","110","892916","0.0-110.0","1920x1080","","4175","6.88","img/117/3.5/0.5/bw/001.png","","","natural"
"","","","","","animation","111","897936","0.0-111.0","1920x1080","","5014.800000011921","5.03","img/314/2.5/2/bw/001.png","","","natural"
"","","","","","animation","112","901712","0.0-112.0","1920x1080","","3774.699999988079","6.22","img/117/2.5/1/bw/001.png","","","natural"
"","","","","","animation","113","909344","0.0-113.0","1920x1080","","7631","7.54","img/314/3.5/2/bw/001.png","","","natural"
"","","","","","animation","114","913353","0.0-114.0","1920x1080","","4007.599999964237","4.63","img/314/2.5/0.66667/bw/001.png","","","natural"
"","","","","","animation","115","920762","0.0-115.0","1920x1080","","7407.899999976158","5.29","img/117/2.5/1.5/bw/001.png","","","natural"
"","","","","","animation","116","930579","0.0-116.0","1920x1080","","9816.099999964237","20.90","img/314/5.5/1.5/bw/001.png","","","natural"
"","","","","","animation","117","934200","0.0-117.0","1920x1080","","3620.5","9.92","img/117/4/0.5/bw/001.png","","","natural"
"","","","","","animation","118","941496","0.0-118.0","1920x1080","","7294.699999988079","13","img/238/4.5/1.5/bw/001.png","","","natural"
"","","","","","animation","119","945384","0.0-119.0","1920x1080","","3887.300000011921","4.10","img/238/2.5/0.5/bw/001.png","","","natural"
"","","","","","animation","120","948594","0.0-120.0","1920x1080","","3205.2999999523163","9.79","img/238/4.5/2/bw/001.png","","","natural"
"","","","","","animation","121","952245","0.0-121.0","1920x1080","","3650.5","10.19","img/314/4/0.66667/bw/001.png","","","natural"
"","","","","","animation","122","957311","0.0-122.0","1920x1080","","5066","10.45","img/238/4/0.66667/bw/001.png","","","natural"
"","","","","","animation","123","960767","0.0-123.0","1920x1080","","3455.199999988079","10.05","img/117/3.5/1.5/bw/001.png","","","natural"
"","","","","","animation","124","964015","0.0-124.0","1920x1080","","3246.800000011921","9.13","img/314/3.5/1/bw/001.png","","","natural"
"","","","","","animation","125","967167","0.0-125.0","1920x1080","","3150.800000011921","5.29","img/238/2.5/0.66667/bw/001.png","","","natural"
"","","","","","animation","126","970809","0.0-126.0","1920x1080","","3641.199999988079","29.23","img/238/5.5/2/bw/001.png","","","natural"
"","","","","","animation","127","973919","0.0-127.0","1920x1080","","3109","5.03","img/238/2.5/1.5/bw/001.png","","","natural"
"","","","","","animation","128","986535","0.0-128.0","1920x1080","","12615.199999988079","8.60","img/117/3.5/0.66667/bw/001.png","","","natural"
"","","","","","animation","129","989727","0.0-129.0","1920x1080","","3188","9.39","img/314/3.5/0.66667/bw/001.png","","","natural"
"","","","","","animation","130","996727","0.0-130.0","1920x1080","","6999.099999964237","20.90","img/238/5.5/1/bw/001.png","","","natural"
"","","","","","animation","131","1000644","0.0-131.0","1920x1080","","3916.199999988079","21.83","img/117/5.5/1.5/bw/001.png","","","natural"
"","","","","","animation","132","1006511","0.0-132.0","1920x1080","","5865.699999988079","11.11","img/314/4/1/bw/001.png","","","natural"
"","","","","","animation","133","1015331","0.0-133.0","1920x1080","","8815","10.19","img/238/4.5/1/bw/001.png","","","natural"
"","","","","","animation","134","1020739","0.0-134.0","1920x1080","","5407.5","4","img/314/2.5/1.5/bw/001.png","","","natural"
"","","","","","animation","135","1025883","0.0-135.0","1920x1080","","5142.400000035763","5.69","img/117/3.5/2/bw/001.png","","","natural"
"","","","","","animation","136","1029571","0.0-136.0","1920x1080","","3687.199999988079","18.52","img/238/4.5/0.66667/bw/001.png","","","natural"
"","","","","","animation","137","1032846","0.0-137.0","1920x1080","","3273.800000011921","13.36","img/117/4/1/bw/001.png","","","natural"
"","","","","","animation","138","1036187","0.0-138.0","1920x1080","","3340","5.29","img/314/2.5/0.5/bw/001.png","","","natural"
"","","","","","animation","139","1044003","0.0-139.0","1920x1080","","7814.599999964237","19","img/117/5.5/0.5/bw/001.png","","","natural"
"","","","","","animation","140","1047035","0.0-140.0","1920x1080","","3030.699999988079","20.90","img/314/5.5/0.5/bw/001.png","","","natural"
"","","","","","animation","141","1050019","0.0-141.0","1920x1080","","2982.900000035763","5.03","img/238/2.5/2/bw/001.png","","","natural"
"","","","","","animation","142","1054483","0.0-142.0","1920x1080","","4462.399999976158","19.18","img/238/5.5/0.5/bw/001.png","","","natural"
"","","","","","animation","143","1057980","0.0-143.0","1920x1080","","3495.800000011921","4.37","img/238/3.5/0.66667/bw/001.png","","","natural"
"","","","","","animation","144","1060597","0.0-144.0","1920x1080","","2616.399999976158","6.61","img/238/3.5/1.5/bw/001.png","","","natural"
"","","","","","animation","145","1063363","0.0-145.0","1920x1080","","2764.599999964237","5","img/238/4/1/bw/001.png","","","natural"
"","","","","","animation","146","1066198","0.0-146.0","1920x1080","","2833.900000035763","2.38","img/117/2.5/0.5/bw/001.png","","","natural"
"","","","","","animation","147","1069123","0.0-147.0","1920x1080","","2923.800000011921","16.80","img/238/4/1.5/bw/001.png","","","natural"
"","","","","","animation","148","1072907","0.0-148.0","1920x1080","","3782.699999988079","9.92","img/314/4.5/1/bw/001.png","","","natural"
"","","","","","animation","149","1075438","0.0-149.0","1920x1080","","2526.7000000476837","9.79","img/117/4/0.66667/bw/001.png","","","natural"
"","","","","","animation","150","1078218","0.0-150.0","1920x1080","","2778.899999976158","5.16","img/117/2.5/2/bw/001.png","","","natural"
"","","","","","animation","151","1081683","0.0-151.0","1920x1080","","3463.899999976158","10.58","img/238/4/2/bw/001.png","","","natural"
"","","","","","animation","152","1088285","0.0-152.0","1920x1080","","6601.5","26.72","img/238/5.5/0.66667/bw/001.png","","","natural"
"","","","","","animation","153","1091022","0.0-153.0","1920x1080","","2735.400000035763","15.48","img/314/5.5/0.66667/bw/001.png","","","natural"
"","","","","","animation","154","1105216","0.0-154.0","1920x1080","","14193.5","20.63","img/238/3.5/1/bw/001.png","","","natural"
"","","","","","animation","155","1107774","0.0-155.0","1920x1080","","2556.599999964237","25.53","img/314/4.5/1.5/bw/001.png","","","natural"
"","","","","","animation","156","1110082","0.0-156.0","1920x1080","","2307.199999988079","14.42","img/117/3.5/1/bw/001.png","","","natural"
"","","","","","animation","157","1112533","0.0-157.0","1920x1080","","2450","12.96","img/314/3.5/1.5/bw/001.png","","","natural"
"","","","","","animation","158","1116285","0.0-158.0","1920x1080","","3751","24.21","img/314/4.5/2/bw/001.png","","","natural"
"","","","","","html-button-response","159","1210667","0.0-159.0","1920x1080","","94367.5","","<div class=""intro"">You are about to view a new series of animations.<br><br></div><div class=""intro"">You will evaluate them based on a different descriptor.<br><br></div><div class=""intro"">Move the slider to indicate how <strong style=""text-transform:capitalize"">APPEALING</strong> you find each animation.<br><br></div><div class=""intro"">0 = Least Appealing<br></div><div class=""intro"">1 = Most Appealing<br><br></div><div class=""intro"">Remember to use the <strong><em>entire range</em></strong> of the slider to make your ratings.<br></div><div class=""intro"">Please <strong><em>take your time</em></strong> and carefully consider each rating you make.<br><br></div>","0","",""
"","","","","","call-function","160","1210672","0.0-160.0","1920x1080","","","","","","",""
"","","","","","animation","161","1219714","0.0-161.0","1920x1080","","9041.599999964237","30.16","img/314/4.5/1.5/bw/001.png","","","appealing"
"","","","","","animation","162","1224483","0.0-162.0","1920x1080","","4767","80","img/117/5.5/1.5/bw/001.png","","","appealing"
"","","","","","animation","163","1229114","0.0-163.0","1920x1080","","4630.300000011921","84.52","img/238/5.5/0.66667/bw/001.png","","","appealing"
"","","","","","animation","164","1234682","0.0-164.0","1920x1080","","5567","1","img/314/2.5/0.5/bw/001.png","","","appealing"
"","","","","","animation","165","1239278","0.0-165.0","1920x1080","","4593.699999988079","10.32","img/314/4/2/bw/001.png","","","appealing"
"","","","","","animation","166","1243262","0.0-166.0","1920x1080","","3982.600000023842","20.24","img/314/4.5/0.5/bw/001.png","","","appealing"
"","","","","","animation","167","1255359","0.0-167.0","1920x1080","","12091.699999988079","5.16","img/117/4/0.5/bw/001.png","","","appealing"
"","","","","","animation","168","1258687","0.0-168.0","1920x1080","","3326.199999988079","0.79","img/117/2.5/0.5/bw/001.png","","","appealing"
"","","","","","animation","169","1262749","0.0-169.0","1920x1080","","4060.699999988079","3.04","img/117/2.5/1.5/bw/001.png","","","appealing"
"","","","","","animation","170","1266487","0.0-170.0","1920x1080","","3737","10.05","img/117/4.5/0.5/bw/001.png","","","appealing"
"","","","","","animation","171","1271839","0.0-171.0","1920x1080","","5351","29","img/117/4.5/0.66667/bw/001.png","","","appealing"
"","","","","","animation","172","1277855","0.0-172.0","1920x1080","","6014.899999976158","69.05","img/117/5.5/0.5/bw/001.png","","","appealing"
"","","","","","animation","173","1281951","0.0-173.0","1920x1080","","4094.400000035763","37.17","img/238/4/0.5/bw/001.png","","","appealing"
"","","","","","animation","174","1287119","0.0-174.0","1920x1080","","5167.100000023842","84.39","img/238/5.5/1/bw/001.png","","","appealing"
"","","","","","animation","175","1290249","0.0-175.0","1920x1080","","3126.699999988079","35.05","img/238/4.5/1.5/bw/001.png","","","appealing"
"","","","","","animation","176","1293400","0.0-176.0","1920x1080","","3149.599999964237","20.11","img/117/3.5/1/bw/001.png","","","appealing"
"","","","","","animation","177","1298151","0.0-177.0","1920x1080","","4749.900000035763","1.32","img/314/2.5/1.5/bw/001.png","","","appealing"
"","","","","","animation","178","1302866","0.0-178.0","1920x1080","","4713.699999988079","78.44","img/117/5.5/2/bw/001.png","","","appealing"
"","","","","","animation","179","1306151","0.0-179.0","1920x1080","","3283.699999988079","5.03","img/238/2.5/2/bw/001.png","","","appealing"
"","","","","","animation","180","1309351","0.0-180.0","1920x1080","","3198.800000011921","71.43","img/238/5.5/0.5/bw/001.png","","","appealing"
"","","","","","animation","181","1312375","0.0-181.0","1920x1080","","3023.099999964237","1.19","img/238/2.5/0.66667/bw/001.png","","","appealing"
"","","","","","animation","182","1326646","0.0-182.0","1920x1080","","14273.5","11.24","img/314/3.5/0.66667/bw/001.png","","","appealing"
"","","","","","animation","183","1338468","0.0-183.0","1920x1080","","11819.100000023842","25.13","img/238/4/0.66667/bw/001.png","","","appealing"
"","","","","","animation","184","1341972","0.0-184.0","1920x1080","","3502.899999976158","31.75","img/314/4/1/bw/001.png","","","appealing"
"","","","","","animation","185","1344712","0.0-185.0","1920x1080","","2738.699999988079","33.20","img/238/3.5/1/bw/001.png","","","appealing"
"","","","","","animation","186","1347084","0.0-186.0","1920x1080","","2370.900000035763","42.99","img/238/4.5/1/bw/001.png","","","appealing"
"","","","","","animation","187","1349662","0.0-187.0","1920x1080","","2577.399999976158","23.81","img/314/3.5/1/bw/001.png","","","appealing"
"","","","","","animation","188","1351772","0.0-188.0","1920x1080","","2108.600000023842","28.44","img/117/4.5/1/bw/001.png","","","appealing"
"","","","","","animation","189","1354756","0.0-189.0","1920x1080","","2983","62.17","img/238/5.5/1.5/bw/001.png","","","appealing"
"","","","","","animation","190","1357012","0.0-190.0","1920x1080","","2255.300000011921","35","img/238/4.5/2/bw/001.png","","","appealing"
"","","","","","animation","191","1360429","0.0-191.0","1920x1080","","3415.599999964237","8.20","img/117/3.5/0.66667/bw/001.png","","","appealing"
"","","","","","animation","192","1365779","0.0-192.0","1920x1080","","5349.300000011921","2","img/314/2.5/2/bw/001.png","","","appealing"
"","","","","","animation","193","1368931","0.0-193.0","1920x1080","","3150.899999976158","33.33","img/117/4.5/2/bw/001.png","","","appealing"
"","","","","","animation","194","1373331","0.0-194.0","1920x1080","","4398.5","41.80","img/238/4/2/bw/001.png","","","appealing"
"","","","","","animation","195","1376192","0.0-195.0","1920x1080","","2855.199999988079","19.71","img/314/3.5/2/bw/001.png","","","appealing"
"","","","","","animation","196","1378883","0.0-196.0","1920x1080","","2689.600000023842","68.39","img/238/5.5/2/bw/001.png","","","appealing"
"","","","","","animation","197","1381520","0.0-197.0","1920x1080","","2635.699999988079","2.12","img/117/2.5/1/bw/001.png","","","appealing"
"","","","","","animation","198","1384150","0.0-198.0","1920x1080","","2628.800000011921","12.30","img/314/3.5/0.5/bw/001.png","","","appealing"
"","","","","","animation","199","1387066","0.0-199.0","1920x1080","","2915.2999999523163","24.47","img/314/4.5/1/bw/001.png","","","appealing"
"","","","","","animation","200","1391417","0.0-200.0","1920x1080","","4349.600000023842","84.13","img/314/5.5/2/bw/001.png","","","appealing"
"","","","","","animation","201","1394417","0.0-201.0","1920x1080","","2998.699999988079","60.32","img/314/5.5/1.5/bw/001.png","","","appealing"
"","","","","","animation","202","1397672","0.0-202.0","1920x1080","","3254.5","31.08","img/314/4.5/2/bw/001.png","","","appealing"
"","","","","","animation","203","1400533","0.0-203.0","1920x1080","","2859.899999976158","1.59","img/238/2.5/1/bw/001.png","","","appealing"
"","","","","","animation","204","1402840","0.0-204.0","1920x1080","","2305.100000023842","27.51","img/314/5.5/0.66667/bw/001.png","","","appealing"
"","","","","","animation","205","1404917","0.0-205.0","1920x1080","","2075.300000011921","59.13","img/314/5.5/1/bw/001.png","","","appealing"
"","","","","","animation","206","1417267","0.0-206.0","1920x1080","","12349.700000047684","32","img/314/4/1.5/bw/001.png","","","appealing"
"","","","","","animation","207","1421367","0.0-207.0","1920x1080","","4098.199999988079","16","img/117/3.5/1.5/bw/001.png","","","appealing"
"","","","","","animation","208","1424120","0.0-208.0","1920x1080","","2752.5","29","img/314/4.5/0.66667/bw/001.png","","","appealing"
"","","","","","animation","209","1426833","0.0-209.0","1920x1080","","2711.800000011921","33.47","img/238/4.5/0.5/bw/001.png","","","appealing"
"","","","","","animation","210","1430850","0.0-210.0","1920x1080","","4015.399999976158","2.25","img/117/2.5/0.66667/bw/001.png","","","appealing"
"","","","","","animation","211","1434072","0.0-211.0","1920x1080","","3221.300000011921","21.30","img/117/4/1/bw/001.png","","","appealing"
"","","","","","animation","212","1437811","0.0-212.0","1920x1080","","3742.899999976158","31.08","img/314/4/0.66667/bw/001.png","","","appealing"
"","","","","","animation","213","1441131","0.0-213.0","1920x1080","","3317.699999988079","2.12","img/314/2.5/0.66667/bw/001.png","","","appealing"
"","","","","","animation","214","1447961","0.0-214.0","1920x1080","","6829","24.07","img/238/4/1.5/bw/001.png","","","appealing"
"","","","","","animation","215","1450378","0.0-215.0","1920x1080","","2415.199999988079","16.80","img/117/3.5/2/bw/001.png","","","appealing"
"","","","","","animation","216","1453595","0.0-216.0","1920x1080","","3216","23.41","img/238/4/1/bw/001.png","","","appealing"
"","","","","","animation","217","1455987","0.0-217.0","1920x1080","","2390.699999988079","63.10","img/117/5.5/1/bw/001.png","","","appealing"
"","","","","","animation","218","1459728","0.0-218.0","1920x1080","","3739.900000035763","9.79","img/117/3.5/0.5/bw/001.png","","","appealing"
"","","","","","animation","219","1462861","0.0-219.0","1920x1080","","3131.600000023842","2.38","img/314/2.5/1/bw/001.png","","","appealing"
"","","","","","animation","220","1465328","0.0-220.0","1920x1080","","2465.300000011921","22.88","img/238/3.5/0.66667/bw/001.png","","","appealing"
"","","","","","animation","221","1469067","0.0-221.0","1920x1080","","3738.099999964237","2.38","img/238/2.5/0.5/bw/001.png","","","appealing"
"","","","","","animation","222","1480299","0.0-222.0","1920x1080","","11230.5","4","img/117/2.5/2/bw/001.png","","","appealing"
"","","","","","animation","223","1484082","0.0-223.0","1920x1080","","3779.900000035763","26.59","img/238/3.5/0.5/bw/001.png","","","appealing"
"","","","","","animation","224","1486861","0.0-224.0","1920x1080","","2777.300000011921","3.44","img/238/2.5/1.5/bw/001.png","","","appealing"
"","","","","","animation","225","1489595","0.0-225.0","1920x1080","","2732.199999988079","22.88","img/117/4.5/1.5/bw/001.png","","","appealing"
"","","","","","animation","226","1492762","0.0-226.0","1920x1080","","3165.800000011921","30.16","img/117/4/1.5/bw/001.png","","","appealing"
"","","","","","animation","227","1495845","0.0-227.0","1920x1080","","3082.2999999523163","63.49","img/117/5.5/0.66667/bw/001.png","","","appealing"
"","","","","","animation","228","1498514","0.0-228.0","1920x1080","","2668.399999976158","31.35","img/238/3.5/1.5/bw/001.png","","","appealing"
"","","","","","animation","229","1500978","0.0-229.0","1920x1080","","2462.600000023842","22.22","img/314/4/0.5/bw/001.png","","","appealing"
"","","","","","animation","230","1503514","0.0-230.0","1920x1080","","2534.699999988079","28","img/314/3.5/1.5/bw/001.png","","","appealing"
"","","","","","animation","231","1509187","0.0-231.0","1920x1080","","5671.199999988079","16","img/117/4/0.66667/bw/001.png","","","appealing"
"","","","","","animation","232","1512251","0.0-232.0","1920x1080","","3062.5","21.03","img/238/3.5/2/bw/001.png","","","appealing"
"","","","","","animation","233","1514363","0.0-233.0","1920x1080","","2110.7000000476837","59.66","img/314/5.5/0.5/bw/001.png","","","appealing"
"","","","","","animation","234","1517561","0.0-234.0","1920x1080","","3197.100000023842","35.32","img/238/4.5/0.66667/bw/001.png","","","appealing"
"","","","","","animation","235","1521128","0.0-235.0","1920x1080","","3565.599999964237","32.80","img/117/4/2/bw/001.png","","","appealing"
"","","","","","html-button-response","236","1540051","0.0-236.0","1920x1080","","18921.80000001192","","<div class=""intro"">You are about to view a new series of animations.<br><br></div><div class=""intro"">You will evaluate them based on a different descriptor.<br><br></div><div class=""intro"">Move the slider to indicate how <strong style=""text-transform:capitalize"">RELAXING</strong> you find each animation.<br><br></div><div class=""intro"">0 = Least Relaxing<br></div><div class=""intro"">1 = Most Relaxing<br><br></div><div class=""intro"">Remember to use the <strong><em>entire range</em></strong> of the slider to make your ratings.<br></div><div class=""intro"">Please <strong><em>take your time</em></strong> and carefully consider each rating you make.<br><br></div>","0","",""
"","","","","","call-function","237","1540052","0.0-237.0","1920x1080","","","","","","",""
"","","","","","animation","238","1546499","0.0-238.0","1920x1080","","6446.300000011921","31","img/314/4/1/bw/001.png","","","relaxing"
"","","","","","animation","239","1549127","0.0-239.0","1920x1080","","2627.399999976158","17.99","img/117/4/1/bw/001.png","","","relaxing"
"","","","","","animation","240","1552660","0.0-240.0","1920x1080","","3531.199999988079","5.69","img/238/3.5/1.5/bw/001.png","","","relaxing"
"","","","","","animation","241","1555203","0.0-241.0","1920x1080","","2541.300000011921","6","img/238/3.5/2/bw/001.png","","","relaxing"
"","","","","","animation","242","1558113","0.0-242.0","1920x1080","","2910.399999976158","51.98","img/314/4.5/2/bw/001.png","","","relaxing"
"","","","","","animation","243","1561161","0.0-243.0","1920x1080","","3046.800000011921","0","img/314/2.5/1/bw/001.png","","","relaxing"
"","","","","","animation","244","1563792","0.0-244.0","1920x1080","","2629.699999988079","7.14","img/238/3.5/1/bw/001.png","","","relaxing"
"","","","","","animation","245","1567409","0.0-245.0","1920x1080","","3615","89","img/117/5.5/1.5/bw/001.png","","","relaxing"
"","","","","","animation","246","1570265","0.0-246.0","1920x1080","","2854.5","23.68","img/314/3.5/0.66667/bw/001.png","","","relaxing"
"","","","","","animation","247","1574209","0.0-247.0","1920x1080","","3942.899999976158","43.78","img/238/4.5/1.5/bw/001.png","","","relaxing"
"","","","","","animation","248","1576793","0.0-248.0","1920x1080","","2582.699999988079","0","img/238/2.5/0.5/bw/001.png","","","relaxing"
"","","","","","animation","249","1579676","0.0-249.0","1920x1080","","2881.900000035763","7.01","img/117/3.5/0.5/bw/001.png","","","relaxing"
"","","","","","animation","250","1581759","0.0-250.0","1920x1080","","2082.300000011921","66.40","img/238/5.5/0.5/bw/001.png","","","relaxing"
"","","","","","animation","251","1585510","0.0-251.0","1920x1080","","3749.400000035763","30.03","img/314/3.5/2/bw/001.png","","","relaxing"
"","","","","","animation","252","1587742","0.0-252.0","1920x1080","","2231.5","29.63","img/314/3.5/1/bw/001.png","","","relaxing"
"","","","","","animation","253","1590392","0.0-253.0","1920x1080","","2648.7999999523163","81.61","img/117/5.5/2/bw/001.png","","","relaxing"
"","","","","","animation","254","1592992","0.0-254.0","1920x1080","","2598.5","41.01","img/117/5.5/0.5/bw/001.png","","","relaxing"
"","","","","","animation","255","1595926","0.0-255.0","1920x1080","","2933","0.13","img/238/2.5/1/bw/001.png","","","relaxing"
"","","","","","animation","256","1598865","0.0-256.0","1920x1080","","2937.199999988079","1","img/117/3.5/1.5/bw/001.png","","","relaxing"
"","","","","","animation","257","1601242","0.0-257.0","1920x1080","","2376.5","83","img/314/5.5/0.5/bw/001.png","","","relaxing"
"","","","","","animation","258","1603292","0.0-258.0","1920x1080","","2048.599999964237","83.47","img/117/5.5/0.66667/bw/001.png","","","relaxing"
"","","","","","animation","259","1607392","0.0-259.0","1920x1080","","4098.899999976158","100","img/238/5.5/1.5/bw/001.png","","","relaxing"
"","","","","","animation","260","1610976","0.0-260.0","1920x1080","","3582.300000011921","23.02","img/117/4/1.5/bw/001.png","","","relaxing"
"","","","","","animation","261","1614059","0.0-261.0","1920x1080","","3081.199999988079","73.28","img/314/5.5/1/bw/001.png","","","relaxing"
"","","","","","animation","262","1617032","0.0-262.0","1920x1080","","2972.899999976158","0.79","img/314/2.5/0.5/bw/001.png","","","relaxing"
"","","","","","animation","263","1621391","0.0-263.0","1920x1080","","4358.099999964237","2","img/238/2.5/1.5/bw/001.png","","","relaxing"
"","","","","","animation","264","1623974","0.0-264.0","1920x1080","","2582.100000023842","26","img/314/4.5/1.5/bw/001.png","","","relaxing"
"","","","","","animation","265","1626616","0.0-265.0","1920x1080","","2640","66.40","img/238/5.5/1/bw/001.png","","","relaxing"
"","","","","","animation","266","1629248","0.0-266.0","1920x1080","","2630.599999964237","27.78","img/314/4.5/0.5/bw/001.png","","","relaxing"
"","","","","","animation","267","1631927","0.0-267.0","1920x1080","","2678.399999976158","17.99","img/314/4/2/bw/001.png","","","relaxing"
"","","","","","animation","268","1634232","0.0-268.0","1920x1080","","2303.100000023842","80.03","img/117/5.5/1/bw/001.png","","","relaxing"
"","","","","","animation","269","1637311","0.0-269.0","1920x1080","","3078.399999976158","0.93","img/117/2.5/2/bw/001.png","","","relaxing"
"","","","","","animation","270","1641558","0.0-270.0","1920x1080","","4245.400000035763","30","img/238/4/1.5/bw/001.png","","","relaxing"
"","","","","","animation","271","1643941","0.0-271.0","1920x1080","","2382.300000011921","32.67","img/238/4/1/bw/001.png","","","relaxing"
"","","","","","animation","272","1646558","0.0-272.0","1920x1080","","2615.199999988079","21.83","img/117/3.5/0.66667/bw/001.png","","","relaxing"
"","","","","","animation","273","1648541","0.0-273.0","1920x1080","","1982.3999999761581","20.77","img/117/4.5/1.5/bw/001.png","","","relaxing"
"","","","","","animation","274","1651675","0.0-274.0","1920x1080","","3132.300000011921","15.87","img/117/4/0.5/bw/001.png","","","relaxing"
"","","","","","animation","275","1654343","0.0-275.0","1920x1080","","2667.2999999523163","17.20","img/238/4.5/0.5/bw/001.png","","","relaxing"
"","","","","","animation","276","1657431","0.0-276.0","1920x1080","","3086.600000023842","0","img/238/2.5/0.66667/bw/001.png","","","relaxing"
"","","","","","animation","277","1660541","0.0-277.0","1920x1080","","3109.100000023842","0.53","img/117/2.5/1/bw/001.png","","","relaxing"
"","","","","","animation","278","1664295","0.0-278.0","1920x1080","","3752.5","6.88","img/117/3.5/1/bw/001.png","","","relaxing"
"","","","","","animation","279","1667680","0.0-279.0","1920x1080","","3382.699999988079","1.19","img/238/2.5/2/bw/001.png","","","relaxing"
"","","","","","animation","280","1671108","0.0-280.0","1920x1080","","3427.100000023842","1.59","img/117/4.5/0.66667/bw/001.png","","","relaxing"
"","","","","","animation","281","1674497","0.0-281.0","1920x1080","","3388.300000011921","75.53","img/314/5.5/2/bw/001.png","","","relaxing"
"","","","","","animation","282","1677847","0.0-282.0","1920x1080","","3347.600000023842","24.07","img/314/4/1.5/bw/001.png","","","relaxing"
"","","","","","animation","283","1680542","0.0-283.0","1920x1080","","2694.2999999523163","13","img/238/4/0.5/bw/001.png","","","relaxing"
"","","","","","animation","284","1683023","0.0-284.0","1920x1080","","2479.699999988079","25.66","img/238/4/0.66667/bw/001.png","","","relaxing"
"","","","","","animation","285","1685007","0.0-285.0","1920x1080","","1982.8999999761581","30.56","img/238/4.5/0.66667/bw/001.png","","","relaxing"
"","","","","","animation","286","1687907","0.0-286.0","1920x1080","","2898","49.21","img/117/4.5/1/bw/001.png","","","relaxing"
"","","","","","animation","287","1690691","0.0-287.0","1920x1080","","2782.300000011921","2.12","img/314/2.5/0.66667/bw/001.png","","","relaxing"
"","","","","","animation","288","1694691","0.0-288.0","1920x1080","","3998.900000035763","39","img/117/4.5/2/bw/001.png","","","relaxing"
"","","","","","animation","289","1696942","0.0-289.0","1920x1080","","2250.400000035763","23.54","img/314/4.5/0.66667/bw/001.png","","","relaxing"
"","","","","","animation","290","1699591","0.0-290.0","1920x1080","","2647","73.81","img/238/5.5/0.66667/bw/001.png","","","relaxing"
"","","","","","animation","291","1702663","0.0-291.0","1920x1080","","3071","1.72","img/314/2.5/1.5/bw/001.png","","","relaxing"
"","","","","","animation","292","1707007","0.0-292.0","1920x1080","","4343.300000011921","0.13","img/117/2.5/0.5/bw/001.png","","","relaxing"
"","","","","","animation","293","1709340","0.0-293.0","1920x1080","","2331.899999976158","14.68","img/314/3.5/0.5/bw/001.png","","","relaxing"
"","","","","","animation","294","1711647","0.0-294.0","1920x1080","","2305.100000023842","22.35","img/238/3.5/0.66667/bw/001.png","","","relaxing"
"","","","","","animation","295","1715374","0.0-295.0","1920x1080","","3726.599999964237","41.27","img/314/4.5/1/bw/001.png","","","relaxing"
"","","","","","animation","296","1717941","0.0-296.0","1920x1080","","2565.099999964237","36.24","img/117/4/2/bw/001.png","","","relaxing"
"","","","","","animation","297","1723374","0.0-297.0","1920x1080","","5431.600000023842","0","img/314/2.5/2/bw/001.png","","","relaxing"
"","","","","","animation","298","1725582","0.0-298.0","1920x1080","","2206.800000011921","11.64","img/117/4/0.66667/bw/001.png","","","relaxing"
"","","","","","animation","299","1727679","0.0-299.0","1920x1080","","2095.800000011921","14.55","img/314/4/0.66667/bw/001.png","","","relaxing"
"","","","","","animation","300","1729990","0.0-300.0","1920x1080","","2310.199999988079","67.59","img/238/4.5/2/bw/001.png","","","relaxing"
"","","","","","animation","301","1732194","0.0-301.0","1920x1080","","2202.600000023842","11.11","img/238/3.5/0.5/bw/001.png","","","relaxing"
"","","","","","animation","302","1735142","0.0-302.0","1920x1080","","2946.599999964237","0","img/117/2.5/1.5/bw/001.png","","","relaxing"
"","","","","","animation","303","1737926","0.0-303.0","1920x1080","","2782.699999988079","0.13","img/117/2.5/0.66667/bw/001.png","","","relaxing"
"","","","","","animation","304","1742150","0.0-304.0","1920x1080","","4223.199999988079","24","img/314/3.5/1.5/bw/001.png","","","relaxing"
"","","","","","animation","305","1744791","0.0-305.0","1920x1080","","2638.399999976158","77.91","img/314/5.5/0.66667/bw/001.png","","","relaxing"
"","","","","","animation","306","1747478","0.0-306.0","1920x1080","","2686","30.82","img/238/4/2/bw/001.png","","","relaxing"
"","","","","","animation","307","1750094","0.0-307.0","1920x1080","","2615","38.23","img/238/4.5/1/bw/001.png","","","relaxing"
"","","","","","animation","308","1753246","0.0-308.0","1920x1080","","3151.100000023842","26.32","img/117/4.5/0.5/bw/001.png","","","relaxing"
"","","","","","animation","309","1755430","0.0-309.0","1920x1080","","2182","24.07","img/314/4/0.5/bw/001.png","","","relaxing"
"","","","","","animation","310","1758222","0.0-310.0","1920x1080","","2791.400000035763","74.60","img/314/5.5/1.5/bw/001.png","","","relaxing"
"","","","","","animation","311","1760907","0.0-311.0","1920x1080","","2683.399999976158","38.36","img/117/3.5/2/bw/001.png","","","relaxing"
"","","","","","animation","312","1763414","0.0-312.0","1920x1080","","2506","76.06","img/238/5.5/2/bw/001.png","","","relaxing"
"","","","","","html-button-response","313","1800051","0.0-313.0","1920x1080","","36623.69999998808","","<div class=""intro"">You are about to view a new series of animations.<br><br></div><div class=""intro"">You will evaluate them based on a different descriptor.<br><br></div><div class=""intro"">Move the slider to indicate how <strong style=""text-transform:capitalize"">INTERESTING</strong> you find each animation.<br><br></div><div class=""intro"">0 = Least Interesting<br></div><div class=""intro"">1 = Most Interesting<br><br></div><div class=""intro"">Remember to use the <strong><em>entire range</em></strong> of the slider to make your ratings.<br></div><div class=""intro"">Please <strong><em>take your time</em></strong> and carefully consider each rating you make.<br><br></div>","0","",""
"","","","","","call-function","314","1800054","0.0-314.0","1920x1080","","","","","","",""
"","","","","","animation","315","1803641","0.0-315.0","1920x1080","","3585.300000011921","30.29","img/314/4/1.5/bw/001.png","","","interesting"
"","","","","","animation","316","1806336","0.0-316.0","1920x1080","","2693.899999976158","29.76","img/314/4/2/bw/001.png","","","interesting"
"","","","","","animation","317","1809184","0.0-317.0","1920x1080","","2845.600000023842","54.23","img/117/5.5/1.5/bw/001.png","","","interesting"
"","","","","","animation","318","1812266","0.0-318.0","1920x1080","","3081.199999988079","55.69","img/314/5.5/0.5/bw/001.png","","","interesting"
"","","","","","animation","319","1814689","0.0-319.0","1920x1080","","2421.099999964237","45.63","img/314/4.5/0.5/bw/001.png","","","interesting"
"","","","","","animation","320","1820103","0.0-320.0","1920x1080","","5413.5","73.02","img/117/2.5/2/bw/001.png","","","interesting"
"","","","","","animation","321","1822806","0.0-321.0","1920x1080","","2701","77.51","img/314/3.5/1/bw/001.png","","","interesting"
"","","","","","animation","322","1825076","0.0-322.0","1920x1080","","2269.100000023842","72.75","img/117/4/0.66667/bw/001.png","","","interesting"
"","","","","","animation","323","1828272","0.0-323.0","1920x1080","","3194.100000023842","70.11","img/314/2.5/1.5/bw/001.png","","","interesting"
"","","","","","animation","324","1831240","0.0-324.0","1920x1080","","2966.300000011921","72.88","img/314/5.5/1/bw/001.png","","","interesting"
"","","","","","animation","325","1833538","0.0-325.0","1920x1080","","2297","45.90","img/238/4/2/bw/001.png","","","interesting"
"","","","","","animation","326","1836336","0.0-326.0","1920x1080","","2796.699999988079","71.83","img/117/2.5/0.5/bw/001.png","","","interesting"
"","","","","","animation","327","1838201","0.0-327.0","1920x1080","","1862.9000000357628","69.18","img/314/3.5/0.5/bw/001.png","","","interesting"
"","","","","","animation","328","1840067","0.0-328.0","1920x1080","","1865.2000000476837","73.68","img/314/2.5/1/bw/001.png","","","interesting"
"","","","","","animation","329","1843340","0.0-329.0","1920x1080","","3271.5","74.47","img/117/3.5/1.5/bw/001.png","","","interesting"
"","","","","","animation","330","1845901","0.0-330.0","1920x1080","","2559.300000011921","28.70","img/314/2.5/0.5/bw/001.png","","","interesting"
"","","","","","animation","331","1850518","0.0-331.0","1920x1080","","4615.899999976158","78.97","img/238/4.5/0.5/bw/001.png","","","interesting"
"","","","","","animation","332","1853434","0.0-332.0","1920x1080","","2914.600000023842","77.78","img/238/4/0.66667/bw/001.png","","","interesting"
"","","","","","animation","333","1856689","0.0-333.0","1920x1080","","3253.600000023842","34.79","img/314/4.5/0.66667/bw/001.png","","","interesting"
"","","","","","animation","334","1859501","0.0-334.0","1920x1080","","2811","50.26","img/238/4.5/0.66667/bw/001.png","","","interesting"
"","","","","","animation","335","1863817","0.0-335.0","1920x1080","","4314.600000023842","32","img/314/4/0.5/bw/001.png","","","interesting"
"","","","","","animation","336","1866372","0.0-336.0","1920x1080","","2553.800000011921","16.01","img/238/2.5/0.5/bw/001.png","","","interesting"
"","","","","","animation","337","1868739","0.0-337.0","1920x1080","","2364.600000023842","15.61","img/117/2.5/0.66667/bw/001.png","","","interesting"
"","","","","","animation","338","1872417","0.0-338.0","1920x1080","","3677.300000011921","64.81","img/238/2.5/1.5/bw/001.png","","","interesting"
"","","","","","animation","339","1878369","0.0-339.0","1920x1080","","5950.199999988079","32.14","img/117/4.5/1.5/bw/001.png","","","interesting"
"","","","","","animation","340","1881689","0.0-340.0","1920x1080","","3319","42.59","img/117/4.5/1/bw/001.png","","","interesting"
"","","","","","animation","341","1886489","0.0-341.0","1920x1080","","4798.5","73.02","img/238/5.5/2/bw/001.png","","","interesting"
"","","","","","animation","342","1889818","0.0-342.0","1920x1080","","3327","65.74","img/238/2.5/1/bw/001.png","","","interesting"
"","","","","","animation","343","1892900","0.0-343.0","1920x1080","","3081.199999988079","35.45","img/117/5.5/0.66667/bw/001.png","","","interesting"
"","","","","","animation","344","1895171","0.0-344.0","1920x1080","","2268.900000035763","33.20","img/238/3.5/0.66667/bw/001.png","","","interesting"
"","","","","","animation","345","1898335","0.0-345.0","1920x1080","","3163.300000011921","29.63","img/238/3.5/1.5/bw/001.png","","","interesting"
"","","","","","animation","346","1901034","0.0-346.0","1920x1080","","2695.800000011921","29.37","img/238/4.5/1.5/bw/001.png","","","interesting"
"","","","","","animation","347","1903968","0.0-347.0","1920x1080","","2932.5","63.10","img/238/4/1/bw/001.png","","","interesting"
"","","","","","animation","348","1906521","0.0-348.0","1920x1080","","2551.2999999523163","69.84","img/314/2.5/0.66667/bw/001.png","","","interesting"
"","","","","","animation","349","1910505","0.0-349.0","1920x1080","","3983","30.95","img/117/4/2/bw/001.png","","","interesting"
"","","","","","animation","350","1914478","0.0-350.0","1920x1080","","3970.5","67","img/314/3.5/0.66667/bw/001.png","","","interesting"
"","","","","","animation","351","1918265","0.0-351.0","1920x1080","","3794.100000023842","39.81","img/238/5.5/1.5/bw/001.png","","","interesting"
"","","","","","animation","352","1920710","0.0-352.0","1920x1080","","2443.099999964237","31.48","img/238/3.5/1/bw/001.png","","","interesting"
"","","","","","animation","353","1925084","0.0-353.0","1920x1080","","4373.100000023842","41.27","img/117/3.5/0.5/bw/001.png","","","interesting"
"","","","","","animation","354","1928360","0.0-354.0","1920x1080","","3272.099999964237","71.43","img/314/2.5/2/bw/001.png","","","interesting"
"","","","","","animation","355","1931884","0.0-355.0","1920x1080","","3522.800000011921","76.46","img/238/4/1.5/bw/001.png","","","interesting"
"","","","","","animation","356","1934626","0.0-356.0","1920x1080","","2741","83.99","img/314/5.5/1.5/bw/001.png","","","interesting"
"","","","","","animation","357","1938378","0.0-357.0","1920x1080","","3749.7000000476837","38.10","img/314/4.5/1/bw/001.png","","","interesting"
"","","","","","animation","358","1940881","0.0-358.0","1920x1080","","2502.300000011921","39.55","img/238/4.5/2/bw/001.png","","","interesting"
"","","","","","animation","359","1943827","0.0-359.0","1920x1080","","2944.900000035763","30.42","img/238/2.5/0.66667/bw/001.png","","","interesting"
"","","","","","animation","360","1946884","0.0-360.0","1920x1080","","3054.5","33.20","img/314/5.5/2/bw/001.png","","","interesting"
"","","","","","animation","361","1951793","0.0-361.0","1920x1080","","4907.5","58","img/117/2.5/1.5/bw/001.png","","","interesting"
"","","","","","animation","362","1955349","0.0-362.0","1920x1080","","3554.199999988079","80.42","img/238/5.5/0.5/bw/001.png","","","interesting"
"","","","","","animation","363","1958009","0.0-363.0","1920x1080","","2658.600000023842","68.52","img/117/4/1/bw/001.png","","","interesting"
"","","","","","animation","364","1960997","0.0-364.0","1920x1080","","2986","40.74","img/314/3.5/2/bw/001.png","","","interesting"
"","","","","","animation","365","1968661","0.0-365.0","1920x1080","","7663.199999988079","73.15","img/117/2.5/1/bw/001.png","","","interesting"
"","","","","","animation","366","1978223","0.0-366.0","1920x1080","","9562.5","77.65","img/117/4/1.5/bw/001.png","","","interesting"
"","","","","","animation","367","1982462","0.0-367.0","1920x1080","","4238","82.54","img/238/5.5/1/bw/001.png","","","interesting"
"","","","","","animation","368","1988294","0.0-368.0","1920x1080","","5830.100000023842","98","img/238/5.5/0.66667/bw/001.png","","","interesting"
"","","","","","animation","369","1992623","0.0-369.0","1920x1080","","4327.200000047684","34","img/314/4.5/2/bw/001.png","","","interesting"
"","","","","","animation","370","1995007","0.0-370.0","1920x1080","","2382.099999964237","33.07","img/314/3.5/1.5/bw/001.png","","","interesting"
"","","","","","animation","371","1998774","0.0-371.0","1920x1080","","3765.399999976158","24.07","img/238/2.5/2/bw/001.png","","","interesting"
"","","","","","animation","372","2002439","0.0-372.0","1920x1080","","3663.699999988079","42.72","img/117/4.5/0.5/bw/001.png","","","interesting"
"","","","","","animation","373","2005373","0.0-373.0","1920x1080","","2932.5","38.10","img/238/4.5/1/bw/001.png","","","interesting"
"","","","","","animation","374","2007390","0.0-374.0","1920x1080","","2015.199999988079","36.11","img/117/4.5/0.66667/bw/001.png","","","interesting"
"","","","","","animation","375","2009324","0.0-375.0","1920x1080","","1932.5","30.29","img/314/4/0.66667/bw/001.png","","","interesting"
"","","","","","animation","376","2011668","0.0-376.0","1920x1080","","2342.600000023842","72.35","img/117/5.5/0.5/bw/001.png","","","interesting"
"","","","","","animation","377","2014839","0.0-377.0","1920x1080","","3170.100000023842","21.69","img/238/3.5/2/bw/001.png","","","interesting"
"","","","","","animation","378","2017090","0.0-378.0","1920x1080","","2249.300000011921","26.98","img/117/3.5/0.66667/bw/001.png","","","interesting"
"","","","","","animation","379","2025414","0.0-379.0","1920x1080","","8323.699999988079","82","img/314/5.5/0.66667/bw/001.png","","","interesting"
"","","","","","animation","380","2029273","0.0-380.0","1920x1080","","3856.699999988079","71.43","img/314/4.5/1.5/bw/001.png","","","interesting"
"","","","","","animation","381","2032106","0.0-381.0","1920x1080","","2832.2999999523163","49.34","img/238/4/0.5/bw/001.png","","","interesting"
"","","","","","animation","382","2045762","0.0-382.0","1920x1080","","13643.199999988079","68.92","img/117/3.5/1/bw/001.png","","","interesting"
"","","","","","animation","383","2048204","0.0-383.0","1920x1080","","2440.100000023842","50.53","img/117/5.5/1/bw/001.png","","","interesting"
"","","","","","animation","384","2050909","0.0-384.0","1920x1080","","2703.7000000476837","56.22","img/117/3.5/2/bw/001.png","","","interesting"
"","","","","","animation","385","2053250","0.0-385.0","1920x1080","","2340.5","64.15","img/117/4.5/2/bw/001.png","","","interesting"
"","","","","","animation","386","2055992","0.0-386.0","1920x1080","","2740.600000023842","68.65","img/117/5.5/2/bw/001.png","","","interesting"
"","","","","","animation","387","2058553","0.0-387.0","1920x1080","","2559","30.82","img/238/3.5/0.5/bw/001.png","","","interesting"
"","","","","","animation","388","2061018","0.0-388.0","1920x1080","","2463.399999976158","48.81","img/117/4/0.5/bw/001.png","","","interesting"
"","","","","","animation","389","2063218","0.0-389.0","1920x1080","","2198.800000011921","50.26","img/314/4/1/bw/001.png","","","interesting"
"","","","","","html-button-response","390","2127100","0.0-390.0","1920x1080","","63879.90000003576","","<strong>Study Debriefing</strong><br><p class=""debrief""><strong>Background:</strong> The patterns you rated are called <em>fractals</em>. The term fractal describes a class of irregular curves or shapes for which any suitably chosen part is similar in shape to a given larger or smaller part when magnified or reduced to the same size. Fractal properties are found throughout the natural and manmade world. The series of animations you saw today displayed animated fractal patterns of a varying complexity.</p><p class=""debrief""><strong>Purpose of this study:</strong> We hope to better understand how the perception of static fractals differs from the perception of animated fractals, and how the speed of the animated patterns influences people&apos;s perception of them. Fractals allow us to study the perception of aesthetic properties (e.g. the perceived level of beauty in an image) without using recognizable content, which makes them an excellent tool for studying abstract aesthetic judgement.</p><p class=""debrief""><strong>Your part:</strong> Your participation has helped us to further understand how humans perceive these patterns across different levels of speed and complexity. This research with allow us to better understand how the visual system and brain process our ever-changing visual environments.<p class=""debrief""><strong>Feedback and Further information:</strong> If you have additional questions about this study, please feel free to ask the researcher, Nathan Gonzales-Hess at nhess @ uoregon.edu. If you have any questions concerning your rights as a research participant, please contact Research Compliance Services, 5237 University of Oregon, Eugene, OR 97403, 541-346-2510, or email researchCompliance @ uoregon.edu. You can also email the Human Subjects Coordinator for psychology and linguistics research at hscoord @ uoregon.edu. ","0","",""
"","","","","","html-button-response","391","2130049","0.0-391.0","1920x1080","","2945.199999988079","","Thank you for participating in this study. <br>Please click below to finish the experiment and submit your responses.<br><br>","0","",""
"true","","","","","fullscreen","392","2131052","0.0-392.0","1920x1080","10:29 10/10/2022","","","","","",""
