"success","timeout","failed_images","failed_audio","failed_video","trial_type","trial_index","time_elapsed","internal_node_id","resolution","timeStamp","rt","response","stimulus","button_pressed","value","descriptor"
"true","false","[]","[]","[]","preload","0","3830","0.0-0.0","1920x1080","","","","","","",""
"true","false","[]","[]","[]","preload","1","7667","0.0-1.0","1920x1080","","","","","","",""
"true","false","[]","[]","[]","preload","2","11189","0.0-2.0","1920x1080","","","","","","",""
"true","","","","","fullscreen","3","18292","0.0-3.0","1920x1080","11:7 27/5/2022","","","","","",""
"","","","","","survey-html-form","4","28073","0.0-4.0","1920x1080","","9778.100000023842","{""age"":""20"",""gender"":""Male""}","","","",""
"","","","","","html-button-response","5","73953","0.0-5.0","1920x1080","","45878.90000009537","","<div class=""complex"">You are going to see a series of animations.<br><br></div><div class=""complex"">Move the slider to indicate how <strong style=""text-transform:capitalize"">COMPLEX</strong> you find each animation.<br><br></div><div class=""complex"">0 = Least Complex<br></div><div class=""complex"">1 = Most Complex<br><br></div><div class=""complex"">Remember to use the <strong><em>entire range</em></strong> of the slider to make your ratings.<br></div><div class=""complex"">Please <strong><em>take your time</em></strong> and carefully consider each rating you make.<br><br></div><div class=""complex"">The study has five sections and will take about 45 minutes to complete.<br><br></div>","0","",""
"","","","","","call-function","6","73954","0.0-6.0","1920x1080","","","","","","",""
"","","","","","animation","7","83321","0.0-7.0","1920x1080","","9363.399999976158","85.19","img/117/3.5/1.5/bw/001.png","","","complex"
"","","","","","animation","8","88249","0.0-8.0","1920x1080","","4926.5","68.52","img/117/4/1/bw/001.png","","","complex"
"","","","","","animation","9","91649","0.0-9.0","1920x1080","","3399.0999999046326","62.43","img/238/4/0.5/bw/001.png","","","complex"
"","","","","","animation","10","95145","0.0-10.0","1920x1080","","3495.399999976158","82.67","img/314/2.5/0.5/bw/001.png","","","complex"
"","","","","","animation","11","99066","0.0-11.0","1920x1080","","3918.100000023842","36.51","img/238/4.5/1/bw/001.png","","","complex"
"","","","","","animation","12","102833","0.0-12.0","1920x1080","","3764.6999999284744","22.09","img/314/5.5/1.5/bw/001.png","","","complex"
"","","","","","animation","13","108698","0.0-13.0","1920x1080","","5863.400000095367","30","img/314/4.5/1/bw/001.png","","","complex"
"","","","","","animation","14","113945","0.0-14.0","1920x1080","","5246.899999976158","68.39","img/238/3.5/0.5/bw/001.png","","","complex"
"","","","","","animation","15","116946","0.0-15.0","1920x1080","","2999.399999976158","89.68","img/314/2.5/0.66667/bw/001.png","","","complex"
"","","","","","animation","16","120841","0.0-16.0","1920x1080","","3894.5999999046326","45.11","img/238/3.5/1.5/bw/001.png","","","complex"
"","","","","","animation","17","123489","0.0-17.0","1920x1080","","2647.5","88.36","img/314/2.5/1.5/bw/001.png","","","complex"
"","","","","","animation","18","126665","0.0-18.0","1920x1080","","3175.3000000715256","11.11","img/117/5.5/1.5/bw/001.png","","","complex"
"","","","","","animation","19","129274","0.0-19.0","1920x1080","","2607.2000000476837","89.42","img/238/2.5/2/bw/001.png","","","complex"
"","","","","","animation","20","131610","0.0-20.0","1920x1080","","2335.2000000476837","96","img/117/2.5/1.5/bw/001.png","","","complex"
"","","","","","animation","21","134145","0.0-21.0","1920x1080","","2535.2000000476837","70.90","img/314/4/0.66667/bw/001.png","","","complex"
"","","","","","animation","22","137055","0.0-22.0","1920x1080","","2908.7000000476837","19.71","img/238/4.5/1.5/bw/001.png","","","complex"
"","","","","","animation","23","140969","0.0-23.0","1920x1080","","3912.600000023842","93.25","img/238/2.5/0.66667/bw/001.png","","","complex"
"","","","","","animation","24","147153","0.0-24.0","1920x1080","","6183.5","36.64","img/314/3.5/2/bw/001.png","","","complex"
"","","","","","animation","25","151266","0.0-25.0","1920x1080","","4112.199999928474","96","img/117/2.5/0.5/bw/001.png","","","complex"
"","","","","","animation","26","161169","0.0-26.0","1920x1080","","9902.399999976158","7","img/314/5.5/1/bw/001.png","","","complex"
"","","","","","animation","27","165289","0.0-27.0","1920x1080","","4119.299999952316","5.42","img/238/5.5/0.66667/bw/001.png","","","complex"
"","","","","","animation","28","169137","0.0-28.0","1920x1080","","3847.100000023842","17.46","img/314/5.5/0.5/bw/001.png","","","complex"
"","","","","","animation","29","172250","0.0-29.0","1920x1080","","3111.9000000953674","26.85","img/238/4.5/0.66667/bw/001.png","","","complex"
"","","","","","animation","30","175129","0.0-30.0","1920x1080","","2878.600000023842","29.10","img/314/3.5/1/bw/001.png","","","complex"
"","","","","","animation","31","186753","0.0-31.0","1920x1080","","11623","20.11","img/238/4/1/bw/001.png","","","complex"
"","","","","","animation","32","191114","0.0-32.0","1920x1080","","4359.600000023842","7.80","img/314/5.5/2/bw/001.png","","","complex"
"","","","","","animation","33","193825","0.0-33.0","1920x1080","","2710.600000023842","48.02","img/314/3.5/0.66667/bw/001.png","","","complex"
"","","","","","animation","34","196026","0.0-34.0","1920x1080","","2199.5","39.15","img/314/4/1.5/bw/001.png","","","complex"
"","","","","","animation","35","200514","0.0-35.0","1920x1080","","4487.5","73","img/314/3.5/0.5/bw/001.png","","","complex"
"","","","","","animation","36","205202","0.0-36.0","1920x1080","","4686.199999928474","63","img/117/4.5/0.5/bw/001.png","","","complex"
"","","","","","animation","37","207962","0.0-37.0","1920x1080","","2759.6999999284744","55.82","img/314/4.5/0.5/bw/001.png","","","complex"
"","","","","","animation","38","211714","0.0-38.0","1920x1080","","3751.0999999046326","88.10","img/238/2.5/1/bw/001.png","","","complex"
"","","","","","animation","39","216442","0.0-39.0","1920x1080","","4726.799999952316","25","img/314/4.5/2/bw/001.png","","","complex"
"","","","","","animation","40","220674","0.0-40.0","1920x1080","","4231.200000047684","34","img/238/3.5/2/bw/001.png","","","complex"
"","","","","","animation","41","224642","0.0-41.0","1920x1080","","3967.2999999523163","0","img/238/5.5/1.5/bw/001.png","","","complex"
"","","","","","animation","42","227922","0.0-42.0","1920x1080","","3278.7000000476837","30.69","img/117/4.5/1/bw/001.png","","","complex"
"","","","","","animation","43","231146","0.0-43.0","1920x1080","","3223.5","33.47","img/238/4/0.66667/bw/001.png","","","complex"
"","","","","","animation","44","233900","0.0-44.0","1920x1080","","2753.1999999284744","49.07","img/238/3.5/0.66667/bw/001.png","","","complex"
"","","","","","animation","45","236970","0.0-45.0","1920x1080","","3068.6999999284744","83.20","img/314/2.5/1/bw/001.png","","","complex"
"","","","","","animation","46","244786","0.0-46.0","1920x1080","","7815.399999976158","18.78","img/117/5.5/0.5/bw/001.png","","","complex"
"","","","","","animation","47","248842","0.0-47.0","1920x1080","","4055","8.99","img/238/5.5/2/bw/001.png","","","complex"
"","","","","","animation","48","250906","0.0-48.0","1920x1080","","2063.2999999523163","19.97","img/314/4.5/1.5/bw/001.png","","","complex"
"","","","","","animation","49","253738","0.0-49.0","1920x1080","","2831","27.78","img/117/4.5/0.66667/bw/001.png","","","complex"
"","","","","","animation","50","255674","0.0-50.0","1920x1080","","1935.6000000238419","15.08","img/238/5.5/1/bw/001.png","","","complex"
"","","","","","animation","51","258730","0.0-51.0","1920x1080","","3055.1999999284744","35","img/314/3.5/1.5/bw/001.png","","","complex"
"","","","","","animation","52","261442","0.0-52.0","1920x1080","","2711","34.79","img/238/4/2/bw/001.png","","","complex"
"","","","","","animation","53","265203","0.0-53.0","1920x1080","","3759.100000023842","32.41","img/314/4/1/bw/001.png","","","complex"
"","","","","","animation","54","267780","0.0-54.0","1920x1080","","2575.1999999284744","32.01","img/314/4/2/bw/001.png","","","complex"
"","","","","","animation","55","274291","0.0-55.0","1920x1080","","6510.700000047684","80","img/117/2.5/2/bw/001.png","","","complex"
"","","","","","animation","56","281123","0.0-56.0","1920x1080","","6830.300000071526","23","img/117/5.5/1/bw/001.png","","","complex"
"","","","","","animation","57","289091","0.0-57.0","1920x1080","","7966.5","80","img/117/4/0.5/bw/001.png","","","complex"
"","","","","","animation","58","291518","0.0-58.0","1920x1080","","2426.1999999284744","86.11","img/117/3.5/0.5/bw/001.png","","","complex"
"","","","","","animation","59","296379","0.0-59.0","1920x1080","","4860.100000023842","77.51","img/117/3.5/2/bw/001.png","","","complex"
"","","","","","animation","60","303876","0.0-60.0","1920x1080","","7494.799999952316","37.43","img/238/4/1.5/bw/001.png","","","complex"
"","","","","","animation","61","313059","0.0-61.0","1920x1080","","9182.800000071526","26","img/117/4.5/2/bw/001.png","","","complex"
"","","","","","animation","62","317507","0.0-62.0","1920x1080","","4445.700000047684","35.58","img/117/3.5/1/bw/001.png","","","complex"
"","","","","","animation","63","323771","0.0-63.0","1920x1080","","6262.800000071526","32.01","img/117/4.5/1.5/bw/001.png","","","complex"
"","","","","","animation","64","328339","0.0-64.0","1920x1080","","4566.5","23.15","img/238/4.5/0.5/bw/001.png","","","complex"
"","","","","","animation","65","331171","0.0-65.0","1920x1080","","2831.100000023842","93.39","img/117/2.5/0.66667/bw/001.png","","","complex"
"","","","","","animation","66","337119","0.0-66.0","1920x1080","","5946.299999952316","19.97","img/117/5.5/0.66667/bw/001.png","","","complex"
"","","","","","animation","67","419044","0.0-67.0","1920x1080","","81924.30000007153","36.24","img/238/3.5/1/bw/001.png","","","complex"
"","","","","","animation","68","421637","0.0-68.0","1920x1080","","2591.600000023842","16.53","img/314/5.5/0.66667/bw/001.png","","","complex"
"","","","","","animation","69","423412","0.0-69.0","1920x1080","","1774.6000000238419","28.84","img/117/3.5/0.66667/bw/001.png","","","complex"
"","","","","","animation","70","425636","0.0-70.0","1920x1080","","2222.7000000476837","35","img/117/4/0.66667/bw/001.png","","","complex"
"","","","","","animation","71","431876","0.0-71.0","1920x1080","","6239.299999952316","76.32","img/238/2.5/1.5/bw/001.png","","","complex"
"","","","","","animation","72","438356","0.0-72.0","1920x1080","","6478.899999976158","75.53","img/314/2.5/2/bw/001.png","","","complex"
"","","","","","animation","73","442876","0.0-73.0","1920x1080","","4519.199999928474","23.68","img/117/4/2/bw/001.png","","","complex"
"","","","","","animation","74","446252","0.0-74.0","1920x1080","","3375.600000023842","89.29","img/238/2.5/0.5/bw/001.png","","","complex"
"","","","","","animation","75","451828","0.0-75.0","1920x1080","","5574.799999952316","10","img/117/5.5/2/bw/001.png","","","complex"
"","","","","","animation","76","454269","0.0-76.0","1920x1080","","2440.2000000476837","17.06","img/238/4.5/2/bw/001.png","","","complex"
"","","","","","animation","77","458508","0.0-77.0","1920x1080","","4237.799999952316","94","img/117/2.5/1/bw/001.png","","","complex"
"","","","","","animation","78","460772","0.0-78.0","1920x1080","","2263.3000000715256","83.99","img/314/4/0.5/bw/001.png","","","complex"
"","","","","","animation","79","462964","0.0-79.0","1920x1080","","2191.2999999523163","71","img/117/4/1.5/bw/001.png","","","complex"
"","","","","","animation","80","468319","0.0-80.0","1920x1080","","5354.399999976158","3","img/238/5.5/0.5/bw/001.png","","","complex"
"","","","","","animation","81","472060","0.0-81.0","1920x1080","","3739.399999976158","16.80","img/314/4.5/0.66667/bw/001.png","","","complex"
"","","","","","html-button-response","82","665069","0.0-82.0","1920x1080","","193007","","<div class=""intro"">You are about to view a new series of animations.<br><br></div><div class=""intro"">You will evaluate them based on a different descriptor.<br><br></div><div class=""intro"">Move the slider to indicate how <strong style=""text-transform:capitalize"">INTERESTING</strong> you find each animation.<br><br></div><div class=""intro"">0 = Least Interesting<br></div><div class=""intro"">1 = Most Interesting<br><br></div><div class=""intro"">Remember to use the <strong><em>entire range</em></strong> of the slider to make your ratings.<br></div><div class=""intro"">Please <strong><em>take your time</em></strong> and carefully consider each rating you make.<br><br></div>","0","",""
"","","","","","call-function","83","665074","0.0-83.0","1920x1080","","","","","","",""
"","","","","","animation","84","670957","0.0-84.0","1920x1080","","5880.799999952316","71.69","img/238/3.5/1/bw/001.png","","","interesting"
"","","","","","animation","85","674168","0.0-85.0","1920x1080","","3210.3000000715256","84.26","img/314/2.5/1/bw/001.png","","","interesting"
"","","","","","animation","86","678125","0.0-86.0","1920x1080","","3955.899999976158","65","img/117/5.5/0.66667/bw/001.png","","","interesting"
"","","","","","animation","87","681252","0.0-87.0","1920x1080","","3126.600000023842","19.58","img/238/5.5/1/bw/001.png","","","interesting"
"","","","","","animation","88","685751","0.0-88.0","1920x1080","","4498.300000071526","15","img/117/5.5/2/bw/001.png","","","interesting"
"","","","","","animation","89","688236","0.0-89.0","1920x1080","","2484","24.07","img/117/5.5/1/bw/001.png","","","interesting"
"","","","","","animation","90","690684","0.0-90.0","1920x1080","","2447.2000000476837","43.52","img/117/4.5/1/bw/001.png","","","interesting"
"","","","","","animation","91","693317","0.0-91.0","1920x1080","","2632.100000023842","62.96","img/314/2.5/0.66667/bw/001.png","","","interesting"
"","","","","","animation","92","696260","0.0-92.0","1920x1080","","2942.5","65.34","img/314/3.5/0.5/bw/001.png","","","interesting"
"","","","","","animation","93","700717","0.0-93.0","1920x1080","","4455.799999952316","56.88","img/117/3.5/2/bw/001.png","","","interesting"
"","","","","","animation","94","751475","0.0-94.0","1920x1080","","50757.5","36.64","img/117/4/2/bw/001.png","","","interesting"
"","","","","","animation","95","755659","0.0-95.0","1920x1080","","4183.200000047684","52.51","img/314/2.5/2/bw/001.png","","","interesting"
"","","","","","animation","96","758116","0.0-96.0","1920x1080","","2456.399999976158","57.41","img/314/4/1/bw/001.png","","","interesting"
"","","","","","animation","97","760427","0.0-97.0","1920x1080","","2309.399999976158","57.41","img/238/2.5/2/bw/001.png","","","interesting"
"","","","","","animation","98","762475","0.0-98.0","1920x1080","","2046.8999999761581","66.01","img/117/4.5/0.5/bw/001.png","","","interesting"
"","","","","","animation","99","764316","0.0-99.0","1920x1080","","1840","63.62","img/238/2.5/1/bw/001.png","","","interesting"
"","","","","","animation","100","766986","0.0-100.0","1920x1080","","2670.100000023842","16","img/117/5.5/1.5/bw/001.png","","","interesting"
"","","","","","animation","101","768986","0.0-101.0","1920x1080","","1998.9000000953674","80.56","img/238/2.5/0.5/bw/001.png","","","interesting"
"","","","","","animation","102","771667","0.0-102.0","1920x1080","","2679.5999999046326","68.52","img/314/4/2/bw/001.png","","","interesting"
"","","","","","animation","103","774075","0.0-103.0","1920x1080","","2406.600000023842","20.90","img/238/5.5/2/bw/001.png","","","interesting"
"","","","","","animation","104","775571","0.0-104.0","1920x1080","","1495.3999999761581","36.64","img/238/4.5/0.66667/bw/001.png","","","interesting"
"","","","","","animation","105","777931","0.0-105.0","1920x1080","","2359.9000000953674","25.00","img/314/5.5/1.5/bw/001.png","","","interesting"
"","","","","","animation","106","782722","0.0-106.0","1920x1080","","4790","61.77","img/117/2.5/1/bw/001.png","","","interesting"
"","","","","","animation","107","784732","0.0-107.0","1920x1080","","2008.8999999761581","62.30","img/117/4.5/2/bw/001.png","","","interesting"
"","","","","","animation","108","786971","0.0-108.0","1920x1080","","2237.899999976158","64.55","img/117/3.5/0.66667/bw/001.png","","","interesting"
"","","","","","animation","109","791250","0.0-109.0","1920x1080","","4278.800000071526","21.03","img/314/5.5/1/bw/001.png","","","interesting"
"","","","","","animation","110","794699","0.0-110.0","1920x1080","","3447.100000023842","42.72","img/238/4/0.5/bw/001.png","","","interesting"
"","","","","","animation","111","797182","0.0-111.0","1920x1080","","2482.600000023842","48","img/117/2.5/1.5/bw/001.png","","","interesting"
"","","","","","animation","112","799323","0.0-112.0","1920x1080","","2139.7000000476837","50.93","img/314/4/1.5/bw/001.png","","","interesting"
"","","","","","animation","113","803723","0.0-113.0","1920x1080","","4399.100000023842","44.58","img/314/4.5/1.5/bw/001.png","","","interesting"
"","","","","","animation","114","805642","0.0-114.0","1920x1080","","1919.3000000715256","47.09","img/238/4/1.5/bw/001.png","","","interesting"
"","","","","","animation","115","807258","0.0-115.0","1920x1080","","1614.8999999761581","56.35","img/314/4/0.5/bw/001.png","","","interesting"
"","","","","","animation","116","808764","0.0-116.0","1920x1080","","1506.0999999046326","58.07","img/238/4/0.66667/bw/001.png","","","interesting"
"","","","","","animation","117","811364","0.0-117.0","1920x1080","","2598.6999999284744","59.52","img/238/4/1/bw/001.png","","","interesting"
"","","","","","animation","118","813948","0.0-118.0","1920x1080","","2583","18.78","img/238/5.5/0.5/bw/001.png","","","interesting"
"","","","","","animation","119","816721","0.0-119.0","1920x1080","","2772.9000000953674","25.26","img/238/5.5/0.66667/bw/001.png","","","interesting"
"","","","","","animation","120","818826","0.0-120.0","1920x1080","","2103.4000000953674","35.19","img/238/4.5/2/bw/001.png","","","interesting"
"","","","","","animation","121","821214","0.0-121.0","1920x1080","","2387.2000000476837","62.96","img/117/3.5/0.5/bw/001.png","","","interesting"
"","","","","","animation","122","823473","0.0-122.0","1920x1080","","2258.5999999046326","57.54","img/117/4/1.5/bw/001.png","","","interesting"
"","","","","","animation","123","825306","0.0-123.0","1920x1080","","1831.3999999761581","63.89","img/314/3.5/2/bw/001.png","","","interesting"
"","","","","","animation","124","827265","0.0-124.0","1920x1080","","1958.7000000476837","65.87","img/314/4/0.66667/bw/001.png","","","interesting"
"","","","","","animation","125","828954","0.0-125.0","1920x1080","","1687.6000000238419","63.76","img/238/4.5/1.5/bw/001.png","","","interesting"
"","","","","","animation","126","830865","0.0-126.0","1920x1080","","1910.9000000953674","80.03","img/314/2.5/0.5/bw/001.png","","","interesting"
"","","","","","animation","127","833114","0.0-127.0","1920x1080","","2247.7000000476837","71.30","img/117/3.5/1/bw/001.png","","","interesting"
"","","","","","animation","128","835219","0.0-128.0","1920x1080","","2105","68.12","img/117/3.5/1.5/bw/001.png","","","interesting"
"","","","","","animation","129","838993","0.0-129.0","1920x1080","","3773.0999999046326","32.94","img/314/4.5/0.66667/bw/001.png","","","interesting"
"","","","","","animation","130","841897","0.0-130.0","1920x1080","","2903.100000023842","25.00","img/314/5.5/0.5/bw/001.png","","","interesting"
"","","","","","animation","131","844181","0.0-131.0","1920x1080","","2282.5999999046326","22.75","img/117/4.5/0.66667/bw/001.png","","","interesting"
"","","","","","animation","132","847186","0.0-132.0","1920x1080","","3003.899999976158","14.42","img/238/5.5/1.5/bw/001.png","","","interesting"
"","","","","","animation","133","853731","0.0-133.0","1920x1080","","6544","29.37","img/314/4.5/2/bw/001.png","","","interesting"
"","","","","","animation","134","855532","0.0-134.0","1920x1080","","1800.1000000238419","38","img/314/4.5/0.5/bw/001.png","","","interesting"
"","","","","","animation","135","857465","0.0-135.0","1920x1080","","1933","52.25","img/314/3.5/0.66667/bw/001.png","","","interesting"
"","","","","","animation","136","859215","0.0-136.0","1920x1080","","1748.3999999761581","41.67","img/238/4.5/1/bw/001.png","","","interesting"
"","","","","","animation","137","861331","0.0-137.0","1920x1080","","2115.0999999046326","43.39","img/314/3.5/1.5/bw/001.png","","","interesting"
"","","","","","animation","138","863249","0.0-138.0","1920x1080","","1917.7000000476837","59","img/238/3.5/0.66667/bw/001.png","","","interesting"
"","","","","","animation","139","865016","0.0-139.0","1920x1080","","1767.1000000238419","64.68","img/238/3.5/0.5/bw/001.png","","","interesting"
"","","","","","animation","140","867163","0.0-140.0","1920x1080","","2146.2000000476837","61.77","img/238/3.5/2/bw/001.png","","","interesting"
"","","","","","animation","141","869329","0.0-141.0","1920x1080","","2165.600000023842","62.70","img/238/2.5/1.5/bw/001.png","","","interesting"
"","","","","","animation","142","872504","0.0-142.0","1920x1080","","3174.2000000476837","2.25","img/314/5.5/0.66667/bw/001.png","","","interesting"
"","","","","","animation","143","875664","0.0-143.0","1920x1080","","3158.100000023842","13.10","img/117/5.5/0.5/bw/001.png","","","interesting"
"","","","","","animation","144","877880","0.0-144.0","1920x1080","","2215","83.47","img/117/2.5/0.66667/bw/001.png","","","interesting"
"","","","","","animation","145","880504","0.0-145.0","1920x1080","","2623.600000023842","87.04","img/314/2.5/1.5/bw/001.png","","","interesting"
"","","","","","animation","146","883400","0.0-146.0","1920x1080","","2894.6999999284744","95","img/238/2.5/0.66667/bw/001.png","","","interesting"
"","","","","","animation","147","885200","0.0-147.0","1920x1080","","1799.6000000238419","71.83","img/117/4/0.66667/bw/001.png","","","interesting"
"","","","","","animation","148","887616","0.0-148.0","1920x1080","","2414.899999976158","20.24","img/314/5.5/2/bw/001.png","","","interesting"
"","","","","","animation","149","889832","0.0-149.0","1920x1080","","2215.0999999046326","33.47","img/314/3.5/1/bw/001.png","","","interesting"
"","","","","","animation","150","892480","0.0-150.0","1920x1080","","2647.100000023842","39.95","img/314/4.5/1/bw/001.png","","","interesting"
"","","","","","animation","151","895840","0.0-151.0","1920x1080","","3359.3000000715256","75.93","img/117/2.5/2/bw/001.png","","","interesting"
"","","","","","animation","152","899664","0.0-152.0","1920x1080","","3822.5","27.38","img/238/4.5/0.5/bw/001.png","","","interesting"
"","","","","","animation","153","902104","0.0-153.0","1920x1080","","2439.2000000476837","27.65","img/117/4.5/1.5/bw/001.png","","","interesting"
"","","","","","animation","154","904488","0.0-154.0","1920x1080","","2383.100000023842","16.80","img/238/4/2/bw/001.png","","","interesting"
"","","","","","animation","155","912313","0.0-155.0","1920x1080","","7823.899999976158","87.17","img/117/2.5/0.5/bw/001.png","","","interesting"
"","","","","","animation","156","953719","0.0-156.0","1920x1080","","41406.300000071526","40.74","img/117/4/0.5/bw/001.png","","","interesting"
"","","","","","animation","157","955719","0.0-157.0","1920x1080","","1998.8999999761581","28.70","img/238/3.5/1.5/bw/001.png","","","interesting"
"","","","","","animation","158","957611","0.0-158.0","1920x1080","","1891.6000000238419","31.08","img/117/4/1/bw/001.png","","","interesting"
"","","","","","html-button-response","159","991869","0.0-159.0","1920x1080","","34258.800000071526","","<div class=""intro"">You are about to view a new series of animations.<br><br></div><div class=""intro"">You will evaluate them based on a different descriptor.<br><br></div><div class=""intro"">Move the slider to indicate how <strong style=""text-transform:capitalize"">NATURAL</strong> you find each animation.<br><br></div><div class=""intro"">0 = Least Natural<br></div><div class=""intro"">1 = Most Natural<br><br></div><div class=""intro"">Remember to use the <strong><em>entire range</em></strong> of the slider to make your ratings.<br></div><div class=""intro"">Please <strong><em>take your time</em></strong> and carefully consider each rating you make.<br><br></div>","0","",""
"","","","","","call-function","160","991873","0.0-160.0","1920x1080","","","","","","",""
"","","","","","animation","161","998317","0.0-161.0","1920x1080","","6442.900000095367","94","img/238/5.5/2/bw/001.png","","","natural"
"","","","","","animation","162","1002161","0.0-162.0","1920x1080","","3842.399999976158","8.47","img/117/2.5/1/bw/001.png","","","natural"
"","","","","","animation","163","1004976","0.0-163.0","1920x1080","","2814.3000000715256","3.04","img/314/2.5/1/bw/001.png","","","natural"
"","","","","","animation","164","1007976","0.0-164.0","1920x1080","","2998.5","81.35","img/117/5.5/1/bw/001.png","","","natural"
"","","","","","animation","165","1011442","0.0-165.0","1920x1080","","3465.3000000715256","5","img/314/2.5/1.5/bw/001.png","","","natural"
"","","","","","animation","166","1013477","0.0-166.0","1920x1080","","2033.1000000238419","12.04","img/117/2.5/1.5/bw/001.png","","","natural"
"","","","","","animation","167","1017965","0.0-167.0","1920x1080","","4487.599999904633","26","img/314/3.5/2/bw/001.png","","","natural"
"","","","","","animation","168","1020453","0.0-168.0","1920x1080","","2486.7999999523163","1","img/314/2.5/0.5/bw/001.png","","","natural"
"","","","","","animation","169","1023661","0.0-169.0","1920x1080","","3206.6999999284744","43.52","img/117/3.5/2/bw/001.png","","","natural"
"","","","","","animation","170","1026365","0.0-170.0","1920x1080","","2703","69.97","img/117/5.5/0.5/bw/001.png","","","natural"
"","","","","","animation","171","1030376","0.0-171.0","1920x1080","","4009.8000000715256","19","img/314/2.5/2/bw/001.png","","","natural"
"","","","","","animation","172","1032593","0.0-172.0","1920x1080","","2216.2000000476837","17.86","img/117/3.5/0.5/bw/001.png","","","natural"
"","","","","","animation","173","1036349","0.0-173.0","1920x1080","","3755.2999999523163","19.18","img/117/3.5/1.5/bw/001.png","","","natural"
"","","","","","animation","174","1038376","0.0-174.0","1920x1080","","2026.2000000476837","19.31","img/238/2.5/0.5/bw/001.png","","","natural"
"","","","","","animation","175","1041968","0.0-175.0","1920x1080","","3591","89.68","img/238/5.5/1.5/bw/001.png","","","natural"
"","","","","","animation","176","1045197","0.0-176.0","1920x1080","","3226.899999976158","18","img/314/3.5/0.5/bw/001.png","","","natural"
"","","","","","animation","177","1047661","0.0-177.0","1920x1080","","2462.7999999523163","17.33","img/117/2.5/0.5/bw/001.png","","","natural"
"","","","","","animation","178","1050445","0.0-178.0","1920x1080","","2782.899999976158","24.07","img/314/4/2/bw/001.png","","","natural"
"","","","","","animation","179","1052643","0.0-179.0","1920x1080","","2197.2000000476837","30","img/238/4/2/bw/001.png","","","natural"
"","","","","","animation","180","1054469","0.0-180.0","1920x1080","","1825.1999999284744","34.92","img/238/4/0.66667/bw/001.png","","","natural"
"","","","","","animation","181","1060253","0.0-181.0","1920x1080","","5782.900000095367","78","img/314/5.5/0.5/bw/001.png","","","natural"
"","","","","","animation","182","1062901","0.0-182.0","1920x1080","","2647.0999999046326","12","img/314/2.5/0.66667/bw/001.png","","","natural"
"","","","","","animation","183","1098701","0.0-183.0","1920x1080","","35799.200000047684","16.67","img/238/4/1/bw/001.png","","","natural"
"","","","","","animation","184","1102493","0.0-184.0","1920x1080","","3785.5","87.70","img/314/5.5/2/bw/001.png","","","natural"
"","","","","","animation","185","1104543","0.0-185.0","1920x1080","","2050.100000023842","16.67","img/314/4.5/0.66667/bw/001.png","","","natural"
"","","","","","animation","186","1107948","0.0-186.0","1920x1080","","3404.399999976158","17.86","img/117/4.5/0.5/bw/001.png","","","natural"
"","","","","","animation","187","1110509","0.0-187.0","1920x1080","","2559.7000000476837","28.31","img/238/3.5/2/bw/001.png","","","natural"
"","","","","","animation","188","1113208","0.0-188.0","1920x1080","","2698.7000000476837","11.90","img/238/2.5/0.66667/bw/001.png","","","natural"
"","","","","","animation","189","1116868","0.0-189.0","1920x1080","","3658.5","24.47","img/238/4.5/0.66667/bw/001.png","","","natural"
"","","","","","animation","190","1119084","0.0-190.0","1920x1080","","2215.100000023842","26.98","img/238/4.5/2/bw/001.png","","","natural"
"","","","","","animation","191","1122084","0.0-191.0","1920x1080","","2998.5","21.16","img/117/2.5/2/bw/001.png","","","natural"
"","","","","","animation","192","1123996","0.0-192.0","1920x1080","","1910.1999999284744","21","img/238/4.5/1/bw/001.png","","","natural"
"","","","","","animation","193","1126575","0.0-193.0","1920x1080","","2577.7999999523163","25.00","img/117/3.5/1/bw/001.png","","","natural"
"","","","","","animation","194","1129492","0.0-194.0","1920x1080","","2915.7000000476837","73.68","img/238/5.5/0.5/bw/001.png","","","natural"
"","","","","","animation","195","1132860","0.0-195.0","1920x1080","","3367","44.05","img/238/4.5/0.5/bw/001.png","","","natural"
"","","","","","animation","196","1138932","0.0-196.0","1920x1080","","6071.100000023842","85","img/314/5.5/0.66667/bw/001.png","","","natural"
"","","","","","animation","197","1141100","0.0-197.0","1920x1080","","2166.899999976158","17.86","img/238/2.5/1.5/bw/001.png","","","natural"
"","","","","","animation","198","1143612","0.0-198.0","1920x1080","","2510.8000000715256","16","img/117/4.5/1.5/bw/001.png","","","natural"
"","","","","","animation","199","1145458","0.0-199.0","1920x1080","","1845.5","26.06","img/238/2.5/2/bw/001.png","","","natural"
"","","","","","animation","200","1147316","0.0-200.0","1920x1080","","1856.7000000476837","27.78","img/314/3.5/1.5/bw/001.png","","","natural"
"","","","","","animation","201","1150927","0.0-201.0","1920x1080","","3609.899999976158","19.84","img/238/3.5/0.66667/bw/001.png","","","natural"
"","","","","","animation","202","1153868","0.0-202.0","1920x1080","","2939.399999976158","14.55","img/117/4/1.5/bw/001.png","","","natural"
"","","","","","animation","203","1158992","0.0-203.0","1920x1080","","5122.600000023842","15.61","img/238/2.5/1/bw/001.png","","","natural"
"","","","","","animation","204","1162764","0.0-204.0","1920x1080","","3770.899999976158","26","img/117/4.5/1/bw/001.png","","","natural"
"","","","","","animation","205","1165612","0.0-205.0","1920x1080","","2846.399999976158","15.61","img/238/3.5/0.5/bw/001.png","","","natural"
"","","","","","animation","206","1169100","0.0-206.0","1920x1080","","3487.2999999523163","21.16","img/314/4/0.5/bw/001.png","","","natural"
"","","","","","animation","207","1171859","0.0-207.0","1920x1080","","2757.600000023842","19.18","img/314/4/1/bw/001.png","","","natural"
"","","","","","animation","208","1175392","0.0-208.0","1920x1080","","3532.1999999284744","77.12","img/117/5.5/0.66667/bw/001.png","","","natural"
"","","","","","animation","209","1177396","0.0-209.0","1920x1080","","2002.6000000238419","20","img/117/2.5/0.66667/bw/001.png","","","natural"
"","","","","","animation","210","1181492","0.0-210.0","1920x1080","","4095","96","img/238/5.5/1/bw/001.png","","","natural"
"","","","","","animation","211","1183742","0.0-211.0","1920x1080","","2248.3000000715256","18.65","img/314/3.5/0.66667/bw/001.png","","","natural"
"","","","","","animation","212","1185484","0.0-212.0","1920x1080","","1741.3999999761581","23","img/314/4.5/1/bw/001.png","","","natural"
"","","","","","animation","213","1187028","0.0-213.0","1920x1080","","1543.2000000476837","35.19","img/238/4/0.5/bw/001.png","","","natural"
"","","","","","animation","214","1188732","0.0-214.0","1920x1080","","1703.1000000238419","24.47","img/117/4.5/0.66667/bw/001.png","","","natural"
"","","","","","animation","215","1192151","0.0-215.0","1920x1080","","3418","44.84","img/314/4.5/0.5/bw/001.png","","","natural"
"","","","","","animation","216","1196309","0.0-216.0","1920x1080","","4155.200000047684","28.70","img/314/3.5/1/bw/001.png","","","natural"
"","","","","","animation","217","1198732","0.0-217.0","1920x1080","","2422.600000023842","66.01","img/314/5.5/1/bw/001.png","","","natural"
"","","","","","animation","218","1200628","0.0-218.0","1920x1080","","1894.3000000715256","30.16","img/238/3.5/1/bw/001.png","","","natural"
"","","","","","animation","219","1203332","0.0-219.0","1920x1080","","2703.399999976158","62.30","img/117/4/0.5/bw/001.png","","","natural"
"","","","","","animation","220","1213180","0.0-220.0","1920x1080","","9846.899999976158","64.95","img/117/4/0.66667/bw/001.png","","","natural"
"","","","","","animation","221","1246243","0.0-221.0","1920x1080","","33062.300000071526","27.38","img/117/4/1/bw/001.png","","","natural"
"","","","","","animation","222","1249475","0.0-222.0","1920x1080","","3230.9000000953674","23.81","img/238/4.5/1.5/bw/001.png","","","natural"
"","","","","","animation","223","1252795","0.0-223.0","1920x1080","","3319","19.05","img/314/4.5/2/bw/001.png","","","natural"
"","","","","","animation","224","1256391","0.0-224.0","1920x1080","","3594.899999976158","30.42","img/238/4/1.5/bw/001.png","","","natural"
"","","","","","animation","225","1258474","0.0-225.0","1920x1080","","2082.100000023842","24.74","img/117/4/2/bw/001.png","","","natural"
"","","","","","animation","226","1261691","0.0-226.0","1920x1080","","3215.600000023842","80.29","img/117/5.5/2/bw/001.png","","","natural"
"","","","","","animation","227","1264375","0.0-227.0","1920x1080","","2682.2999999523163","49.34","img/314/4.5/1.5/bw/001.png","","","natural"
"","","","","","animation","228","1267441","0.0-228.0","1920x1080","","3065.8000000715256","90.61","img/117/5.5/1.5/bw/001.png","","","natural"
"","","","","","animation","229","1274227","0.0-229.0","1920x1080","","6784.400000095367","43","img/314/4/1.5/bw/001.png","","","natural"
"","","","","","animation","230","1277115","0.0-230.0","1920x1080","","2887","14.95","img/117/3.5/0.66667/bw/001.png","","","natural"
"","","","","","animation","231","1279363","0.0-231.0","1920x1080","","2246.899999976158","73.68","img/238/5.5/0.66667/bw/001.png","","","natural"
"","","","","","animation","232","1282041","0.0-232.0","1920x1080","","2676.5","97","img/314/5.5/1.5/bw/001.png","","","natural"
"","","","","","animation","233","1286610","0.0-233.0","1920x1080","","4568.899999976158","34","img/117/4.5/2/bw/001.png","","","natural"
"","","","","","animation","234","1288426","0.0-234.0","1920x1080","","1814.5999999046326","21.96","img/238/3.5/1.5/bw/001.png","","","natural"
"","","","","","animation","235","1290440","0.0-235.0","1920x1080","","2013.5","32.94","img/314/4/0.66667/bw/001.png","","","natural"
"","","","","","html-button-response","236","1357541","0.0-236.0","1920x1080","","67099.29999995232","","<div class=""intro"">You are about to view a new series of animations.<br><br></div><div class=""intro"">You will evaluate them based on a different descriptor.<br><br></div><div class=""intro"">Move the slider to indicate how <strong style=""text-transform:capitalize"">APPEALING</strong> you find each animation.<br><br></div><div class=""intro"">0 = Least Appealing<br></div><div class=""intro"">1 = Most Appealing<br><br></div><div class=""intro"">Remember to use the <strong><em>entire range</em></strong> of the slider to make your ratings.<br></div><div class=""intro"">Please <strong><em>take your time</em></strong> and carefully consider each rating you make.<br><br></div>","0","",""
"","","","","","call-function","237","1357545","0.0-237.0","1920x1080","","","","","","",""
"","","","","","animation","238","1361123","0.0-238.0","1920x1080","","3577","11.24","img/238/4/1/bw/001.png","","","appealing"
"","","","","","animation","239","1364506","0.0-239.0","1920x1080","","3382.3000000715256","14.68","img/238/3.5/1/bw/001.png","","","appealing"
"","","","","","animation","240","1366730","0.0-240.0","1920x1080","","2223","17","img/117/4.5/1/bw/001.png","","","appealing"
"","","","","","animation","241","1369306","0.0-241.0","1920x1080","","2574.5","10","img/117/3.5/1/bw/001.png","","","appealing"
"","","","","","animation","242","1371162","0.0-242.0","1920x1080","","1854.7999999523163","6","img/117/3.5/0.5/bw/001.png","","","appealing"
"","","","","","animation","243","1373410","0.0-243.0","1920x1080","","2247","24","img/238/4/1.5/bw/001.png","","","appealing"
"","","","","","animation","244","1375730","0.0-244.0","1920x1080","","2318.399999976158","14","img/238/4/2/bw/001.png","","","appealing"
"","","","","","animation","245","1377858","0.0-245.0","1920x1080","","2126.5","16","img/238/3.5/1.5/bw/001.png","","","appealing"
"","","","","","animation","246","1380506","0.0-246.0","1920x1080","","2647.2999999523163","12.57","img/117/4/0.66667/bw/001.png","","","appealing"
"","","","","","animation","247","1382259","0.0-247.0","1920x1080","","1751.6000000238419","8.99","img/314/3.5/0.5/bw/001.png","","","appealing"
"","","","","","animation","248","1384273","0.0-248.0","1920x1080","","2013.1000000238419","21.83","img/314/4.5/0.5/bw/001.png","","","appealing"
"","","","","","animation","249","1387473","0.0-249.0","1920x1080","","3198.1999999284744","17.72","img/238/4.5/0.5/bw/001.png","","","appealing"
"","","","","","animation","250","1389706","0.0-250.0","1920x1080","","2232.600000023842","20.63","img/117/4.5/0.66667/bw/001.png","","","appealing"
"","","","","","animation","251","1392458","0.0-251.0","1920x1080","","2750.1999999284744","14.68","img/314/4/0.66667/bw/001.png","","","appealing"
"","","","","","animation","252","1394690","0.0-252.0","1920x1080","","2230.6999999284744","45.24","img/238/4.5/1.5/bw/001.png","","","appealing"
"","","","","","animation","253","1399515","0.0-253.0","1920x1080","","4824","62","img/238/3.5/2/bw/001.png","","","appealing"
"","","","","","animation","254","1401514","0.0-254.0","1920x1080","","1998.3999999761581","21.30","img/117/4/0.5/bw/001.png","","","appealing"
"","","","","","animation","255","1403914","0.0-255.0","1920x1080","","2398.5999999046326","38.89","img/314/4/2/bw/001.png","","","appealing"
"","","","","","animation","256","1406514","0.0-256.0","1920x1080","","2599.100000023842","5.29","img/238/2.5/1.5/bw/001.png","","","appealing"
"","","","","","animation","257","1409526","0.0-257.0","1920x1080","","3011","1.72","img/314/2.5/1/bw/001.png","","","appealing"
"","","","","","animation","258","1419490","0.0-258.0","1920x1080","","9954.899999976158","87","img/117/5.5/0.5/bw/001.png","","","appealing"
"","","","","","animation","259","1420932","0.0-259.0","1920x1080","","1440.5","28.97","img/314/3.5/1.5/bw/001.png","","","appealing"
"","","","","","animation","260","1422906","0.0-260.0","1920x1080","","1972.4000000953674","9.13","img/314/2.5/2/bw/001.png","","","appealing"
"","","","","","animation","261","1425073","0.0-261.0","1920x1080","","2166.7999999523163","89.02","img/314/5.5/0.5/bw/001.png","","","appealing"
"","","","","","animation","262","1428840","0.0-262.0","1920x1080","","3764.899999976158","65.21","img/117/4.5/0.5/bw/001.png","","","appealing"
"","","","","","animation","263","1431425","0.0-263.0","1920x1080","","2583.899999976158","63.23","img/314/4.5/1/bw/001.png","","","appealing"
"","","","","","animation","264","1434625","0.0-264.0","1920x1080","","3198.6999999284744","5","img/238/2.5/0.66667/bw/001.png","","","appealing"
"","","","","","animation","265","1437095","0.0-265.0","1920x1080","","2467.7999999523163","98","img/238/5.5/1.5/bw/001.png","","","appealing"
"","","","","","animation","266","1439714","0.0-266.0","1920x1080","","2617.4000000953674","1","img/238/2.5/0.5/bw/001.png","","","appealing"
"","","","","","animation","267","1443122","0.0-267.0","1920x1080","","3406.600000023842","29.63","img/117/4.5/1.5/bw/001.png","","","appealing"
"","","","","","animation","268","1445130","0.0-268.0","1920x1080","","2006.1000000238419","16.80","img/117/2.5/1.5/bw/001.png","","","appealing"
"","","","","","animation","269","1448406","0.0-269.0","1920x1080","","3275.6999999284744","86.38","img/117/5.5/1.5/bw/001.png","","","appealing"
"","","","","","animation","270","1450708","0.0-270.0","1920x1080","","2300.899999976158","14.55","img/238/2.5/2/bw/001.png","","","appealing"
"","","","","","animation","271","1453398","0.0-271.0","1920x1080","","2689.100000023842","3.31","img/314/2.5/0.66667/bw/001.png","","","appealing"
"","","","","","animation","272","1457482","0.0-272.0","1920x1080","","4082.2999999523163","90","img/238/5.5/2/bw/001.png","","","appealing"
"","","","","","animation","273","1460289","0.0-273.0","1920x1080","","2805.7999999523163","3.44","img/238/2.5/1/bw/001.png","","","appealing"
"","","","","","animation","274","1462357","0.0-274.0","1920x1080","","2066.7999999523163","18.92","img/314/3.5/0.66667/bw/001.png","","","appealing"
"","","","","","animation","275","1466513","0.0-275.0","1920x1080","","4155.200000047684","51","img/238/4.5/1/bw/001.png","","","appealing"
"","","","","","animation","276","1469378","0.0-276.0","1920x1080","","2863.2000000476837","30.29","img/314/4/0.5/bw/001.png","","","appealing"
"","","","","","animation","277","1471172","0.0-277.0","1920x1080","","1792.8999999761581","18.52","img/238/4/0.66667/bw/001.png","","","appealing"
"","","","","","animation","278","1473116","0.0-278.0","1920x1080","","1942.5","28.17","img/117/4/1/bw/001.png","","","appealing"
"","","","","","animation","279","1475311","0.0-279.0","1920x1080","","2193.5","52.25","img/117/4.5/2/bw/001.png","","","appealing"
"","","","","","animation","280","1479089","0.0-280.0","1920x1080","","3777","51.59","img/238/4.5/0.66667/bw/001.png","","","appealing"
"","","","","","animation","281","1481061","0.0-281.0","1920x1080","","1971.5","33.20","img/238/3.5/0.66667/bw/001.png","","","appealing"
"","","","","","animation","282","1484522","0.0-282.0","1920x1080","","3459.2999999523163","88","img/314/5.5/2/bw/001.png","","","appealing"
"","","","","","animation","283","1489625","0.0-283.0","1920x1080","","5101.799999952316","55.42","img/117/4/2/bw/001.png","","","appealing"
"","","","","","animation","284","1491577","0.0-284.0","1920x1080","","1950.4000000953674","65.21","img/314/4.5/0.66667/bw/001.png","","","appealing"
"","","","","","animation","285","1494716","0.0-285.0","1920x1080","","3137","68.12","img/314/4/1.5/bw/001.png","","","appealing"
"","","","","","animation","286","1496763","0.0-286.0","1920x1080","","2044.7000000476837","82.14","img/117/5.5/0.66667/bw/001.png","","","appealing"
"","","","","","animation","287","1500146","0.0-287.0","1920x1080","","3381.7000000476837","15","img/117/2.5/2/bw/001.png","","","appealing"
"","","","","","animation","288","1502440","0.0-288.0","1920x1080","","2292.100000023842","3.31","img/117/2.5/1/bw/001.png","","","appealing"
"","","","","","animation","289","1505924","0.0-289.0","1920x1080","","3482.899999976158","33","img/117/3.5/2/bw/001.png","","","appealing"
"","","","","","animation","290","1508345","0.0-290.0","1920x1080","","2420.5","30.29","img/238/4/0.5/bw/001.png","","","appealing"
"","","","","","animation","291","1510923","0.0-291.0","1920x1080","","2575.399999976158","76.32","img/238/5.5/0.66667/bw/001.png","","","appealing"
"","","","","","animation","292","1513130","0.0-292.0","1920x1080","","2205.7999999523163","83.73","img/314/4.5/1.5/bw/001.png","","","appealing"
"","","","","","animation","293","1515479","0.0-293.0","1920x1080","","2348.1999999284744","12.04","img/117/2.5/0.66667/bw/001.png","","","appealing"
"","","","","","animation","294","1520090","0.0-294.0","1920x1080","","4609.200000047684","93","img/117/5.5/2/bw/001.png","","","appealing"
"","","","","","animation","295","1524873","0.0-295.0","1920x1080","","4782.100000023842","67.86","img/238/4.5/2/bw/001.png","","","appealing"
"","","","","","animation","296","1527842","0.0-296.0","1920x1080","","2967.2999999523163","85","img/238/5.5/0.5/bw/001.png","","","appealing"
"","","","","","animation","297","1530123","0.0-297.0","1920x1080","","2278.5","91.93","img/238/5.5/1/bw/001.png","","","appealing"
"","","","","","animation","298","1531939","0.0-298.0","1920x1080","","1815.7999999523163","6.88","img/117/2.5/0.5/bw/001.png","","","appealing"
"","","","","","animation","299","1533993","0.0-299.0","1920x1080","","2052.600000023842","91.40","img/117/5.5/1/bw/001.png","","","appealing"
"","","","","","animation","300","1535793","0.0-300.0","1920x1080","","1798.7000000476837","30.42","img/117/3.5/0.66667/bw/001.png","","","appealing"
"","","","","","animation","301","1538922","0.0-301.0","1920x1080","","3128","94.05","img/314/5.5/1.5/bw/001.png","","","appealing"
"","","","","","animation","302","1540789","0.0-302.0","1920x1080","","1865.1000000238419","14.42","img/117/4/1.5/bw/001.png","","","appealing"
"","","","","","animation","303","1542925","0.0-303.0","1920x1080","","2135.2999999523163","21.83","img/314/4.5/2/bw/001.png","","","appealing"
"","","","","","animation","304","1545962","0.0-304.0","1920x1080","","3035.5","32.01","img/238/3.5/0.5/bw/001.png","","","appealing"
"","","","","","animation","305","1549777","0.0-305.0","1920x1080","","3814","18.78","img/314/2.5/1.5/bw/001.png","","","appealing"
"","","","","","animation","306","1551795","0.0-306.0","1920x1080","","2016.3000000715256","14.02","img/314/2.5/0.5/bw/001.png","","","appealing"
"","","","","","animation","307","1554625","0.0-307.0","1920x1080","","2829.3000000715256","88","img/314/5.5/1/bw/001.png","","","appealing"
"","","","","","animation","308","1559074","0.0-308.0","1920x1080","","4447","22.49","img/117/3.5/1.5/bw/001.png","","","appealing"
"","","","","","animation","309","1560823","0.0-309.0","1920x1080","","1747.7999999523163","28.17","img/314/4/1/bw/001.png","","","appealing"
"","","","","","animation","310","1562530","0.0-310.0","1920x1080","","1706","29.76","img/314/3.5/2/bw/001.png","","","appealing"
"","","","","","animation","311","1564659","0.0-311.0","1920x1080","","2127.3000000715256","87","img/314/5.5/0.66667/bw/001.png","","","appealing"
"","","","","","animation","312","1567315","0.0-312.0","1920x1080","","2654.7000000476837","30.03","img/314/3.5/1/bw/001.png","","","appealing"
"","","","","","html-button-response","313","1622642","0.0-313.0","1920x1080","","55325.299999952316","","<div class=""intro"">You are about to view a new series of animations.<br><br></div><div class=""intro"">You will evaluate them based on a different descriptor.<br><br></div><div class=""intro"">Move the slider to indicate how <strong style=""text-transform:capitalize"">RELAXING</strong> you find each animation.<br><br></div><div class=""intro"">0 = Least Relaxing<br></div><div class=""intro"">1 = Most Relaxing<br><br></div><div class=""intro"">Remember to use the <strong><em>entire range</em></strong> of the slider to make your ratings.<br></div><div class=""intro"">Please <strong><em>take your time</em></strong> and carefully consider each rating you make.<br><br></div>","0","",""
"","","","","","call-function","314","1622647","0.0-314.0","1920x1080","","","","","","",""
"","","","","","animation","315","1648555","0.0-315.0","1920x1080","","25907","53","img/314/4/1.5/bw/001.png","","","relaxing"
"","","","","","animation","316","1650780","0.0-316.0","1920x1080","","2222.5","85.98","img/238/5.5/0.66667/bw/001.png","","","relaxing"
"","","","","","animation","317","1653225","0.0-317.0","1920x1080","","2443.7000000476837","11.90","img/117/2.5/0.66667/bw/001.png","","","relaxing"
"","","","","","animation","318","1655773","0.0-318.0","1920x1080","","2546.5","17.59","img/238/3.5/0.66667/bw/001.png","","","relaxing"
"","","","","","animation","319","1657848","0.0-319.0","1920x1080","","2073.5999999046326","26.32","img/117/3.5/0.5/bw/001.png","","","relaxing"
"","","","","","animation","320","1661321","0.0-320.0","1920x1080","","3472.2999999523163","36","img/314/4/1/bw/001.png","","","relaxing"
"","","","","","animation","321","1663114","0.0-321.0","1920x1080","","1791.1000000238419","53.44","img/238/4/2/bw/001.png","","","relaxing"
"","","","","","animation","322","1666172","0.0-322.0","1920x1080","","3056.4000000953674","53.97","img/117/3.5/2/bw/001.png","","","relaxing"
"","","","","","animation","323","1668409","0.0-323.0","1920x1080","","2236.399999976158","3.44","img/314/2.5/1.5/bw/001.png","","","relaxing"
"","","","","","animation","324","1670063","0.0-324.0","1920x1080","","1652.7999999523163","13","img/238/3.5/2/bw/001.png","","","relaxing"
"","","","","","animation","325","1671641","0.0-325.0","1920x1080","","1576.2000000476837","20.50","img/117/3.5/1.5/bw/001.png","","","relaxing"
"","","","","","animation","326","1674122","0.0-326.0","1920x1080","","2479.399999976158","86","img/117/5.5/0.66667/bw/001.png","","","relaxing"
"","","","","","animation","327","1675809","0.0-327.0","1920x1080","","1686.2999999523163","70.11","img/314/4.5/1/bw/001.png","","","relaxing"
"","","","","","animation","328","1678074","0.0-328.0","1920x1080","","2263.7999999523163","89","img/117/5.5/1/bw/001.png","","","relaxing"
"","","","","","animation","329","1679846","0.0-329.0","1920x1080","","1770.5","91.67","img/117/5.5/2/bw/001.png","","","relaxing"
"","","","","","animation","330","1682682","0.0-330.0","1920x1080","","2834.7999999523163","86.11","img/117/5.5/1.5/bw/001.png","","","relaxing"
"","","","","","animation","331","1684993","0.0-331.0","1920x1080","","2309.899999976158","17.72","img/238/4.5/1.5/bw/001.png","","","relaxing"
"","","","","","animation","332","1688577","0.0-332.0","1920x1080","","3581.5","19.44","img/117/4/1.5/bw/001.png","","","relaxing"
"","","","","","animation","333","1691057","0.0-333.0","1920x1080","","2478.4000000953674","87.57","img/314/5.5/0.5/bw/001.png","","","relaxing"
"","","","","","animation","334","1692673","0.0-334.0","1920x1080","","1613.8999999761581","9","img/238/2.5/1/bw/001.png","","","relaxing"
"","","","","","animation","335","1695589","0.0-335.0","1920x1080","","2914.8000000715256","10","img/314/2.5/1/bw/001.png","","","relaxing"
"","","","","","animation","336","1697709","0.0-336.0","1920x1080","","2118.2000000476837","26.19","img/314/4/2/bw/001.png","","","relaxing"
"","","","","","animation","337","1700290","0.0-337.0","1920x1080","","2578.7999999523163","27","img/117/4/1/bw/001.png","","","relaxing"
"","","","","","animation","338","1702507","0.0-338.0","1920x1080","","2215.7999999523163","29.10","img/314/4.5/1.5/bw/001.png","","","relaxing"
"","","","","","animation","339","1704425","0.0-339.0","1920x1080","","1914.6000000238419","43.52","img/117/5.5/0.5/bw/001.png","","","relaxing"
"","","","","","animation","340","1706169","0.0-340.0","1920x1080","","1741","10.32","img/117/2.5/2/bw/001.png","","","relaxing"
"","","","","","animation","341","1708148","0.0-341.0","1920x1080","","1977.4000000953674","5.42","img/314/2.5/0.66667/bw/001.png","","","relaxing"
"","","","","","animation","342","1710790","0.0-342.0","1920x1080","","2640.6999999284744","81.88","img/314/5.5/2/bw/001.png","","","relaxing"
"","","","","","animation","343","1712910","0.0-343.0","1920x1080","","2118.899999976158","58.47","img/238/4.5/2/bw/001.png","","","relaxing"
"","","","","","animation","344","1716203","0.0-344.0","1920x1080","","3292.100000023842","11.38","img/238/3.5/0.5/bw/001.png","","","relaxing"
"","","","","","animation","345","1718535","0.0-345.0","1920x1080","","2330","4.89","img/117/2.5/1/bw/001.png","","","relaxing"
"","","","","","animation","346","1724963","0.0-346.0","1920x1080","","6426.299999952316","68","img/314/4.5/2/bw/001.png","","","relaxing"
"","","","","","animation","347","1727243","0.0-347.0","1920x1080","","2279","5","img/238/2.5/0.66667/bw/001.png","","","relaxing"
"","","","","","animation","348","1729525","0.0-348.0","1920x1080","","2280.5","22.35","img/238/4.5/0.5/bw/001.png","","","relaxing"
"","","","","","animation","349","1731545","0.0-349.0","1920x1080","","2017.4000000953674","14.29","img/314/4/0.66667/bw/001.png","","","relaxing"
"","","","","","animation","350","1733747","0.0-350.0","1920x1080","","2201.100000023842","7.94","img/314/3.5/2/bw/001.png","","","relaxing"
"","","","","","animation","351","1738030","0.0-351.0","1920x1080","","4281.700000047684","80.95","img/238/5.5/0.5/bw/001.png","","","relaxing"
"","","","","","animation","352","1739686","0.0-352.0","1920x1080","","1648.1000000238419","66.01","img/238/4.5/1/bw/001.png","","","relaxing"
"","","","","","animation","353","1742291","0.0-353.0","1920x1080","","2603.899999976158","15.08","img/117/2.5/0.5/bw/001.png","","","relaxing"
"","","","","","animation","354","1744691","0.0-354.0","1920x1080","","2398.2000000476837","25.00","img/117/4.5/1/bw/001.png","","","relaxing"
"","","","","","animation","355","1747174","0.0-355.0","1920x1080","","2482","89","img/238/5.5/2/bw/001.png","","","relaxing"
"","","","","","animation","356","1749464","0.0-356.0","1920x1080","","2287.5","32.01","img/238/4/0.5/bw/001.png","","","relaxing"
"","","","","","animation","357","1751563","0.0-357.0","1920x1080","","2097.899999976158","21.69","img/117/4/0.5/bw/001.png","","","relaxing"
"","","","","","animation","358","1754107","0.0-358.0","1920x1080","","2542.899999976158","16.80","img/117/4/0.66667/bw/001.png","","","relaxing"
"","","","","","animation","359","1756475","0.0-359.0","1920x1080","","2366.5","10","img/314/2.5/2/bw/001.png","","","relaxing"
"","","","","","animation","360","1758449","0.0-360.0","1920x1080","","1973.1999999284744","8.99","img/238/4/1.5/bw/001.png","","","relaxing"
"","","","","","animation","361","1760674","0.0-361.0","1920x1080","","2223.5999999046326","5.69","img/238/2.5/2/bw/001.png","","","relaxing"
"","","","","","animation","362","1764181","0.0-362.0","1920x1080","","3505.2999999523163","86","img/238/5.5/1/bw/001.png","","","relaxing"
"","","","","","animation","363","1766197","0.0-363.0","1920x1080","","2012.3999999761581","12.57","img/314/2.5/0.5/bw/001.png","","","relaxing"
"","","","","","animation","364","1769494","0.0-364.0","1920x1080","","3295.2000000476837","10.05","img/238/2.5/1.5/bw/001.png","","","relaxing"
"","","","","","animation","365","1772827","0.0-365.0","1920x1080","","3330.399999976158","90","img/314/5.5/0.66667/bw/001.png","","","relaxing"
"","","","","","animation","366","1775931","0.0-366.0","1920x1080","","3102.8000000715256","12.83","img/314/3.5/1.5/bw/001.png","","","relaxing"
"","","","","","animation","367","1779053","0.0-367.0","1920x1080","","3119.8000000715256","85","img/238/4/0.66667/bw/001.png","","","relaxing"
"","","","","","animation","368","1782246","0.0-368.0","1920x1080","","3192.2999999523163","15.61","img/117/4/2/bw/001.png","","","relaxing"
"","","","","","animation","369","1785878","0.0-369.0","1920x1080","","3627.4000000953674","18.25","img/117/3.5/0.66667/bw/001.png","","","relaxing"
"","","","","","animation","370","1787845","0.0-370.0","1920x1080","","1965.3999999761581","33.99","img/117/4.5/1.5/bw/001.png","","","relaxing"
"","","","","","animation","371","1790462","0.0-371.0","1920x1080","","2615.7999999523163","25.26","img/314/3.5/0.66667/bw/001.png","","","relaxing"
"","","","","","animation","372","1792760","0.0-372.0","1920x1080","","2295.1999999284744","24.34","img/238/3.5/1/bw/001.png","","","relaxing"
"","","","","","animation","373","1795143","0.0-373.0","1920x1080","","2381.6999999284744","97","img/314/5.5/1.5/bw/001.png","","","relaxing"
"","","","","","animation","374","1797661","0.0-374.0","1920x1080","","2515.899999976158","18.52","img/117/3.5/1/bw/001.png","","","relaxing"
"","","","","","animation","375","1801071","0.0-375.0","1920x1080","","3408.899999976158","37","img/314/4.5/0.5/bw/001.png","","","relaxing"
"","","","","","animation","376","1803262","0.0-376.0","1920x1080","","2190","29.23","img/314/4/0.5/bw/001.png","","","relaxing"
"","","","","","animation","377","1805995","0.0-377.0","1920x1080","","2731","77.78","img/238/5.5/1.5/bw/001.png","","","relaxing"
"","","","","","animation","378","1808414","0.0-378.0","1920x1080","","2417.600000023842","23","img/238/3.5/1.5/bw/001.png","","","relaxing"
"","","","","","animation","379","1810192","0.0-379.0","1920x1080","","1777.1000000238419","26","img/238/4/1/bw/001.png","","","relaxing"
"","","","","","animation","380","1811844","0.0-380.0","1920x1080","","1649.8999999761581","29.63","img/117/4.5/2/bw/001.png","","","relaxing"
"","","","","","animation","381","1813821","0.0-381.0","1920x1080","","1976.5","28.57","img/314/4.5/0.66667/bw/001.png","","","relaxing"
"","","","","","animation","382","1816011","0.0-382.0","1920x1080","","2188.1999999284744","16.14","img/238/2.5/0.5/bw/001.png","","","relaxing"
"","","","","","animation","383","1818190","0.0-383.0","1920x1080","","2175.399999976158","25.13","img/238/4.5/0.66667/bw/001.png","","","relaxing"
"","","","","","animation","384","1820834","0.0-384.0","1920x1080","","2642.600000023842","80.56","img/314/5.5/1/bw/001.png","","","relaxing"
"","","","","","animation","385","1823255","0.0-385.0","1920x1080","","2420","12.70","img/117/2.5/1.5/bw/001.png","","","relaxing"
"","","","","","animation","386","1833980","0.0-386.0","1920x1080","","10720.699999928474","20","img/117/4.5/0.66667/bw/001.png","","","relaxing"
"","","","","","animation","387","1839365","0.0-387.0","1920x1080","","5380.799999952316","15.87","img/314/3.5/0.5/bw/001.png","","","relaxing"
"","","","","","animation","388","1848915","0.0-388.0","1920x1080","","9549.400000095367","21.03","img/117/4.5/0.5/bw/001.png","","","relaxing"
"","","","","","animation","389","1851217","0.0-389.0","1920x1080","","2298.100000023842","11.77","img/314/3.5/1/bw/001.png","","","relaxing"
"","","","","","html-button-response","390","1902836","0.0-390.0","1920x1080","","51614.5","","<strong>Study Debriefing</strong><br><p class=""debrief""><strong>Background:</strong> The patterns you rated are called <em>fractals</em>. The term fractal describes a class of irregular curves or shapes for which any suitably chosen part is similar in shape to a given larger or smaller part when magnified or reduced to the same size. Fractal properties are found throughout the natural and manmade world. The series of animations you saw today displayed animated fractal patterns of a varying complexity.</p><p class=""debrief""><strong>Purpose of this study:</strong> We hope to better understand how the perception of static fractals differs from the perception of animated fractals, and how the speed of the animated patterns influences people&apos;s perception of them. Fractals allow us to study the perception of aesthetic properties (e.g. the perceived level of beauty in an image) without using recognizable content, which makes them an excellent tool for studying abstract aesthetic judgement.</p><p class=""debrief""><strong>Your part:</strong> Your participation has helped us to further understand how humans perceive these patterns across different levels of speed and complexity. This research with allow us to better understand how the visual system and brain process our ever-changing visual environments.<p class=""debrief""><strong>Feedback and Further information:</strong> If you have additional questions about this study, please feel free to ask the researcher, Nathan Gonzales-Hess at nhess @ uoregon.edu. If you have any questions concerning your rights as a research participant, please contact Research Compliance Services, 5237 University of Oregon, Eugene, OR 97403, 541-346-2510, or email researchCompliance @ uoregon.edu. You can also email the Human Subjects Coordinator for psychology and linguistics research at hscoord @ uoregon.edu. ","0","",""
"","","","","","html-button-response","391","1904904","0.0-391.0","1920x1080","","2063.7999999523163","","Thank you for participating in this study. <br>Please click below to finish the experiment and submit your responses.<br><br>","0","",""
"true","","","","","fullscreen","392","1905916","0.0-392.0","1920x1080","11:39 27/5/2022","","","","","",""
