"success","timeout","failed_images","failed_audio","failed_video","trial_type","trial_index","time_elapsed","internal_node_id","resolution","timeStamp","rt","response","stimulus","button_pressed","value","descriptor"
"true","false","[]","[]","[]","preload","0","43484","0.0-0.0","1920x1080","","","","","","",""
"true","false","[]","[]","[]","preload","1","82031","0.0-1.0","1920x1080","","","","","","",""
"true","false","[]","[]","[]","preload","2","123040","0.0-2.0","1920x1080","","","","","","",""
"true","","","","","fullscreen","3","2983090","0.0-3.0","1920x1080","10:59 14/10/2022","","","","","",""
"","","","","","survey-html-form","4","2993015","0.0-4.0","1920x1080","","9921","{""age"":""19"",""gender"":""female""}","","","",""
"","","","","","html-button-response","5","3040215","0.0-5.0","1920x1080","","47198.69999998808","","<div class=""complex"">You are going to see a series of animations.<br><br></div><div class=""complex"">Move the slider to indicate how <strong style=""text-transform:capitalize"">COMPLEX</strong> you find each animation.<br><br></div><div class=""complex"">0 = Least Complex<br></div><div class=""complex"">1 = Most Complex<br><br></div><div class=""complex"">Remember to use the <strong><em>entire range</em></strong> of the slider to make your ratings.<br></div><div class=""complex"">Please <strong><em>take your time</em></strong> and carefully consider each rating you make.<br><br></div><div class=""complex"">The study has five sections and will take about 45 minutes to complete.<br><br></div>","0","",""
"","","","","","call-function","6","3040216","0.0-6.0","1920x1080","","","","","","",""
"","","","","","animation","7","3056382","0.0-7.0","1920x1080","","16164.5","15","img/314/4.5/0.5/bw/001.png","","","complex"
"","","","","","animation","8","3062550","0.0-8.0","1920x1080","","6166.799999982119","16.93","img/117/5.5/1/bw/001.png","","","complex"
"","","","","","animation","9","3074126","0.0-9.0","1920x1080","","11574.90000000596","16.93","img/117/5.5/2/bw/001.png","","","complex"
"","","","","","animation","10","3079406","0.0-10.0","1920x1080","","5278.800000011921","69.71","img/314/3.5/1/bw/001.png","","","complex"
"","","","","","animation","11","3085950","0.0-11.0","1920x1080","","6543.0999999940395","49.47","img/117/5.5/0.66667/bw/001.png","","","complex"
"","","","","","animation","12","3091574","0.0-12.0","1920x1080","","5623.399999976158","66","img/314/3.5/2/bw/001.png","","","complex"
"","","","","","animation","13","3097910","0.0-13.0","1920x1080","","6335.4000000059605","73.68","img/117/3.5/1.5/bw/001.png","","","complex"
"","","","","","animation","14","3105629","0.0-14.0","1920x1080","","7718.199999988079","76.72","img/117/4/0.5/bw/001.png","","","complex"
"","","","","","animation","15","3124494","0.0-15.0","1920x1080","","18863.40000000596","49.74","img/314/4.5/1.5/bw/001.png","","","complex"
"","","","","","animation","16","3132949","0.0-16.0","1920x1080","","8455","60.98","img/238/4.5/0.5/bw/001.png","","","complex"
"","","","","","animation","17","3137845","0.0-17.0","1920x1080","","4895","83.86","img/117/2.5/2/bw/001.png","","","complex"
"","","","","","animation","18","3145910","0.0-18.0","1920x1080","","8063.800000011921","71","img/117/4/2/bw/001.png","","","complex"
"","","","","","animation","19","3150349","0.0-19.0","1920x1080","","4438.399999976158","73.02","img/314/4/0.66667/bw/001.png","","","complex"
"","","","","","animation","20","3165113","0.0-20.0","1920x1080","","14767.40000000596","77.91","img/238/4.5/1.5/bw/001.png","","","complex"
"","","","","","animation","21","3168722","0.0-21.0","1920x1080","","3608","100","img/117/2.5/1.5/bw/001.png","","","complex"
"","","","","","animation","22","3172017","0.0-22.0","1920x1080","","3294.5999999940395","97","img/314/3.5/0.5/bw/001.png","","","complex"
"","","","","","animation","23","3176697","0.0-23.0","1920x1080","","4679","82.80","img/117/4/1.5/bw/001.png","","","complex"
"","","","","","animation","24","3181825","0.0-24.0","1920x1080","","5126.600000023842","39.29","img/117/4.5/2/bw/001.png","","","complex"
"","","","","","animation","25","3192969","0.0-25.0","1920x1080","","11143.59999999404","41.01","img/117/5.5/1.5/bw/001.png","","","complex"
"","","","","","animation","26","3215281","0.0-26.0","1920x1080","","22310.70000001788","39.81","img/238/4.5/1/bw/001.png","","","complex"
"","","","","","animation","27","3217739","0.0-27.0","1920x1080","","2457.0999999940395","93.78","img/117/3.5/0.5/bw/001.png","","","complex"
"","","","","","animation","28","3222259","0.0-28.0","1920x1080","","4517.300000011921","70","img/314/4/2/bw/001.png","","","complex"
"","","","","","animation","29","3225859","0.0-29.0","1920x1080","","3599","10.45","img/314/4.5/2/bw/001.png","","","complex"
"","","","","","animation","30","3230300","0.0-30.0","1920x1080","","4439.699999988079","100","img/117/2.5/0.66667/bw/001.png","","","complex"
"","","","","","animation","31","3241525","0.0-31.0","1920x1080","","11224.200000017881","53","img/238/4/2/bw/001.png","","","complex"
"","","","","","animation","32","3246620","0.0-32.0","1920x1080","","5094.0999999940395","68.25","img/314/4/1.5/bw/001.png","","","complex"
"","","","","","animation","33","3259460","0.0-33.0","1920x1080","","12839.299999982119","20.11","img/238/5.5/1/bw/001.png","","","complex"
"","","","","","animation","34","3271036","0.0-34.0","1920x1080","","11575.100000023842","41.01","img/238/4.5/2/bw/001.png","","","complex"
"","","","","","animation","35","3283331","0.0-35.0","1920x1080","","12294.800000011921","40.21","img/238/4/1.5/bw/001.png","","","complex"
"","","","","","animation","36","3286907","0.0-36.0","1920x1080","","3575.800000011921","96","img/238/3.5/0.5/bw/001.png","","","complex"
"","","","","","animation","37","3291315","0.0-37.0","1920x1080","","4406.800000011921","5.42","img/238/5.5/2/bw/001.png","","","complex"
"","","","","","animation","38","3295395","0.0-38.0","1920x1080","","4078.800000011921","85.32","img/314/2.5/0.5/bw/001.png","","","complex"
"","","","","","animation","39","3307219","0.0-39.0","1920x1080","","11823.59999999404","49.60","img/314/4/1/bw/001.png","","","complex"
"","","","","","animation","40","3319403","0.0-40.0","1920x1080","","12183.100000023842","50.13","img/238/4/0.66667/bw/001.png","","","complex"
"","","","","","animation","41","3321843","0.0-41.0","1920x1080","","2438.600000023842","80.42","img/117/3.5/1/bw/001.png","","","complex"
"","","","","","animation","42","3327075","0.0-42.0","1920x1080","","5232","55","img/238/4.5/0.66667/bw/001.png","","","complex"
"","","","","","animation","43","3331724","0.0-43.0","1920x1080","","4648.200000017881","10.19","img/238/5.5/0.66667/bw/001.png","","","complex"
"","","","","","animation","44","3337395","0.0-44.0","1920x1080","","5669.0999999940395","36.38","img/314/4.5/0.66667/bw/001.png","","","complex"
"","","","","","animation","45","3341050","0.0-45.0","1920x1080","","3655.300000011921","9.66","img/314/5.5/0.66667/bw/001.png","","","complex"
"","","","","","animation","46","3343418","0.0-46.0","1920x1080","","2366.9000000059605","97","img/314/2.5/1.5/bw/001.png","","","complex"
"","","","","","animation","47","3347739","0.0-47.0","1920x1080","","4320.9000000059605","50.13","img/117/4.5/1.5/bw/001.png","","","complex"
"","","","","","animation","48","3351362","0.0-48.0","1920x1080","","3621.5","76.98","img/238/3.5/1.5/bw/001.png","","","complex"
"","","","","","animation","49","3356289","0.0-49.0","1920x1080","","4926.700000017881","100","img/314/2.5/0.66667/bw/001.png","","","complex"
"","","","","","animation","50","3360425","0.0-50.0","1920x1080","","4135.4000000059605","72.88","img/314/3.5/0.66667/bw/001.png","","","complex"
"","","","","","animation","51","3367202","0.0-51.0","1920x1080","","6775.800000011921","45","img/117/3.5/2/bw/001.png","","","complex"
"","","","","","animation","52","3371866","0.0-52.0","1920x1080","","4662.799999982119","55.95","img/238/3.5/1/bw/001.png","","","complex"
"","","","","","animation","53","3374257","0.0-53.0","1920x1080","","2391","11.90","img/117/5.5/0.5/bw/001.png","","","complex"
"","","","","","animation","54","3379098","0.0-54.0","1920x1080","","4839.5999999940395","80.03","img/238/2.5/0.66667/bw/001.png","","","complex"
"","","","","","animation","55","3381441","0.0-55.0","1920x1080","","2342.699999988079","43.92","img/314/4/0.5/bw/001.png","","","complex"
"","","","","","animation","56","3405072","0.0-56.0","1920x1080","","23631.29999998212","5.69","img/314/5.5/1/bw/001.png","","","complex"
"","","","","","animation","57","3409240","0.0-57.0","1920x1080","","4161","94","img/117/3.5/0.66667/bw/001.png","","","complex"
"","","","","","animation","58","3417170","0.0-58.0","1920x1080","","7929.5999999940395","60.85","img/238/4/1/bw/001.png","","","complex"
"","","","","","animation","59","3420456","0.0-59.0","1920x1080","","3284.9000000059605","50","img/117/4/0.66667/bw/001.png","","","complex"
"","","","","","animation","60","3425705","0.0-60.0","1920x1080","","5247.699999988079","6.61","img/314/5.5/2/bw/001.png","","","complex"
"","","","","","animation","61","3430201","0.0-61.0","1920x1080","","4494.4000000059605","3.70","img/238/5.5/1.5/bw/001.png","","","complex"
"","","","","","animation","62","3433489","0.0-62.0","1920x1080","","3287.4000000059605","90.61","img/238/3.5/2/bw/001.png","","","complex"
"","","","","","animation","63","3437138","0.0-63.0","1920x1080","","3647.800000011921","100","img/238/2.5/2/bw/001.png","","","complex"
"","","","","","animation","64","3440505","0.0-64.0","1920x1080","","3366.2000000178814","7.28","img/314/5.5/1.5/bw/001.png","","","complex"
"","","","","","animation","65","3442265","0.0-65.0","1920x1080","","1758.4000000059605","45.90","img/117/4.5/1/bw/001.png","","","complex"
"","","","","","animation","66","3445280","0.0-66.0","1920x1080","","3014.9000000059605","48.41","img/117/4/1/bw/001.png","","","complex"
"","","","","","animation","67","3448172","0.0-67.0","1920x1080","","2890.5","92.06","img/314/2.5/2/bw/001.png","","","complex"
"","","","","","animation","68","3451440","0.0-68.0","1920x1080","","3267.5","100","img/314/2.5/1/bw/001.png","","","complex"
"","","","","","animation","69","3455713","0.0-69.0","1920x1080","","4271.5","55.56","img/117/4.5/0.5/bw/001.png","","","complex"
"","","","","","animation","70","3457960","0.0-70.0","1920x1080","","2246.9000000059605","87.57","img/117/2.5/0.5/bw/001.png","","","complex"
"","","","","","animation","71","3460795","0.0-71.0","1920x1080","","2839.4000000059605","85.32","img/238/2.5/1/bw/001.png","","","complex"
"","","","","","animation","72","3465566","0.0-72.0","1920x1080","","4770","60.05","img/117/4.5/0.66667/bw/001.png","","","complex"
"","","","","","animation","73","3468500","0.0-73.0","1920x1080","","2933","5.42","img/314/5.5/0.5/bw/001.png","","","complex"
"","","","","","animation","74","3471002","0.0-74.0","1920x1080","","2501.7999999821186","97","img/238/2.5/1.5/bw/001.png","","","complex"
"","","","","","animation","75","3474699","0.0-75.0","1920x1080","","3695.800000011921","83.07","img/238/4/0.5/bw/001.png","","","complex"
"","","","","","animation","76","3478995","0.0-76.0","1920x1080","","4294.299999982119","87.17","img/238/2.5/0.5/bw/001.png","","","complex"
"","","","","","animation","77","3482581","0.0-77.0","1920x1080","","3585.5999999940395","100","img/117/2.5/1/bw/001.png","","","complex"
"","","","","","animation","78","3487786","0.0-78.0","1920x1080","","5204.399999976158","46","img/314/4.5/1/bw/001.png","","","complex"
"","","","","","animation","79","3491659","0.0-79.0","1920x1080","","3871.4000000059605","66.53","img/238/3.5/0.66667/bw/001.png","","","complex"
"","","","","","animation","80","3494712","0.0-80.0","1920x1080","","3052.5","67.99","img/314/3.5/1.5/bw/001.png","","","complex"
"","","","","","animation","81","3501566","0.0-81.0","1920x1080","","6851.5999999940395","32.41","img/238/5.5/0.5/bw/001.png","","","complex"
"","","","","","html-button-response","82","3520195","0.0-82.0","1920x1080","","18627.90000000596","","<div class=""intro"">You are about to view a new series of animations.<br><br></div><div class=""intro"">You will evaluate them based on a different descriptor.<br><br></div><div class=""intro"">Move the slider to indicate how <strong style=""text-transform:capitalize"">RELAXING</strong> you find each animation.<br><br></div><div class=""intro"">0 = Least Relaxing<br></div><div class=""intro"">1 = Most Relaxing<br><br></div><div class=""intro"">Remember to use the <strong><em>entire range</em></strong> of the slider to make your ratings.<br></div><div class=""intro"">Please <strong><em>take your time</em></strong> and carefully consider each rating you make.<br><br></div>","0","",""
"","","","","","call-function","83","3520196","0.0-83.0","1920x1080","","","","","","",""
"","","","","","animation","84","3533699","0.0-84.0","1920x1080","","13494.699999988079","49.60","img/117/4.5/1/bw/001.png","","","relaxing"
"","","","","","animation","85","3543924","0.0-85.0","1920x1080","","10223.90000000596","25.26","img/238/4.5/1/bw/001.png","","","relaxing"
"","","","","","animation","86","3547178","0.0-86.0","1920x1080","","3253.5999999940395","-15.21","img/314/2.5/2/bw/001.png","","","relaxing"
"","","","","","animation","87","3551003","0.0-87.0","1920x1080","","3823.199999988079","-12.96","img/238/2.5/2/bw/001.png","","","relaxing"
"","","","","","animation","88","3569131","0.0-88.0","1920x1080","","18126.69999998808","90.08","img/238/5.5/1.5/bw/001.png","","","relaxing"
"","","","","","animation","89","3573347","0.0-89.0","1920x1080","","4210.9000000059605","36.11","img/117/4/1/bw/001.png","","","relaxing"
"","","","","","animation","90","3581072","0.0-90.0","1920x1080","","7726.399999976158","9","img/314/4.5/1.5/bw/001.png","","","relaxing"
"","","","","","animation","91","3592512","0.0-91.0","1920x1080","","11439.399999976158","14.95","img/238/4.5/2/bw/001.png","","","relaxing"
"","","","","","animation","92","3615616","0.0-92.0","1920x1080","","23102.90000000596","56.22","img/314/5.5/0.5/bw/001.png","","","relaxing"
"","","","","","animation","93","3624264","0.0-93.0","1920x1080","","8646.799999982119","32","img/314/4/0.5/bw/001.png","","","relaxing"
"","","","","","animation","94","3648040","0.0-94.0","1920x1080","","23777.09999999404","5.56","img/314/2.5/0.5/bw/001.png","","","relaxing"
"","","","","","animation","95","3659206","0.0-95.0","1920x1080","","11163.09999999404","88.76","img/117/5.5/1.5/bw/001.png","","","relaxing"
"","","","","","animation","96","3667601","0.0-96.0","1920x1080","","8394.100000023842","82.14","img/117/5.5/2/bw/001.png","","","relaxing"
"","","","","","animation","97","3672654","0.0-97.0","1920x1080","","5051.800000011921","75.40","img/117/5.5/0.66667/bw/001.png","","","relaxing"
"","","","","","animation","98","3679222","0.0-98.0","1920x1080","","6566.9000000059605","54.63","img/117/4.5/1.5/bw/001.png","","","relaxing"
"","","","","","animation","99","3682254","0.0-99.0","1920x1080","","3030.7000000178814","-5.95","img/117/2.5/0.5/bw/001.png","","","relaxing"
"","","","","","animation","100","3684526","0.0-100.0","1920x1080","","2271.2999999821186","12.17","img/117/4/0.5/bw/001.png","","","relaxing"
"","","","","","animation","101","3686952","0.0-101.0","1920x1080","","2424.5","22.88","img/238/4/0.66667/bw/001.png","","","relaxing"
"","","","","","animation","102","3691974","0.0-102.0","1920x1080","","5021.800000011921","27.38","img/238/3.5/1.5/bw/001.png","","","relaxing"
"","","","","","animation","103","3695818","0.0-103.0","1920x1080","","3842.5","-12.04","img/314/2.5/1.5/bw/001.png","","","relaxing"
"","","","","","animation","104","3699574","0.0-104.0","1920x1080","","3755.5","38.36","img/314/4/1/bw/001.png","","","relaxing"
"","","","","","animation","105","3702925","0.0-105.0","1920x1080","","3350.5","-5.69","img/117/2.5/1.5/bw/001.png","","","relaxing"
"","","","","","animation","106","3707229","0.0-106.0","1920x1080","","4302.700000017881","22.62","img/314/3.5/0.66667/bw/001.png","","","relaxing"
"","","","","","animation","107","3718973","0.0-107.0","1920x1080","","11743.600000023842","75.93","img/238/5.5/0.5/bw/001.png","","","relaxing"
"","","","","","animation","108","3722030","0.0-108.0","1920x1080","","3055.0999999940395","30.16","img/314/4.5/0.66667/bw/001.png","","","relaxing"
"","","","","","animation","109","3724485","0.0-109.0","1920x1080","","2454.4000000059605","26.85","img/314/4/0.66667/bw/001.png","","","relaxing"
"","","","","","animation","110","3727767","0.0-110.0","1920x1080","","3281.2000000178814","23.54","img/238/4.5/0.5/bw/001.png","","","relaxing"
"","","","","","animation","111","3731037","0.0-111.0","1920x1080","","3269.300000011921","10","img/117/2.5/2/bw/001.png","","","relaxing"
"","","","","","animation","112","3734853","0.0-112.0","1920x1080","","3814.9000000059605","6","img/314/2.5/0.66667/bw/001.png","","","relaxing"
"","","","","","animation","113","3738045","0.0-113.0","1920x1080","","3191.300000011921","28.84","img/117/4.5/0.5/bw/001.png","","","relaxing"
"","","","","","animation","114","3743805","0.0-114.0","1920x1080","","5758.799999982119","24.34","img/117/4/2/bw/001.png","","","relaxing"
"","","","","","animation","115","3747829","0.0-115.0","1920x1080","","4022.5999999940395","11.77","img/314/4.5/0.5/bw/001.png","","","relaxing"
"","","","","","animation","116","3750402","0.0-116.0","1920x1080","","2571.100000023842","10.58","img/314/3.5/1/bw/001.png","","","relaxing"
"","","","","","animation","117","3754701","0.0-117.0","1920x1080","","4297.9000000059605","7.54","img/314/4/2/bw/001.png","","","relaxing"
"","","","","","animation","118","3759262","0.0-118.0","1920x1080","","4559.5","19.05","img/117/3.5/0.66667/bw/001.png","","","relaxing"
"","","","","","animation","119","3763060","0.0-119.0","1920x1080","","3798.2000000178814","43.39","img/314/4/1.5/bw/001.png","","","relaxing"
"","","","","","animation","120","3800988","0.0-120.0","1920x1080","","37926.80000001192","55.03","img/238/4.5/0.66667/bw/001.png","","","relaxing"
"","","","","","animation","121","3808165","0.0-121.0","1920x1080","","7176.5","32.54","img/117/4.5/0.66667/bw/001.png","","","relaxing"
"","","","","","animation","122","3818620","0.0-122.0","1920x1080","","10453.600000023842","60.05","img/238/4.5/1.5/bw/001.png","","","relaxing"
"","","","","","animation","123","3822302","0.0-123.0","1920x1080","","3678.699999988079","0.79","img/117/3.5/1/bw/001.png","","","relaxing"
"","","","","","animation","124","3825670","0.0-124.0","1920x1080","","3367.0999999940395","33.86","img/238/4/1.5/bw/001.png","","","relaxing"
"","","","","","animation","125","3828063","0.0-125.0","1920x1080","","2391.2999999821186","15.61","img/238/3.5/1/bw/001.png","","","relaxing"
"","","","","","animation","126","3838102","0.0-126.0","1920x1080","","10038.40000000596","89","img/117/5.5/1/bw/001.png","","","relaxing"
"","","","","","animation","127","3842311","0.0-127.0","1920x1080","","4207.5","0.93","img/117/3.5/0.5/bw/001.png","","","relaxing"
"","","","","","animation","128","3892093","0.0-128.0","1920x1080","","49783.09999999404","100.26","img/314/5.5/2/bw/001.png","","","relaxing"
"","","","","","animation","129","3895941","0.0-129.0","1920x1080","","3843.0999999940395","5.95","img/238/4/0.5/bw/001.png","","","relaxing"
"","","","","","animation","130","3907967","0.0-130.0","1920x1080","","12024.899999976158","69.84","img/314/5.5/0.66667/bw/001.png","","","relaxing"
"","","","","","animation","131","3913693","0.0-131.0","1920x1080","","5723.299999982119","11.90","img/117/3.5/2/bw/001.png","","","relaxing"
"","","","","","animation","132","3918433","0.0-132.0","1920x1080","","4738.5","0","img/314/2.5/1/bw/001.png","","","relaxing"
"","","","","","animation","133","3957235","0.0-133.0","1920x1080","","38803.29999998212","91.53","img/238/5.5/2/bw/001.png","","","relaxing"
"","","","","","animation","134","3960930","0.0-134.0","1920x1080","","3694.2999999821186","46.30","img/238/4/2/bw/001.png","","","relaxing"
"","","","","","animation","135","3963019","0.0-135.0","1920x1080","","2087.5","24.87","img/314/3.5/1.5/bw/001.png","","","relaxing"
"","","","","","animation","136","3978231","0.0-136.0","1920x1080","","15211.40000000596","70.77","img/314/5.5/1/bw/001.png","","","relaxing"
"","","","","","animation","137","3980866","0.0-137.0","1920x1080","","2634","1.19","img/117/2.5/0.66667/bw/001.png","","","relaxing"
"","","","","","animation","138","3983814","0.0-138.0","1920x1080","","2946.899999976158","44.18","img/314/4.5/1/bw/001.png","","","relaxing"
"","","","","","animation","139","3988597","0.0-139.0","1920x1080","","4782.100000023842","50.79","img/238/5.5/1/bw/001.png","","","relaxing"
"","","","","","animation","140","3991691","0.0-140.0","1920x1080","","3092.399999976158","0","img/117/2.5/1/bw/001.png","","","relaxing"
"","","","","","animation","141","3996035","0.0-141.0","1920x1080","","4342.799999982119","25.26","img/238/4/1/bw/001.png","","","relaxing"
"","","","","","animation","142","3998987","0.0-142.0","1920x1080","","2951.199999988079","8.73","img/117/4/0.66667/bw/001.png","","","relaxing"
"","","","","","animation","143","4007553","0.0-143.0","1920x1080","","8562.09999999404","0","img/314/3.5/0.5/bw/001.png","","","relaxing"
"","","","","","animation","144","4010433","0.0-144.0","1920x1080","","2878.399999976158","10.58","img/314/3.5/2/bw/001.png","","","relaxing"
"","","","","","animation","145","4014917","0.0-145.0","1920x1080","","4482.799999982119","1.72","img/117/4/1.5/bw/001.png","","","relaxing"
"","","","","","animation","146","4018653","0.0-146.0","1920x1080","","3735.300000011921","1.59","img/238/2.5/1/bw/001.png","","","relaxing"
"","","","","","animation","147","4022583","0.0-147.0","1920x1080","","3928.100000023842","40.34","img/117/4.5/2/bw/001.png","","","relaxing"
"","","","","","animation","148","4025983","0.0-148.0","1920x1080","","3399.100000023842","19.05","img/117/3.5/1.5/bw/001.png","","","relaxing"
"","","","","","animation","149","4030567","0.0-149.0","1920x1080","","4583","43.92","img/117/5.5/0.5/bw/001.png","","","relaxing"
"","","","","","animation","150","4033417","0.0-150.0","1920x1080","","2849.7999999821186","18.25","img/238/3.5/0.66667/bw/001.png","","","relaxing"
"","","","","","animation","151","4035983","0.0-151.0","1920x1080","","2564.800000011921","41.01","img/314/4.5/2/bw/001.png","","","relaxing"
"","","","","","animation","152","4039933","0.0-152.0","1920x1080","","3949.4000000059605","57.80","img/238/5.5/0.66667/bw/001.png","","","relaxing"
"","","","","","animation","153","4042150","0.0-153.0","1920x1080","","2215.5","35","img/238/3.5/2/bw/001.png","","","relaxing"
"","","","","","animation","154","4047990","0.0-154.0","1920x1080","","5839.200000017881","80","img/314/5.5/1.5/bw/001.png","","","relaxing"
"","","","","","animation","155","4050622","0.0-155.0","1920x1080","","2630.7999999821186","13.23","img/238/3.5/0.5/bw/001.png","","","relaxing"
"","","","","","animation","156","4053201","0.0-156.0","1920x1080","","2577.9000000059605","0","img/238/2.5/0.66667/bw/001.png","","","relaxing"
"","","","","","animation","157","4056883","0.0-157.0","1920x1080","","3681","0.13","img/238/2.5/1.5/bw/001.png","","","relaxing"
"","","","","","animation","158","4058990","0.0-158.0","1920x1080","","2106","0","img/238/2.5/0.5/bw/001.png","","","relaxing"
"","","","","","html-button-response","159","4084009","0.0-159.0","1920x1080","","25014.5","","<div class=""intro"">You are about to view a new series of animations.<br><br></div><div class=""intro"">You will evaluate them based on a different descriptor.<br><br></div><div class=""intro"">Move the slider to indicate how <strong style=""text-transform:capitalize"">APPEALING</strong> you find each animation.<br><br></div><div class=""intro"">0 = Least Appealing<br></div><div class=""intro"">1 = Most Appealing<br><br></div><div class=""intro"">Remember to use the <strong><em>entire range</em></strong> of the slider to make your ratings.<br></div><div class=""intro"">Please <strong><em>take your time</em></strong> and carefully consider each rating you make.<br><br></div>","0","",""
"","","","","","call-function","160","4084013","0.0-160.0","1920x1080","","","","","","",""
"","","","","","animation","161","4094553","0.0-161.0","1920x1080","","10539.40000000596","96","img/314/5.5/1.5/bw/001.png","","","appealing"
"","","","","","animation","162","4097577","0.0-162.0","1920x1080","","3023","0","img/117/3.5/0.5/bw/001.png","","","appealing"
"","","","","","animation","163","4099853","0.0-163.0","1920x1080","","2275.0999999940395","26.32","img/314/4/1/bw/001.png","","","appealing"
"","","","","","animation","164","4103345","0.0-164.0","1920x1080","","3490.800000011921","0.53","img/117/2.5/0.5/bw/001.png","","","appealing"
"","","","","","animation","165","4108857","0.0-165.0","1920x1080","","5510","29.37","img/314/4.5/0.66667/bw/001.png","","","appealing"
"","","","","","animation","166","4112054","0.0-166.0","1920x1080","","3196.300000011921","15.34","img/117/4/1.5/bw/001.png","","","appealing"
"","","","","","animation","167","4114238","0.0-167.0","1920x1080","","2183","6.75","img/314/3.5/1/bw/001.png","","","appealing"
"","","","","","animation","168","4116745","0.0-168.0","1920x1080","","2505.5999999940395","0","img/314/2.5/1.5/bw/001.png","","","appealing"
"","","","","","animation","169","4126304","0.0-169.0","1920x1080","","9558.59999999404","60.05","img/117/5.5/1/bw/001.png","","","appealing"
"","","","","","animation","170","4129336","0.0-170.0","1920x1080","","3030.4000000059605","0.40","img/117/2.5/1/bw/001.png","","","appealing"
"","","","","","animation","171","4149993","0.0-171.0","1920x1080","","20655.20000001788","79.50","img/238/5.5/2/bw/001.png","","","appealing"
"","","","","","animation","172","4152403","0.0-172.0","1920x1080","","2409.0999999940395","17.46","img/117/3.5/0.66667/bw/001.png","","","appealing"
"","","","","","animation","173","4154704","0.0-173.0","1920x1080","","2300.199999988079","5.03","img/314/3.5/1.5/bw/001.png","","","appealing"
"","","","","","animation","174","4157561","0.0-174.0","1920x1080","","2855.5","32.67","img/117/4.5/0.66667/bw/001.png","","","appealing"
"","","","","","animation","175","4161819","0.0-175.0","1920x1080","","4257","81.22","img/117/5.5/2/bw/001.png","","","appealing"
"","","","","","animation","176","4165386","0.0-176.0","1920x1080","","3565.9000000059605","54.89","img/117/5.5/0.66667/bw/001.png","","","appealing"
"","","","","","animation","177","4167720","0.0-177.0","1920x1080","","2333.5","21.96","img/117/4/1/bw/001.png","","","appealing"
"","","","","","animation","178","4170402","0.0-178.0","1920x1080","","2680.800000011921","1.19","img/314/3.5/0.5/bw/001.png","","","appealing"
"","","","","","animation","179","4173469","0.0-179.0","1920x1080","","3065.5","0","img/238/4.5/0.5/bw/001.png","","","appealing"
"","","","","","animation","180","4184722","0.0-180.0","1920x1080","","11259.09999999404","50.40","img/238/5.5/0.5/bw/001.png","","","appealing"
"","","","","","animation","181","4191498","0.0-181.0","1920x1080","","6772.4000000059605","31","img/117/4/0.66667/bw/001.png","","","appealing"
"","","","","","animation","182","4194402","0.0-182.0","1920x1080","","2903.0999999940395","28.04","img/238/4/0.5/bw/001.png","","","appealing"
"","","","","","animation","183","4197446","0.0-183.0","1920x1080","","3042.7999999821186","0.53","img/117/2.5/2/bw/001.png","","","appealing"
"","","","","","animation","184","4200370","0.0-184.0","1920x1080","","2923","0.00","img/238/2.5/0.5/bw/001.png","","","appealing"
"","","","","","animation","185","4206338","0.0-185.0","1920x1080","","5967.0999999940395","17","img/117/3.5/1.5/bw/001.png","","","appealing"
"","","","","","animation","186","4225563","0.0-186.0","1920x1080","","19223.100000023842","32.14","img/117/4.5/0.5/bw/001.png","","","appealing"
"","","","","","animation","187","4229846","0.0-187.0","1920x1080","","4281.200000017881","3.17","img/238/2.5/0.66667/bw/001.png","","","appealing"
"","","","","","animation","188","4233482","0.0-188.0","1920x1080","","3634.9000000059605","20.63","img/238/3.5/0.5/bw/001.png","","","appealing"
"","","","","","animation","189","4241385","0.0-189.0","1920x1080","","7902.9000000059605","94","img/238/5.5/1/bw/001.png","","","appealing"
"","","","","","animation","190","4246048","0.0-190.0","1920x1080","","4660.5","32.54","img/238/4/1.5/bw/001.png","","","appealing"
"","","","","","animation","191","4248369","0.0-191.0","1920x1080","","2318.699999988079","24.07","img/314/4/1.5/bw/001.png","","","appealing"
"","","","","","animation","192","4252560","0.0-192.0","1920x1080","","4190.5999999940395","100","img/314/5.5/0.66667/bw/001.png","","","appealing"
"","","","","","animation","193","4255161","0.0-193.0","1920x1080","","2599.199999988079","33.86","img/314/4/0.66667/bw/001.png","","","appealing"
"","","","","","animation","194","4257985","0.0-194.0","1920x1080","","2823.0999999940395","0","img/314/2.5/1/bw/001.png","","","appealing"
"","","","","","animation","195","4260953","0.0-195.0","1920x1080","","2966.699999988079","41.93","img/117/4.5/1.5/bw/001.png","","","appealing"
"","","","","","animation","196","4270944","0.0-196.0","1920x1080","","9990.40000000596","39.68","img/314/4.5/0.5/bw/001.png","","","appealing"
"","","","","","animation","197","4275377","0.0-197.0","1920x1080","","4431.9000000059605","47.22","img/314/4.5/2/bw/001.png","","","appealing"
"","","","","","animation","198","4277894","0.0-198.0","1920x1080","","2515.5","24.21","img/314/4/2/bw/001.png","","","appealing"
"","","","","","animation","199","4280833","0.0-199.0","1920x1080","","2937.699999988079","79.10","img/314/5.5/2/bw/001.png","","","appealing"
"","","","","","animation","200","4283753","0.0-200.0","1920x1080","","2918.7999999821186","21.43","img/314/3.5/2/bw/001.png","","","appealing"
"","","","","","animation","201","4285794","0.0-201.0","1920x1080","","2040.0999999940395","31.08","img/238/4.5/1.5/bw/001.png","","","appealing"
"","","","","","animation","202","4288011","0.0-202.0","1920x1080","","2215.9000000059605","26.32","img/117/4/2/bw/001.png","","","appealing"
"","","","","","animation","203","4291244","0.0-203.0","1920x1080","","3231.7000000178814","33.07","img/314/4/0.5/bw/001.png","","","appealing"
"","","","","","animation","204","4293896","0.0-204.0","1920x1080","","2651.2999999821186","84.26","img/314/5.5/0.5/bw/001.png","","","appealing"
"","","","","","animation","205","4296850","0.0-205.0","1920x1080","","2952.0999999940395","24.07","img/238/3.5/1/bw/001.png","","","appealing"
"","","","","","animation","206","4299261","0.0-206.0","1920x1080","","2410","71.30","img/314/4.5/1.5/bw/001.png","","","appealing"
"","","","","","animation","207","4302062","0.0-207.0","1920x1080","","2801.899999976158","14.02","img/238/3.5/1.5/bw/001.png","","","appealing"
"","","","","","animation","208","4304942","0.0-208.0","1920x1080","","2878.5999999940395","97","img/238/5.5/1.5/bw/001.png","","","appealing"
"","","","","","animation","209","4311334","0.0-209.0","1920x1080","","6391.0999999940395","3.57","img/238/2.5/2/bw/001.png","","","appealing"
"","","","","","animation","210","4314566","0.0-210.0","1920x1080","","3230.399999976158","16.14","img/314/3.5/0.66667/bw/001.png","","","appealing"
"","","","","","animation","211","4319724","0.0-211.0","1920x1080","","5156.699999988079","28.17","img/238/4.5/2/bw/001.png","","","appealing"
"","","","","","animation","212","4328182","0.0-212.0","1920x1080","","8456.59999999404","0","img/314/2.5/2/bw/001.png","","","appealing"
"","","","","","animation","213","4344625","0.0-213.0","1920x1080","","16441.19999998808","69.31","img/238/5.5/0.66667/bw/001.png","","","appealing"
"","","","","","animation","214","4348062","0.0-214.0","1920x1080","","3436.2000000178814","15.61","img/117/4/0.5/bw/001.png","","","appealing"
"","","","","","animation","215","4351258","0.0-215.0","1920x1080","","3192.9000000059605","16.01","img/238/4/2/bw/001.png","","","appealing"
"","","","","","animation","216","4356675","0.0-216.0","1920x1080","","5415.799999982119","59","img/117/5.5/0.5/bw/001.png","","","appealing"
"","","","","","animation","217","4359608","0.0-217.0","1920x1080","","2931.2000000178814","0.40","img/238/2.5/1.5/bw/001.png","","","appealing"
"","","","","","animation","218","4363195","0.0-218.0","1920x1080","","3583.0999999940395","0","img/238/2.5/1/bw/001.png","","","appealing"
"","","","","","animation","219","4367849","0.0-219.0","1920x1080","","4652.200000017881","0","img/117/2.5/1.5/bw/001.png","","","appealing"
"","","","","","animation","220","4376497","0.0-220.0","1920x1080","","8646.600000023842","84.66","img/314/5.5/1/bw/001.png","","","appealing"
"","","","","","animation","221","4390627","0.0-221.0","1920x1080","","14127.199999988079","6","img/314/2.5/0.5/bw/001.png","","","appealing"
"","","","","","animation","222","4394937","0.0-222.0","1920x1080","","4308.5999999940395","18.12","img/117/3.5/1/bw/001.png","","","appealing"
"","","","","","animation","223","4398761","0.0-223.0","1920x1080","","3822.9000000059605","36.64","img/117/3.5/2/bw/001.png","","","appealing"
"","","","","","animation","224","4402644","0.0-224.0","1920x1080","","3881.5","12","img/117/2.5/0.66667/bw/001.png","","","appealing"
"","","","","","animation","225","4412369","0.0-225.0","1920x1080","","9723.5","34.79","img/314/4.5/1/bw/001.png","","","appealing"
"","","","","","animation","226","4417953","0.0-226.0","1920x1080","","5582.200000017881","96","img/117/5.5/1.5/bw/001.png","","","appealing"
"","","","","","animation","227","4421209","0.0-227.0","1920x1080","","3261.300000011921","38.89","img/238/4/1/bw/001.png","","","appealing"
"","","","","","animation","228","4426889","0.0-228.0","1920x1080","","5678.200000017881","34.79","img/238/4.5/1/bw/001.png","","","appealing"
"","","","","","animation","229","4431420","0.0-229.0","1920x1080","","4529.800000011921","33.99","img/117/4.5/1/bw/001.png","","","appealing"
"","","","","","animation","230","4435993","0.0-230.0","1920x1080","","4572","0.53","img/238/3.5/2/bw/001.png","","","appealing"
"","","","","","animation","231","4439136","0.0-231.0","1920x1080","","3140.800000011921","5.29","img/238/4/0.66667/bw/001.png","","","appealing"
"","","","","","animation","232","4446786","0.0-232.0","1920x1080","","7649.100000023842","10.05","img/117/4.5/2/bw/001.png","","","appealing"
"","","","","","animation","233","4450053","0.0-233.0","1920x1080","","3265.5999999940395","23.81","img/238/4.5/0.66667/bw/001.png","","","appealing"
"","","","","","animation","234","4455521","0.0-234.0","1920x1080","","5466.5999999940395","0.00","img/314/2.5/0.66667/bw/001.png","","","appealing"
"","","","","","animation","235","4459073","0.0-235.0","1920x1080","","3550.199999988079","5.03","img/238/3.5/0.66667/bw/001.png","","","appealing"
"","","","","","html-button-response","236","4497919","0.0-236.0","1920x1080","","38830.19999998808","","<div class=""intro"">You are about to view a new series of animations.<br><br></div><div class=""intro"">You will evaluate them based on a different descriptor.<br><br></div><div class=""intro"">Move the slider to indicate how <strong style=""text-transform:capitalize"">NATURAL</strong> you find each animation.<br><br></div><div class=""intro"">0 = Least Natural<br></div><div class=""intro"">1 = Most Natural<br><br></div><div class=""intro"">Remember to use the <strong><em>entire range</em></strong> of the slider to make your ratings.<br></div><div class=""intro"">Please <strong><em>take your time</em></strong> and carefully consider each rating you make.<br><br></div>","0","",""
"","","","","","call-function","237","4497923","0.0-237.0","1920x1080","","","","","","",""
"","","","","","animation","238","4508223","0.0-238.0","1920x1080","","10298.5","100","img/238/5.5/2/bw/001.png","","","natural"
"","","","","","animation","239","4514934","0.0-239.0","1920x1080","","6710.199999988079","85.45","img/314/5.5/1/bw/001.png","","","natural"
"","","","","","animation","240","4518575","0.0-240.0","1920x1080","","3638.9000000059605","16.40","img/117/2.5/2/bw/001.png","","","natural"
"","","","","","animation","241","4521375","0.0-241.0","1920x1080","","2798.7000000178814","51.72","img/314/4/1/bw/001.png","","","natural"
"","","","","","animation","242","4524671","0.0-242.0","1920x1080","","3294.9000000059605","48.15","img/314/4.5/1/bw/001.png","","","natural"
"","","","","","animation","243","4531899","0.0-243.0","1920x1080","","7227.5999999940395","91","img/314/5.5/1.5/bw/001.png","","","natural"
"","","","","","animation","244","4534916","0.0-244.0","1920x1080","","3015.0999999940395","77.51","img/238/4.5/2/bw/001.png","","","natural"
"","","","","","animation","245","4537207","0.0-245.0","1920x1080","","2289.5","45.50","img/238/4/2/bw/001.png","","","natural"
"","","","","","animation","246","4539249","0.0-246.0","1920x1080","","2041.4000000059605","34.26","img/314/4.5/0.66667/bw/001.png","","","natural"
"","","","","","animation","247","4544491","0.0-247.0","1920x1080","","5248.9000000059605","15","img/238/4/1/bw/001.png","","","natural"
"","","","","","animation","248","4547610","0.0-248.0","1920x1080","","3117.5999999940395","24.87","img/238/4/0.66667/bw/001.png","","","natural"
"","","","","","animation","249","4550366","0.0-249.0","1920x1080","","2753.4000000059605","34.52","img/314/4/2/bw/001.png","","","natural"
"","","","","","animation","250","4553366","0.0-250.0","1920x1080","","2998.4000000059605","12.04","img/117/3.5/1.5/bw/001.png","","","natural"
"","","","","","animation","251","4556998","0.0-251.0","1920x1080","","3630.4000000059605","5.69","img/314/3.5/2/bw/001.png","","","natural"
"","","","","","animation","252","4567141","0.0-252.0","1920x1080","","10141.90000000596","50","img/117/4/0.5/bw/001.png","","","natural"
"","","","","","animation","253","4570977","0.0-253.0","1920x1080","","3834.5","82.67","img/238/4.5/1/bw/001.png","","","natural"
"","","","","","animation","254","4574107","0.0-254.0","1920x1080","","3127.0999999940395","3.44","img/238/2.5/1.5/bw/001.png","","","natural"
"","","","","","animation","255","4577758","0.0-255.0","1920x1080","","3649.7999999821186","100","img/117/5.5/0.5/bw/001.png","","","natural"
"","","","","","animation","256","4580357","0.0-256.0","1920x1080","","2598.0999999940395","46.56","img/314/4/1.5/bw/001.png","","","natural"
"","","","","","animation","257","4591926","0.0-257.0","1920x1080","","11566.90000000596","49.60","img/238/5.5/1/bw/001.png","","","natural"
"","","","","","animation","258","4597474","0.0-258.0","1920x1080","","5547","73.28","img/238/5.5/0.66667/bw/001.png","","","natural"
"","","","","","animation","259","4599890","0.0-259.0","1920x1080","","2415.300000011921","17.20","img/117/3.5/0.66667/bw/001.png","","","natural"
"","","","","","animation","260","4604183","0.0-260.0","1920x1080","","4290.5","41","img/117/4/0.66667/bw/001.png","","","natural"
"","","","","","animation","261","4607815","0.0-261.0","1920x1080","","3630.699999988079","48.54","img/238/4.5/1.5/bw/001.png","","","natural"
"","","","","","animation","262","4610542","0.0-262.0","1920x1080","","2725.199999988079","29.23","img/117/3.5/2/bw/001.png","","","natural"
"","","","","","animation","263","4619418","0.0-263.0","1920x1080","","8875.40000000596","63","img/117/4.5/1.5/bw/001.png","","","natural"
"","","","","","animation","264","4624525","0.0-264.0","1920x1080","","5105","23","img/238/3.5/0.66667/bw/001.png","","","natural"
"","","","","","animation","265","4634325","0.0-265.0","1920x1080","","9799","100","img/314/5.5/2/bw/001.png","","","natural"
"","","","","","animation","266","4637292","0.0-266.0","1920x1080","","2962.699999988079","36.11","img/238/3.5/0.5/bw/001.png","","","natural"
"","","","","","animation","267","4641975","0.0-267.0","1920x1080","","4681.9000000059605","26.72","img/238/3.5/1/bw/001.png","","","natural"
"","","","","","animation","268","4645663","0.0-268.0","1920x1080","","3686.9000000059605","87.04","img/117/5.5/1.5/bw/001.png","","","natural"
"","","","","","animation","269","4652258","0.0-269.0","1920x1080","","6593.9000000059605","23","img/314/3.5/1/bw/001.png","","","natural"
"","","","","","animation","270","4663141","0.0-270.0","1920x1080","","10882","79.63","img/117/5.5/2/bw/001.png","","","natural"
"","","","","","animation","271","4665223","0.0-271.0","1920x1080","","2079.2999999821186","40.34","img/238/3.5/2/bw/001.png","","","natural"
"","","","","","animation","272","4668090","0.0-272.0","1920x1080","","2865.7999999821186","1.72","img/117/2.5/1/bw/001.png","","","natural"
"","","","","","animation","273","4678039","0.0-273.0","1920x1080","","9948.299999982119","54.37","img/314/4.5/2/bw/001.png","","","natural"
"","","","","","animation","274","4681141","0.0-274.0","1920x1080","","3100.0999999940395","0.79","img/238/2.5/2/bw/001.png","","","natural"
"","","","","","animation","275","4684557","0.0-275.0","1920x1080","","3414","0.13","img/314/2.5/2/bw/001.png","","","natural"
"","","","","","animation","276","4694181","0.0-276.0","1920x1080","","9622.59999999404","15","img/314/4/0.66667/bw/001.png","","","natural"
"","","","","","animation","277","4697645","0.0-277.0","1920x1080","","3462.7999999821186","100","img/238/5.5/1.5/bw/001.png","","","natural"
"","","","","","animation","278","4701013","0.0-278.0","1920x1080","","3366.199999988079","0.79","img/238/2.5/0.66667/bw/001.png","","","natural"
"","","","","","animation","279","4706951","0.0-279.0","1920x1080","","5936.0999999940395","80.95","img/238/4.5/0.66667/bw/001.png","","","natural"
"","","","","","animation","280","4709125","0.0-280.0","1920x1080","","2172.600000023842","42.99","img/238/3.5/1.5/bw/001.png","","","natural"
"","","","","","animation","281","4711925","0.0-281.0","1920x1080","","2798.800000011921","16","img/314/3.5/0.5/bw/001.png","","","natural"
"","","","","","animation","282","4721272","0.0-282.0","1920x1080","","9346.100000023842","61","img/238/4/1.5/bw/001.png","","","natural"
"","","","","","animation","283","4724372","0.0-283.0","1920x1080","","3098.199999988079","0.79","img/314/2.5/0.66667/bw/001.png","","","natural"
"","","","","","animation","284","4728445","0.0-284.0","1920x1080","","4072.2000000178814","64.02","img/117/4.5/1/bw/001.png","","","natural"
"","","","","","animation","285","4731524","0.0-285.0","1920x1080","","3077","0.13","img/314/2.5/1/bw/001.png","","","natural"
"","","","","","animation","286","4734397","0.0-286.0","1920x1080","","2871.300000011921","1.98","img/238/2.5/0.5/bw/001.png","","","natural"
"","","","","","animation","287","4737276","0.0-287.0","1920x1080","","2878","19.84","img/117/3.5/1/bw/001.png","","","natural"
"","","","","","animation","288","4739860","0.0-288.0","1920x1080","","2582.4000000059605","1.19","img/314/2.5/0.5/bw/001.png","","","natural"
"","","","","","animation","289","4742989","0.0-289.0","1920x1080","","3125.5999999940395","42.33","img/117/4/1/bw/001.png","","","natural"
"","","","","","animation","290","4746355","0.0-290.0","1920x1080","","3365.300000011921","41.67","img/238/4/0.5/bw/001.png","","","natural"
"","","","","","animation","291","4748808","0.0-291.0","1920x1080","","2451.2000000178814","44.05","img/314/4/0.5/bw/001.png","","","natural"
"","","","","","animation","292","4750979","0.0-292.0","1920x1080","","2169.800000011921","49.47","img/314/4.5/0.5/bw/001.png","","","natural"
"","","","","","animation","293","4753826","0.0-293.0","1920x1080","","2845.5999999940395","1.19","img/117/2.5/0.66667/bw/001.png","","","natural"
"","","","","","animation","294","4755924","0.0-294.0","1920x1080","","2097.300000011921","28.84","img/117/4.5/0.5/bw/001.png","","","natural"
"","","","","","animation","295","4759456","0.0-295.0","1920x1080","","3530.4000000059605","1.32","img/314/2.5/1.5/bw/001.png","","","natural"
"","","","","","animation","296","4762260","0.0-296.0","1920x1080","","2803.199999988079","28.44","img/117/3.5/0.5/bw/001.png","","","natural"
"","","","","","animation","297","4764924","0.0-297.0","1920x1080","","2662.800000011921","60.98","img/238/4.5/0.5/bw/001.png","","","natural"
"","","","","","animation","298","4767308","0.0-298.0","1920x1080","","2382.0999999940395","41.27","img/117/4/1.5/bw/001.png","","","natural"
"","","","","","animation","299","4770406","0.0-299.0","1920x1080","","3096.300000011921","0","img/238/2.5/1/bw/001.png","","","natural"
"","","","","","animation","300","4773277","0.0-300.0","1920x1080","","2869.600000023842","1.19","img/117/2.5/0.5/bw/001.png","","","natural"
"","","","","","animation","301","4776789","0.0-301.0","1920x1080","","3510.9000000059605","24.60","img/314/3.5/0.66667/bw/001.png","","","natural"
"","","","","","animation","302","4793658","0.0-302.0","1920x1080","","16870","52","img/117/4.5/0.66667/bw/001.png","","","natural"
"","","","","","animation","303","4796114","0.0-303.0","1920x1080","","2454.699999988079","19.71","img/314/3.5/1.5/bw/001.png","","","natural"
"","","","","","animation","304","4799922","0.0-304.0","1920x1080","","3806.5","100","img/314/5.5/0.66667/bw/001.png","","","natural"
"","","","","","animation","305","4802954","0.0-305.0","1920x1080","","3030.5999999940395","92.06","img/314/5.5/0.5/bw/001.png","","","natural"
"","","","","","animation","306","4807253","0.0-306.0","1920x1080","","4297.0999999940395","1.59","img/117/2.5/1.5/bw/001.png","","","natural"
"","","","","","animation","307","4810728","0.0-307.0","1920x1080","","3473.699999988079","77.25","img/238/5.5/0.5/bw/001.png","","","natural"
"","","","","","animation","308","4813322","0.0-308.0","1920x1080","","2591.5","42.99","img/117/4/2/bw/001.png","","","natural"
"","","","","","animation","309","4825627","0.0-309.0","1920x1080","","12303.100000023842","83.73","img/117/5.5/1/bw/001.png","","","natural"
"","","","","","animation","310","4834042","0.0-310.0","1920x1080","","8413.59999999404","78.04","img/117/5.5/0.66667/bw/001.png","","","natural"
"","","","","","animation","311","4836691","0.0-311.0","1920x1080","","2644.9000000059605","58.47","img/314/4.5/1.5/bw/001.png","","","natural"
"","","","","","animation","312","4840719","0.0-312.0","1920x1080","","4016.4000000059605","55.56","img/117/4.5/2/bw/001.png","","","natural"
"","","","","","html-button-response","313","4904198","0.0-313.0","1920x1080","","63476.59999999404","","<div class=""intro"">You are about to view a new series of animations.<br><br></div><div class=""intro"">You will evaluate them based on a different descriptor.<br><br></div><div class=""intro"">Move the slider to indicate how <strong style=""text-transform:capitalize"">INTERESTING</strong> you find each animation.<br><br></div><div class=""intro"">0 = Least Interesting<br></div><div class=""intro"">1 = Most Interesting<br><br></div><div class=""intro"">Remember to use the <strong><em>entire range</em></strong> of the slider to make your ratings.<br></div><div class=""intro"">Please <strong><em>take your time</em></strong> and carefully consider each rating you make.<br><br></div>","0","",""
"","","","","","call-function","314","4904201","0.0-314.0","1920x1080","","","","","","",""
"","","","","","animation","315","4907781","0.0-315.0","1920x1080","","3579","52.25","img/314/3.5/1.5/bw/001.png","","","interesting"
"","","","","","animation","316","4910348","0.0-316.0","1920x1080","","2565.5999999940395","62.04","img/117/4.5/1/bw/001.png","","","interesting"
"","","","","","animation","317","4912470","0.0-317.0","1920x1080","","2120.800000011921","13.89","img/238/2.5/0.66667/bw/001.png","","","interesting"
"","","","","","animation","318","4915686","0.0-318.0","1920x1080","","3214.5999999940395","39.55","img/238/4/0.66667/bw/001.png","","","interesting"
"","","","","","animation","319","4918614","0.0-319.0","1920x1080","","2921.600000023842","17.59","img/238/3.5/1/bw/001.png","","","interesting"
"","","","","","animation","320","4922748","0.0-320.0","1920x1080","","4132.300000011921","0.13","img/314/2.5/0.66667/bw/001.png","","","interesting"
"","","","","","animation","321","4926326","0.0-321.0","1920x1080","","3576","9.79","img/117/3.5/1/bw/001.png","","","interesting"
"","","","","","animation","322","4929589","0.0-322.0","1920x1080","","3259.9000000059605","23.15","img/238/4/1/bw/001.png","","","interesting"
"","","","","","animation","323","4932307","0.0-323.0","1920x1080","","2716","33.99","img/117/4/1.5/bw/001.png","","","interesting"
"","","","","","animation","324","4940015","0.0-324.0","1920x1080","","7705.9000000059605","7","img/117/2.5/1/bw/001.png","","","interesting"
"","","","","","animation","325","4942031","0.0-325.0","1920x1080","","2013.2999999821186","46.30","img/238/3.5/2/bw/001.png","","","interesting"
"","","","","","animation","326","4944604","0.0-326.0","1920x1080","","2572","36.38","img/314/4/1/bw/001.png","","","interesting"
"","","","","","animation","327","4948470","0.0-327.0","1920x1080","","3863.5999999940395","100","img/314/5.5/1.5/bw/001.png","","","interesting"
"","","","","","animation","328","4952114","0.0-328.0","1920x1080","","3642.800000011921","99","img/238/5.5/1/bw/001.png","","","interesting"
"","","","","","animation","329","4959753","0.0-329.0","1920x1080","","7637.0999999940395","62.96","img/238/4.5/0.5/bw/001.png","","","interesting"
"","","","","","animation","330","4971656","0.0-330.0","1920x1080","","11900.399999976158","80.42","img/238/5.5/1.5/bw/001.png","","","interesting"
"","","","","","animation","331","4973921","0.0-331.0","1920x1080","","2263.600000023842","7.54","img/314/2.5/0.5/bw/001.png","","","interesting"
"","","","","","animation","332","4977633","0.0-332.0","1920x1080","","3710.199999988079","94","img/117/5.5/0.66667/bw/001.png","","","interesting"
"","","","","","animation","333","4982133","0.0-333.0","1920x1080","","4498.5","41.40","img/314/3.5/1/bw/001.png","","","interesting"
"","","","","","animation","334","4984536","0.0-334.0","1920x1080","","2401.7999999821186","56.08","img/117/4.5/1.5/bw/001.png","","","interesting"
"","","","","","animation","335","4988272","0.0-335.0","1920x1080","","3735","0.00","img/117/2.5/0.5/bw/001.png","","","interesting"
"","","","","","animation","336","4994200","0.0-336.0","1920x1080","","5926.299999982119","29.37","img/314/4/1.5/bw/001.png","","","interesting"
"","","","","","animation","337","5001632","0.0-337.0","1920x1080","","7431.300000011921","94","img/117/5.5/2/bw/001.png","","","interesting"
"","","","","","animation","338","5006056","0.0-338.0","1920x1080","","4422.700000017881","0","img/314/2.5/2/bw/001.png","","","interesting"
"","","","","","animation","339","5009352","0.0-339.0","1920x1080","","3293.4000000059605","100","img/314/5.5/0.5/bw/001.png","","","interesting"
"","","","","","animation","340","5012133","0.0-340.0","1920x1080","","2778.800000011921","81.48","img/117/5.5/1/bw/001.png","","","interesting"
"","","","","","animation","341","5017626","0.0-341.0","1920x1080","","5492.300000011921","39.55","img/117/4/2/bw/001.png","","","interesting"
"","","","","","animation","342","5022838","0.0-342.0","1920x1080","","5204.5999999940395","30.82","img/238/4.5/2/bw/001.png","","","interesting"
"","","","","","animation","343","5025121","0.0-343.0","1920x1080","","2281.699999988079","25.26","img/314/4.5/1/bw/001.png","","","interesting"
"","","","","","animation","344","5030094","0.0-344.0","1920x1080","","4971.5","37.96","img/314/4/0.66667/bw/001.png","","","interesting"
"","","","","","animation","345","5032829","0.0-345.0","1920x1080","","2733.899999976158","57.80","img/314/4.5/2/bw/001.png","","","interesting"
"","","","","","animation","346","5036039","0.0-346.0","1920x1080","","3207.5","35.85","img/314/4/0.5/bw/001.png","","","interesting"
"","","","","","animation","347","5040738","0.0-347.0","1920x1080","","4695.800000011921","32.01","img/117/3.5/0.66667/bw/001.png","","","interesting"
"","","","","","animation","348","5057757","0.0-348.0","1920x1080","","17017.399999976158","38","img/314/3.5/0.5/bw/001.png","","","interesting"
"","","","","","animation","349","5060989","0.0-349.0","1920x1080","","3230.699999988079","0.00","img/117/2.5/1.5/bw/001.png","","","interesting"
"","","","","","animation","350","5063408","0.0-350.0","1920x1080","","2417.7000000178814","27.65","img/314/3.5/2/bw/001.png","","","interesting"
"","","","","","animation","351","5065562","0.0-351.0","1920x1080","","2152.4000000059605","60.98","img/314/4.5/0.66667/bw/001.png","","","interesting"
"","","","","","animation","352","5068510","0.0-352.0","1920x1080","","2947.100000023842","97","img/117/4.5/2/bw/001.png","","","interesting"
"","","","","","animation","353","5070078","0.0-353.0","1920x1080","","1566","60.98","img/314/3.5/0.66667/bw/001.png","","","interesting"
"","","","","","animation","354","5071919","0.0-354.0","1920x1080","","1839.5999999940395","33.73","img/238/3.5/0.66667/bw/001.png","","","interesting"
"","","","","","animation","355","5075095","0.0-355.0","1920x1080","","3174.0999999940395","0.00","img/117/2.5/0.66667/bw/001.png","","","interesting"
"","","","","","animation","356","5077755","0.0-356.0","1920x1080","","2657.800000011921","100","img/238/5.5/0.5/bw/001.png","","","interesting"
"","","","","","animation","357","5080371","0.0-357.0","1920x1080","","2615.199999988079","5.16","img/238/2.5/1.5/bw/001.png","","","interesting"
"","","","","","animation","358","5083137","0.0-358.0","1920x1080","","2763.800000011921","38.76","img/238/4/1.5/bw/001.png","","","interesting"
"","","","","","animation","359","5086267","0.0-359.0","1920x1080","","3128.5","56.35","img/238/4.5/1/bw/001.png","","","interesting"
"","","","","","animation","360","5093783","0.0-360.0","1920x1080","","7514.699999988079","97","img/314/5.5/0.66667/bw/001.png","","","interesting"
"","","","","","animation","361","5095795","0.0-361.0","1920x1080","","2009.5999999940395","60.19","img/117/4.5/0.5/bw/001.png","","","interesting"
"","","","","","animation","362","5097811","0.0-362.0","1920x1080","","2014.7000000178814","39.29","img/117/4.5/0.66667/bw/001.png","","","interesting"
"","","","","","animation","363","5100589","0.0-363.0","1920x1080","","2776","78.84","img/117/5.5/0.5/bw/001.png","","","interesting"
"","","","","","animation","364","5103555","0.0-364.0","1920x1080","","2964.5999999940395","23","img/238/3.5/0.5/bw/001.png","","","interesting"
"","","","","","animation","365","5105602","0.0-365.0","1920x1080","","2045.199999988079","7.41","img/117/2.5/2/bw/001.png","","","interesting"
"","","","","","animation","366","5109200","0.0-366.0","1920x1080","","3596.699999988079","100","img/314/5.5/1/bw/001.png","","","interesting"
"","","","","","animation","367","5111158","0.0-367.0","1920x1080","","1955.7000000178814","61.90","img/117/3.5/2/bw/001.png","","","interesting"
"","","","","","animation","368","5113850","0.0-368.0","1920x1080","","2691.5","0","img/238/2.5/1/bw/001.png","","","interesting"
"","","","","","animation","369","5123274","0.0-369.0","1920x1080","","9422","85.85","img/314/4.5/0.5/bw/001.png","","","interesting"
"","","","","","animation","370","5138666","0.0-370.0","1920x1080","","15388.100000023842","39.95","img/117/4/0.5/bw/001.png","","","interesting"
"","","","","","animation","371","5144989","0.0-371.0","1920x1080","","6306.800000011921","64","img/314/4/2/bw/001.png","","","interesting"
"","","","","","animation","372","5147675","0.0-372.0","1920x1080","","2685","42.46","img/117/3.5/1.5/bw/001.png","","","interesting"
"","","","","","animation","373","5151425","0.0-373.0","1920x1080","","3748.0999999940395","100","img/238/5.5/2/bw/001.png","","","interesting"
"","","","","","animation","374","5153617","0.0-374.0","1920x1080","","2190.100000023842","40.21","img/117/3.5/0.5/bw/001.png","","","interesting"
"","","","","","animation","375","5157373","0.0-375.0","1920x1080","","3755","100","img/314/4.5/1.5/bw/001.png","","","interesting"
"","","","","","animation","376","5160150","0.0-376.0","1920x1080","","2774.4000000059605","66.67","img/238/4/0.5/bw/001.png","","","interesting"
"","","","","","animation","377","5163768","0.0-377.0","1920x1080","","3615.7000000178814","0.79","img/314/2.5/1.5/bw/001.png","","","interesting"
"","","","","","animation","378","5179333","0.0-378.0","1920x1080","","15563.40000000596","43.25","img/238/2.5/0.5/bw/001.png","","","interesting"
"","","","","","animation","379","5185865","0.0-379.0","1920x1080","","6530.4000000059605","100","img/117/5.5/1.5/bw/001.png","","","interesting"
"","","","","","animation","380","5189367","0.0-380.0","1920x1080","","3499.0999999940395","3.44","img/314/2.5/1/bw/001.png","","","interesting"
"","","","","","animation","381","5192481","0.0-381.0","1920x1080","","3111.199999988079","90.61","img/238/5.5/0.66667/bw/001.png","","","interesting"
"","","","","","animation","382","5195713","0.0-382.0","1920x1080","","3230.5999999940395","37.96","img/238/3.5/1.5/bw/001.png","","","interesting"
"","","","","","animation","383","5201195","0.0-383.0","1920x1080","","5483.9000000059605","29.89","img/238/4.5/0.66667/bw/001.png","","","interesting"
"","","","","","animation","384","5203521","0.0-384.0","1920x1080","","2323","23.54","img/117/4/0.66667/bw/001.png","","","interesting"
"","","","","","animation","385","5205377","0.0-385.0","1920x1080","","1854.5","32.41","img/238/4/2/bw/001.png","","","interesting"
"","","","","","animation","386","5209139","0.0-386.0","1920x1080","","3761","94.05","img/314/5.5/2/bw/001.png","","","interesting"
"","","","","","animation","387","5213678","0.0-387.0","1920x1080","","4536.300000011921","29.37","img/117/4/1/bw/001.png","","","interesting"
"","","","","","animation","388","5215896","0.0-388.0","1920x1080","","2213.800000011921","44.97","img/238/4.5/1.5/bw/001.png","","","interesting"
"","","","","","animation","389","5220095","0.0-389.0","1920x1080","","4197.5","0","img/238/2.5/2/bw/001.png","","","interesting"
"","","","","","html-button-response","390","5222847","0.0-390.0","1920x1080","","2749.9000000059605","","<strong>Study Debriefing</strong><br><p class=""debrief""><strong>Background:</strong> The patterns you rated are called <em>fractals</em>. The term fractal describes a class of irregular curves or shapes for which any suitably chosen part is similar in shape to a given larger or smaller part when magnified or reduced to the same size. Fractal properties are found throughout the natural and manmade world. The series of animations you saw today displayed animated fractal patterns of a varying complexity.</p><p class=""debrief""><strong>Purpose of this study:</strong> We hope to better understand how the perception of static fractals differs from the perception of animated fractals, and how the speed of the animated patterns influences people&apos;s perception of them. Fractals allow us to study the perception of aesthetic properties (e.g. the perceived level of beauty in an image) without using recognizable content, which makes them an excellent tool for studying abstract aesthetic judgement.</p><p class=""debrief""><strong>Your part:</strong> Your participation has helped us to further understand how humans perceive these patterns across different levels of speed and complexity. This research with allow us to better understand how the visual system and brain process our ever-changing visual environments.<p class=""debrief""><strong>Feedback and Further information:</strong> If you have additional questions about this study, please feel free to ask the researcher, Nathan Gonzales-Hess at nhess @ uoregon.edu. If you have any questions concerning your rights as a research participant, please contact Research Compliance Services, 5237 University of Oregon, Eugene, OR 97403, 541-346-2510, or email researchCompliance @ uoregon.edu. You can also email the Human Subjects Coordinator for psychology and linguistics research at hscoord @ uoregon.edu. ","0","",""
"","","","","","html-button-response","391","5224569","0.0-391.0","1920x1080","","1719.699999988079","","Thank you for participating in this study. <br>Please click below to finish the experiment and submit your responses.<br><br>","0","",""
"true","","","","","fullscreen","392","5225575","0.0-392.0","1920x1080","12:24 14/10/2022","","","","","",""
