"success","timeout","failed_images","failed_audio","failed_video","trial_type","trial_index","time_elapsed","internal_node_id","resolution","timeStamp","rt","response","stimulus","button_pressed","value","descriptor"
"true","false","[]","[]","[]","preload","0","5957","0.0-0.0","1920x1080","","","","","","",""
"true","false","[]","[]","[]","preload","1","12092","0.0-1.0","1920x1080","","","","","","",""
"true","false","[]","[]","[]","preload","2","18214","0.0-2.0","1920x1080","","","","","","",""
"true","","","","","fullscreen","3","285839","0.0-3.0","1920x1080","12:24 21/10/2022","","","","","",""
"","","","","","survey-html-form","4","299367","0.0-4.0","1920x1080","","13524.300000000745","{""age"":""18"",""gender"":""female""}","","","",""
"","","","","","html-button-response","5","360632","0.0-5.0","1920x1080","","61262.79999999888","","<div class=""complex"">You are going to see a series of animations.<br><br></div><div class=""complex"">Move the slider to indicate how <strong style=""text-transform:capitalize"">COMPLEX</strong> you find each animation.<br><br></div><div class=""complex"">0 = Least Complex<br></div><div class=""complex"">1 = Most Complex<br><br></div><div class=""complex"">Remember to use the <strong><em>entire range</em></strong> of the slider to make your ratings.<br></div><div class=""complex"">Please <strong><em>take your time</em></strong> and carefully consider each rating you make.<br><br></div><div class=""complex"">The study has five sections and will take about 45 minutes to complete.<br><br></div>","0","",""
"","","","","","call-function","6","360632","0.0-6.0","1920x1080","","","","","","",""
"","","","","","animation","7","376759","0.0-7.0","1920x1080","","16126.200000001118","72.09","img/314/3.5/1/bw/001.png","","","complex"
"","","","","","animation","8","383903","0.0-8.0","1920x1080","","7142.39999999851","44.31","img/314/5.5/0.5/bw/001.png","","","complex"
"","","","","","animation","9","392399","0.0-9.0","1920x1080","","8495.300000000745","62.70","img/238/4/2/bw/001.png","","","complex"
"","","","","","animation","10","400687","0.0-10.0","1920x1080","","8287.5","81.35","img/238/4.5/0.5/bw/001.png","","","complex"
"","","","","","animation","11","409583","0.0-11.0","1920x1080","","8894.800000000745","84.13","img/314/3.5/0.66667/bw/001.png","","","complex"
"","","","","","animation","12","418687","0.0-12.0","1920x1080","","9103.5","90.34","img/238/3.5/1/bw/001.png","","","complex"
"","","","","","animation","13","427943","0.0-13.0","1920x1080","","9255.89999999851","83.47","img/117/4/0.66667/bw/001.png","","","complex"
"","","","","","animation","14","447615","0.0-14.0","1920x1080","","19670.699999999255","44.58","img/117/4.5/1/bw/001.png","","","complex"
"","","","","","animation","15","475815","0.0-15.0","1920x1080","","28199","20.37","img/314/4.5/2/bw/001.png","","","complex"
"","","","","","animation","16","518678","0.0-16.0","1920x1080","","42862.699999999255","64.68","img/238/2.5/1/bw/001.png","","","complex"
"","","","","","animation","17","528775","0.0-17.0","1920x1080","","10096.10000000149","55.56","img/117/2.5/1/bw/001.png","","","complex"
"","","","","","animation","18","543889","0.0-18.0","1920x1080","","15118.300000000745","21.16","img/117/5.5/1.5/bw/001.png","","","complex"
"","","","","","animation","19","550577","0.0-19.0","1920x1080","","6687.5","15.87","img/238/5.5/1.5/bw/001.png","","","complex"
"","","","","","animation","20","558705","0.0-20.0","1920x1080","","8127.4000000003725","58.33","img/238/3.5/0.66667/bw/001.png","","","complex"
"","","","","","animation","21","564145","0.0-21.0","1920x1080","","5439.0999999996275","67.86","img/117/4/0.5/bw/001.png","","","complex"
"","","","","","animation","22","570601","0.0-22.0","1920x1080","","6455.199999999255","39.81","img/117/4.5/2/bw/001.png","","","complex"
"","","","","","animation","23","578145","0.0-23.0","1920x1080","","7543.199999999255","50.40","img/314/4/1/bw/001.png","","","complex"
"","","","","","animation","24","589209","0.0-24.0","1920x1080","","11062.799999998882","69.31","img/238/2.5/1.5/bw/001.png","","","complex"
"","","","","","animation","25","605616","0.0-25.0","1920x1080","","16407.299999998882","72.09","img/314/3.5/1.5/bw/001.png","","","complex"
"","","","","","animation","26","618616","0.0-26.0","1920x1080","","12999.5","30.03","img/314/5.5/0.66667/bw/001.png","","","complex"
"","","","","","animation","27","628991","0.0-27.0","1920x1080","","10374.5","26.46","img/117/5.5/0.66667/bw/001.png","","","complex"
"","","","","","animation","28","635175","0.0-28.0","1920x1080","","6182.39999999851","71.16","img/314/2.5/0.66667/bw/001.png","","","complex"
"","","","","","animation","29","649343","0.0-29.0","1920x1080","","14167.400000000373","28","img/117/3.5/1.5/bw/001.png","","","complex"
"","","","","","animation","30","660373","0.0-30.0","1920x1080","","11030.800000000745","67.20","img/117/3.5/0.66667/bw/001.png","","","complex"
"","","","","","animation","31","667367","0.0-31.0","1920x1080","","6992.5999999996275","71","img/314/2.5/2/bw/001.png","","","complex"
"","","","","","animation","32","675766","0.0-32.0","1920x1080","","8398.599999999627","91","img/117/2.5/0.66667/bw/001.png","","","complex"
"","","","","","animation","33","680357","0.0-33.0","1920x1080","","4590.200000001118","28.70","img/238/4/1.5/bw/001.png","","","complex"
"","","","","","animation","34","688318","0.0-34.0","1920x1080","","7959.700000001118","15.34","img/314/5.5/1.5/bw/001.png","","","complex"
"","","","","","animation","35","697166","0.0-35.0","1920x1080","","8847.400000000373","88.49","img/314/2.5/0.5/bw/001.png","","","complex"
"","","","","","animation","36","703189","0.0-36.0","1920x1080","","6021.800000000745","11.38","img/238/5.5/1/bw/001.png","","","complex"
"","","","","","animation","37","713629","0.0-37.0","1920x1080","","10439.300000000745","71.69","img/314/4/0.5/bw/001.png","","","complex"
"","","","","","animation","38","726593","0.0-38.0","1920x1080","","12967.299999998882","39","img/117/4.5/1.5/bw/001.png","","","complex"
"","","","","","animation","39","754553","0.0-39.0","1920x1080","","27958.400000000373","36.11","img/314/4.5/1.5/bw/001.png","","","complex"
"","","","","","animation","40","761664","0.0-40.0","1920x1080","","7111.0999999996275","85.19","img/314/3.5/0.5/bw/001.png","","","complex"
"","","","","","animation","41","769217","0.0-41.0","1920x1080","","7551.4000000003725","52.65","img/238/4.5/1/bw/001.png","","","complex"
"","","","","","animation","42","778872","0.0-42.0","1920x1080","","9646.799999998882","48","img/117/4.5/0.66667/bw/001.png","","","complex"
"","","","","","animation","43","789040","0.0-43.0","1920x1080","","10166.900000000373","62","img/314/3.5/2/bw/001.png","","","complex"
"","","","","","animation","44","794216","0.0-44.0","1920x1080","","5175.4000000003725","72.88","img/117/2.5/1.5/bw/001.png","","","complex"
"","","","","","animation","45","798992","0.0-45.0","1920x1080","","4774.200000001118","96","img/117/2.5/0.5/bw/001.png","","","complex"
"","","","","","animation","46","802135","0.0-46.0","1920x1080","","3142.7000000011176","64.95","img/238/4/1/bw/001.png","","","complex"
"","","","","","animation","47","806024","0.0-47.0","1920x1080","","3887.699999999255","78.44","img/238/2.5/0.66667/bw/001.png","","","complex"
"","","","","","animation","48","812602","0.0-48.0","1920x1080","","6577.199999999255","17.46","img/238/5.5/0.5/bw/001.png","","","complex"
"","","","","","animation","49","817736","0.0-49.0","1920x1080","","5133","60.32","img/238/2.5/2/bw/001.png","","","complex"
"","","","","","animation","50","823303","0.0-50.0","1920x1080","","5566.300000000745","19.05","img/314/5.5/2/bw/001.png","","","complex"
"","","","","","animation","51","833039","0.0-51.0","1920x1080","","9735.300000000745","43.12","img/238/3.5/2/bw/001.png","","","complex"
"","","","","","animation","52","844118","0.0-52.0","1920x1080","","11078.900000000373","59","img/238/4/0.5/bw/001.png","","","complex"
"","","","","","animation","53","870431","0.0-53.0","1920x1080","","26311.5","60.85","img/238/4/0.66667/bw/001.png","","","complex"
"","","","","","animation","54","885118","0.0-54.0","1920x1080","","14684.599999999627","65.21","img/117/3.5/1/bw/001.png","","","complex"
"","","","","","animation","55","891279","0.0-55.0","1920x1080","","6158.5999999996275","99","img/314/4/0.66667/bw/001.png","","","complex"
"","","","","","animation","56","896863","0.0-56.0","1920x1080","","5582.9000000003725","15","img/238/5.5/2/bw/001.png","","","complex"
"","","","","","animation","57","912972","0.0-57.0","1920x1080","","16109.700000001118","69","img/117/3.5/2/bw/001.png","","","complex"
"","","","","","animation","58","920644","0.0-58.0","1920x1080","","7671.5","78.70","img/238/4.5/0.66667/bw/001.png","","","complex"
"","","","","","animation","59","925820","0.0-59.0","1920x1080","","5174.5999999996275","99","img/117/3.5/0.5/bw/001.png","","","complex"
"","","","","","animation","60","932220","0.0-60.0","1920x1080","","6398.5999999996275","72.49","img/314/2.5/1/bw/001.png","","","complex"
"","","","","","animation","61","951756","0.0-61.0","1920x1080","","19534.599999999627","67","img/314/4.5/0.66667/bw/001.png","","","complex"
"","","","","","animation","62","958847","0.0-62.0","1920x1080","","7086.89999999851","93.25","img/238/3.5/0.5/bw/001.png","","","complex"
"","","","","","animation","63","987543","0.0-63.0","1920x1080","","28694.699999999255","83.07","img/117/4.5/0.5/bw/001.png","","","complex"
"","","","","","animation","64","1006495","0.0-64.0","1920x1080","","18951","92","img/238/4.5/1.5/bw/001.png","","","complex"
"","","","","","animation","65","1010695","0.0-65.0","1920x1080","","4198.799999998882","83.60","img/238/2.5/0.5/bw/001.png","","","complex"
"","","","","","animation","66","1031099","0.0-66.0","1920x1080","","20406.5","90.74","img/117/4/1.5/bw/001.png","","","complex"
"","","","","","animation","67","1039331","0.0-67.0","1920x1080","","8230","96","img/117/4/1/bw/001.png","","","complex"
"","","","","","animation","68","1046731","0.0-68.0","1920x1080","","7399.0999999996275","82.54","img/314/2.5/1.5/bw/001.png","","","complex"
"","","","","","animation","69","1050846","0.0-69.0","1920x1080","","4113.9000000003725","48","img/238/4.5/2/bw/001.png","","","complex"
"","","","","","animation","70","1063629","0.0-70.0","1920x1080","","12782.699999999255","34.52","img/117/5.5/2/bw/001.png","","","complex"
"","","","","","animation","71","1082844","0.0-71.0","1920x1080","","19220.5","64.15","img/314/4.5/0.5/bw/001.png","","","complex"
"","","","","","animation","72","1097028","0.0-72.0","1920x1080","","14182.799999998882","40.34","img/117/5.5/1/bw/001.png","","","complex"
"","","","","","animation","73","1117212","0.0-73.0","1920x1080","","20182.900000000373","35.05","img/238/5.5/0.66667/bw/001.png","","","complex"
"","","","","","animation","74","1137732","0.0-74.0","1920x1080","","20519.099999999627","55.95","img/314/4/1.5/bw/001.png","","","complex"
"","","","","","animation","75","1146004","0.0-75.0","1920x1080","","8262.799999998882","70.24","img/117/5.5/0.5/bw/001.png","","","complex"
"","","","","","animation","76","1165047","0.0-76.0","1920x1080","","19041.799999998882","65","img/314/5.5/1/bw/001.png","","","complex"
"","","","","","animation","77","1172863","0.0-77.0","1920x1080","","7813.799999998882","60.45","img/117/2.5/2/bw/001.png","","","complex"
"","","","","","animation","78","1243028","0.0-78.0","1920x1080","","70164.90000000037","63.49","img/238/3.5/1.5/bw/001.png","","","complex"
"","","","","","animation","79","1262976","0.0-79.0","1920x1080","","19949.699999999255","37.57","img/314/4/2/bw/001.png","","","complex"
"","","","","","animation","80","1320899","0.0-80.0","1920x1080","","57918.699999999255","50","img/117/4/2/bw/001.png","","","complex"
"","","","","","animation","81","1355403","0.0-81.0","1920x1080","","34502.79999999888","43","img/314/4.5/1/bw/001.png","","","complex"
"","","","","","html-button-response","82","1379935","0.0-82.0","1920x1080","","24524.10000000149","","<div class=""intro"">You are about to view a new series of animations.<br><br></div><div class=""intro"">You will evaluate them based on a different descriptor.<br><br></div><div class=""intro"">Move the slider to indicate how <strong style=""text-transform:capitalize"">INTERESTING</strong> you find each animation.<br><br></div><div class=""intro"">0 = Least Interesting<br></div><div class=""intro"">1 = Most Interesting<br><br></div><div class=""intro"">Remember to use the <strong><em>entire range</em></strong> of the slider to make your ratings.<br></div><div class=""intro"">Please <strong><em>take your time</em></strong> and carefully consider each rating you make.<br><br></div>","0","",""
"","","","","","call-function","83","1379937","0.0-83.0","1920x1080","","","","","","",""
"","","","","","animation","84","1406110","0.0-84.0","1920x1080","","26171.900000000373","44.31","img/238/5.5/2/bw/001.png","","","interesting"
"","","","","","animation","85","1475853","0.0-85.0","1920x1080","","69741.20000000112","21.30","img/314/5.5/1.5/bw/001.png","","","interesting"
"","","","","","animation","86","1515427","0.0-86.0","1920x1080","","39574.300000000745","54.63","img/117/2.5/1/bw/001.png","","","interesting"
"","","","","","animation","87","1523195","0.0-87.0","1920x1080","","7763.4000000003725","65.21","img/238/3.5/0.5/bw/001.png","","","interesting"
"","","","","","animation","88","1578744","0.0-88.0","1920x1080","","55550.40000000037","55.42","img/238/4.5/1/bw/001.png","","","interesting"
"","","","","","animation","89","1589976","0.0-89.0","1920x1080","","11230.599999999627","38.36","img/238/3.5/1/bw/001.png","","","interesting"
"","","","","","animation","90","1620879","0.0-90.0","1920x1080","","30901.799999998882","55","img/117/5.5/1/bw/001.png","","","interesting"
"","","","","","animation","91","1655139","0.0-91.0","1920x1080","","34258.199999999255","55","img/238/4/1.5/bw/001.png","","","interesting"
"","","","","","animation","92","1674111","0.0-92.0","1920x1080","","18970.799999998882","19","img/314/5.5/2/bw/001.png","","","interesting"
"","","","","","animation","93","1686061","0.0-93.0","1920x1080","","11950.799999998882","59.52","img/117/3.5/1/bw/001.png","","","interesting"
"","","","","","animation","94","1709141","0.0-94.0","1920x1080","","23078.599999999627","61","img/314/4.5/0.5/bw/001.png","","","interesting"
"","","","","","animation","95","1749474","0.0-95.0","1920x1080","","40326.60000000149","39","img/238/2.5/2/bw/001.png","","","interesting"
"","","","","","animation","96","1773745","0.0-96.0","1920x1080","","24264.799999998882","53.17","img/314/4.5/2/bw/001.png","","","interesting"
"","","","","","animation","97","1785561","0.0-97.0","1920x1080","","11813.900000000373","59.52","img/314/3.5/1/bw/001.png","","","interesting"
"","","","","","animation","98","1827611","0.0-98.0","1920x1080","","42046.79999999888","26","img/314/4/2/bw/001.png","","","interesting"
"","","","","","animation","99","1833175","0.0-99.0","1920x1080","","5558.4000000003725","55","img/117/2.5/0.5/bw/001.png","","","interesting"
"","","","","","animation","100","1956975","0.0-100.0","1920x1080","","123799.5","61","img/117/3.5/0.66667/bw/001.png","","","interesting"
"","","","","","animation","101","1990528","0.0-101.0","1920x1080","","33554.699999999255","25","img/238/5.5/1.5/bw/001.png","","","interesting"
"","","","","","animation","102","2008176","0.0-102.0","1920x1080","","17642.599999999627","54.50","img/238/2.5/1/bw/001.png","","","interesting"
"","","","","","animation","103","2053591","0.0-103.0","1920x1080","","45410.5","50.13","img/117/5.5/0.66667/bw/001.png","","","interesting"
"","","","","","animation","104","2060125","0.0-104.0","1920x1080","","6532.700000001118","39.68","img/238/2.5/0.66667/bw/001.png","","","interesting"
"","","","","","animation","105","2074806","0.0-105.0","1920x1080","","14679.900000000373","66.53","img/117/3.5/0.5/bw/001.png","","","interesting"
"","","","","","animation","106","2081223","0.0-106.0","1920x1080","","6416.0999999996275","72.88","img/314/4/0.5/bw/001.png","","","interesting"
"","","","","","animation","107","2126096","0.0-107.0","1920x1080","","44874.90000000037","62","img/238/4.5/0.66667/bw/001.png","","","interesting"
"","","","","","animation","108","2175679","0.0-108.0","1920x1080","","49582.800000000745","32.80","img/314/5.5/1/bw/001.png","","","interesting"
"","","","","","animation","109","2199435","0.0-109.0","1920x1080","","23754.699999999255","74","img/238/4.5/0.5/bw/001.png","","","interesting"
"","","","","","animation","110","2220366","0.0-110.0","1920x1080","","20922.299999998882","81","img/314/4/0.66667/bw/001.png","","","interesting"
"","","","","","animation","111","2223942","0.0-111.0","1920x1080","","3574.699999999255","49.07","img/238/3.5/1.5/bw/001.png","","","interesting"
"","","","","","animation","112","2228726","0.0-112.0","1920x1080","","4783.0999999996275","72.49","img/117/4.5/1/bw/001.png","","","interesting"
"","","","","","animation","113","2258210","0.0-113.0","1920x1080","","29482.599999999627","56","img/314/4/1.5/bw/001.png","","","interesting"
"","","","","","animation","114","2307636","0.0-114.0","1920x1080","","49430.5","47.49","img/314/5.5/0.66667/bw/001.png","","","interesting"
"","","","","","animation","115","2345879","0.0-115.0","1920x1080","","38243","69","img/314/5.5/0.5/bw/001.png","","","interesting"
"","","","","","animation","116","2351986","0.0-116.0","1920x1080","","6105.5","31.48","img/117/5.5/1.5/bw/001.png","","","interesting"
"","","","","","animation","117","2425058","0.0-117.0","1920x1080","","73068","50.93","img/314/2.5/0.5/bw/001.png","","","interesting"
"","","","","","animation","118","2431978","0.0-118.0","1920x1080","","6915.9000000003725","63.49","img/238/2.5/0.5/bw/001.png","","","interesting"
"","","","","","animation","119","2467288","0.0-119.0","1920x1080","","35310.40000000037","54","img/238/4/0.66667/bw/001.png","","","interesting"
"","","","","","animation","120","2472768","0.0-120.0","1920x1080","","5478.300000000745","63.62","img/117/4.5/0.5/bw/001.png","","","interesting"
"","","","","","animation","121","2529127","0.0-121.0","1920x1080","","56359.699999999255","58","img/117/4.5/1.5/bw/001.png","","","interesting"
"","","","","","animation","122","2547639","0.0-122.0","1920x1080","","18506.300000000745","24","img/238/5.5/0.5/bw/001.png","","","interesting"
"","","","","","animation","123","2555783","0.0-123.0","1920x1080","","8141.9000000003725","69","img/314/3.5/1.5/bw/001.png","","","interesting"
"","","","","","animation","124","2559751","0.0-124.0","1920x1080","","3965.699999999255","59.26","img/314/2.5/2/bw/001.png","","","interesting"
"","","","","","animation","125","2563284","0.0-125.0","1920x1080","","3532","85.19","img/117/2.5/0.66667/bw/001.png","","","interesting"
"","","","","","animation","126","2594745","0.0-126.0","1920x1080","","31458","39","img/117/2.5/1.5/bw/001.png","","","interesting"
"","","","","","animation","127","2599552","0.0-127.0","1920x1080","","4806.300000000745","67.33","img/117/4.5/0.66667/bw/001.png","","","interesting"
"","","","","","animation","128","2620168","0.0-128.0","1920x1080","","20614.60000000149","49.87","img/314/2.5/1.5/bw/001.png","","","interesting"
"","","","","","animation","129","2625917","0.0-129.0","1920x1080","","5747","59","img/238/4/0.5/bw/001.png","","","interesting"
"","","","","","animation","130","2641707","0.0-130.0","1920x1080","","15782.900000000373","41.53","img/314/2.5/1/bw/001.png","","","interesting"
"","","","","","animation","131","2667390","0.0-131.0","1920x1080","","25682.5","42.86","img/238/5.5/1/bw/001.png","","","interesting"
"","","","","","animation","132","2682079","0.0-132.0","1920x1080","","14686.89999999851","67","img/314/4/1/bw/001.png","","","interesting"
"","","","","","animation","133","2688342","0.0-133.0","1920x1080","","6262","72.22","img/238/4/1/bw/001.png","","","interesting"
"","","","","","animation","134","2693190","0.0-134.0","1920x1080","","4846.300000000745","51.59","img/314/2.5/0.66667/bw/001.png","","","interesting"
"","","","","","animation","135","2704399","0.0-135.0","1920x1080","","11206.700000001118","72.49","img/117/4/2/bw/001.png","","","interesting"
"","","","","","animation","136","2719440","0.0-136.0","1920x1080","","15039.099999999627","90.34","img/314/3.5/0.5/bw/001.png","","","interesting"
"","","","","","animation","137","2744107","0.0-137.0","1920x1080","","24663.199999999255","57","img/238/4.5/1.5/bw/001.png","","","interesting"
"","","","","","animation","138","2751247","0.0-138.0","1920x1080","","7138.200000001118","88","img/314/3.5/0.66667/bw/001.png","","","interesting"
"","","","","","animation","139","2760000","0.0-139.0","1920x1080","","8750.199999999255","98","img/314/4.5/1/bw/001.png","","","interesting"
"","","","","","animation","140","2764048","0.0-140.0","1920x1080","","4046.39999999851","74","img/117/3.5/2/bw/001.png","","","interesting"
"","","","","","animation","141","2768608","0.0-141.0","1920x1080","","4558.5999999996275","68","img/117/2.5/2/bw/001.png","","","interesting"
"","","","","","animation","142","2776568","0.0-142.0","1920x1080","","7959.39999999851","72.09","img/238/3.5/0.66667/bw/001.png","","","interesting"
"","","","","","animation","143","2790041","0.0-143.0","1920x1080","","13471.300000000745","66","img/314/4.5/0.66667/bw/001.png","","","interesting"
"","","","","","animation","144","2795616","0.0-144.0","1920x1080","","5573.299999998882","71","img/117/4/0.66667/bw/001.png","","","interesting"
"","","","","","animation","145","2816264","0.0-145.0","1920x1080","","20646.700000001118","66.53","img/117/4/1.5/bw/001.png","","","interesting"
"","","","","","animation","146","2854188","0.0-146.0","1920x1080","","37917.699999999255","82","img/238/5.5/0.66667/bw/001.png","","","interesting"
"","","","","","animation","147","2857900","0.0-147.0","1920x1080","","3710.699999999255","35.32","img/117/5.5/2/bw/001.png","","","interesting"
"","","","","","animation","148","2862728","0.0-148.0","1920x1080","","4826.299999998882","71.69","img/117/3.5/1.5/bw/001.png","","","interesting"
"","","","","","animation","149","2868116","0.0-149.0","1920x1080","","5387.0999999996275","78.97","img/117/4/0.5/bw/001.png","","","interesting"
"","","","","","animation","150","2880160","0.0-150.0","1920x1080","","12044.799999998882","32.94","img/117/4.5/2/bw/001.png","","","interesting"
"","","","","","animation","151","2914810","0.0-151.0","1920x1080","","34646.09999999963","31.61","img/314/4.5/1.5/bw/001.png","","","interesting"
"","","","","","animation","152","2922510","0.0-152.0","1920x1080","","7699.5","52.25","img/314/3.5/2/bw/001.png","","","interesting"
"","","","","","animation","153","2940316","0.0-153.0","1920x1080","","17801.900000000373","32.01","img/238/4/2/bw/001.png","","","interesting"
"","","","","","animation","154","2947396","0.0-154.0","1920x1080","","7077.199999999255","57.28","img/238/2.5/1.5/bw/001.png","","","interesting"
"","","","","","animation","155","2952060","0.0-155.0","1920x1080","","4663.4000000003725","90.08","img/117/5.5/0.5/bw/001.png","","","interesting"
"","","","","","animation","156","2957332","0.0-156.0","1920x1080","","5270.300000000745","84.39","img/238/4.5/2/bw/001.png","","","interesting"
"","","","","","animation","157","2973180","0.0-157.0","1920x1080","","15845.699999999255","57.94","img/117/4/1/bw/001.png","","","interesting"
"","","","","","animation","158","2978716","0.0-158.0","1920x1080","","5535.5999999996275","53.70","img/238/3.5/2/bw/001.png","","","interesting"
"","","","","","html-button-response","159","2998397","0.0-159.0","1920x1080","","19678.800000000745","","<div class=""intro"">You are about to view a new series of animations.<br><br></div><div class=""intro"">You will evaluate them based on a different descriptor.<br><br></div><div class=""intro"">Move the slider to indicate how <strong style=""text-transform:capitalize"">NATURAL</strong> you find each animation.<br><br></div><div class=""intro"">0 = Least Natural<br></div><div class=""intro"">1 = Most Natural<br><br></div><div class=""intro"">Remember to use the <strong><em>entire range</em></strong> of the slider to make your ratings.<br></div><div class=""intro"">Please <strong><em>take your time</em></strong> and carefully consider each rating you make.<br><br></div>","0","",""
"","","","","","call-function","160","2998398","0.0-160.0","1920x1080","","","","","","",""
"","","","","","animation","161","3005225","0.0-161.0","1920x1080","","6822","55.95","img/314/4/1.5/bw/001.png","","","natural"
"","","","","","animation","162","3016969","0.0-162.0","1920x1080","","11742.400000000373","61","img/117/3.5/1.5/bw/001.png","","","natural"
"","","","","","animation","163","3023249","0.0-163.0","1920x1080","","6278.4000000003725","59","img/314/3.5/2/bw/001.png","","","natural"
"","","","","","animation","164","3030599","0.0-164.0","1920x1080","","7349.10000000149","66","img/238/4.5/0.66667/bw/001.png","","","natural"
"","","","","","animation","165","3039500","0.0-165.0","1920x1080","","8899.10000000149","17","img/238/2.5/0.5/bw/001.png","","","natural"
"","","","","","animation","166","3047153","0.0-166.0","1920x1080","","7651.4000000003725","19","img/117/2.5/1/bw/001.png","","","natural"
"","","","","","animation","167","3060911","0.0-167.0","1920x1080","","13761","40.34","img/314/3.5/0.5/bw/001.png","","","natural"
"","","","","","animation","168","3074580","0.0-168.0","1920x1080","","13668.200000001118","58.33","img/117/3.5/1/bw/001.png","","","natural"
"","","","","","animation","169","3081560","0.0-169.0","1920x1080","","6978.0999999996275","38","img/238/2.5/1/bw/001.png","","","natural"
"","","","","","animation","170","3087577","0.0-170.0","1920x1080","","6015.199999999255","67.46","img/238/4/1.5/bw/001.png","","","natural"
"","","","","","animation","171","3098596","0.0-171.0","1920x1080","","11017.199999999255","35.71","img/117/4/1/bw/001.png","","","natural"
"","","","","","animation","172","3132708","0.0-172.0","1920x1080","","34112.199999999255","32","img/238/3.5/1.5/bw/001.png","","","natural"
"","","","","","animation","173","3164483","0.0-173.0","1920x1080","","31773.400000000373","52.65","img/238/5.5/2/bw/001.png","","","natural"
"","","","","","animation","174","3171467","0.0-174.0","1920x1080","","6980.60000000149","63","img/117/5.5/1/bw/001.png","","","natural"
"","","","","","animation","175","3174926","0.0-175.0","1920x1080","","3457.800000000745","29.89","img/238/3.5/0.5/bw/001.png","","","natural"
"","","","","","animation","176","3182501","0.0-176.0","1920x1080","","7571.700000001118","51","img/314/4/1/bw/001.png","","","natural"
"","","","","","animation","177","3220946","0.0-177.0","1920x1080","","38443.09999999963","53","img/314/4.5/1.5/bw/001.png","","","natural"
"","","","","","animation","178","3230710","0.0-178.0","1920x1080","","9762.700000001118","24.47","img/117/4/0.5/bw/001.png","","","natural"
"","","","","","animation","179","3269547","0.0-179.0","1920x1080","","38835.5","59","img/238/4/0.66667/bw/001.png","","","natural"
"","","","","","animation","180","3279852","0.0-180.0","1920x1080","","10302.5","23.81","img/117/3.5/0.66667/bw/001.png","","","natural"
"","","","","","animation","181","3290742","0.0-181.0","1920x1080","","10888.700000001118","68","img/238/4.5/1.5/bw/001.png","","","natural"
"","","","","","animation","182","3301454","0.0-182.0","1920x1080","","10708.5","63.49","img/117/4.5/2/bw/001.png","","","natural"
"","","","","","animation","183","3315198","0.0-183.0","1920x1080","","13740.099999999627","32.94","img/117/3.5/2/bw/001.png","","","natural"
"","","","","","animation","184","3319662","0.0-184.0","1920x1080","","4462.5","15.21","img/314/4/0.5/bw/001.png","","","natural"
"","","","","","animation","185","3324766","0.0-185.0","1920x1080","","5103.0999999996275","41.14","img/117/2.5/0.5/bw/001.png","","","natural"
"","","","","","animation","186","3331230","0.0-186.0","1920x1080","","6461.700000001118","36","img/314/2.5/0.5/bw/001.png","","","natural"
"","","","","","animation","187","3337454","0.0-187.0","1920x1080","","6223.300000000745","55.69","img/314/4/0.66667/bw/001.png","","","natural"
"","","","","","animation","188","3344414","0.0-188.0","1920x1080","","6958.300000000745","20.24","img/314/2.5/2/bw/001.png","","","natural"
"","","","","","animation","189","3348870","0.0-189.0","1920x1080","","4455","74","img/117/4.5/0.5/bw/001.png","","","natural"
"","","","","","animation","190","3356010","0.0-190.0","1920x1080","","7138.700000001118","80.82","img/238/5.5/0.66667/bw/001.png","","","natural"
"","","","","","animation","191","3365344","0.0-191.0","1920x1080","","9329.099999999627","41","img/238/5.5/1.5/bw/001.png","","","natural"
"","","","","","animation","192","3384993","0.0-192.0","1920x1080","","19647.099999999627","31","img/238/3.5/1/bw/001.png","","","natural"
"","","","","","animation","193","3403126","0.0-193.0","1920x1080","","18131.5","64.29","img/238/4/2/bw/001.png","","","natural"
"","","","","","animation","194","3418365","0.0-194.0","1920x1080","","15228.799999998882","27.65","img/117/4/0.66667/bw/001.png","","","natural"
"","","","","","animation","195","3425676","0.0-195.0","1920x1080","","7308.199999999255","41.40","img/314/5.5/0.66667/bw/001.png","","","natural"
"","","","","","animation","196","3470208","0.0-196.0","1920x1080","","44530.60000000149","60.85","img/117/4.5/1/bw/001.png","","","natural"
"","","","","","animation","197","3477241","0.0-197.0","1920x1080","","7031.5","65.74","img/238/5.5/0.5/bw/001.png","","","natural"
"","","","","","animation","198","3489644","0.0-198.0","1920x1080","","12400.400000000373","24.87","img/314/3.5/1.5/bw/001.png","","","natural"
"","","","","","animation","199","3530391","0.0-199.0","1920x1080","","40745.39999999851","65.48","img/314/4.5/1/bw/001.png","","","natural"
"","","","","","animation","200","3541609","0.0-200.0","1920x1080","","11215.099999999627","66","img/238/4.5/2/bw/001.png","","","natural"
"","","","","","animation","201","3567542","0.0-201.0","1920x1080","","25930.10000000149","54","img/117/4/2/bw/001.png","","","natural"
"","","","","","animation","202","3609291","0.0-202.0","1920x1080","","41749.79999999888","50.26","img/314/4.5/2/bw/001.png","","","natural"
"","","","","","animation","203","3614705","0.0-203.0","1920x1080","","5412.5","25","img/314/4.5/0.66667/bw/001.png","","","natural"
"","","","","","animation","204","3618523","0.0-204.0","1920x1080","","3816","20.11","img/117/2.5/1.5/bw/001.png","","","natural"
"","","","","","animation","205","3623206","0.0-205.0","1920x1080","","4681.5999999996275","78.31","img/314/5.5/2/bw/001.png","","","natural"
"","","","","","animation","206","3633779","0.0-206.0","1920x1080","","10572.099999999627","37","img/314/3.5/1/bw/001.png","","","natural"
"","","","","","animation","207","3637411","0.0-207.0","1920x1080","","3630.4000000003725","22.62","img/238/2.5/2/bw/001.png","","","natural"
"","","","","","animation","208","3685630","0.0-208.0","1920x1080","","48214.5","34","img/238/3.5/2/bw/001.png","","","natural"
"","","","","","animation","209","3697258","0.0-209.0","1920x1080","","11627.39999999851","64.29","img/117/5.5/0.5/bw/001.png","","","natural"
"","","","","","animation","210","3748076","0.0-210.0","1920x1080","","50817.40000000037","36.51","img/238/4/1/bw/001.png","","","natural"
"","","","","","animation","211","3759949","0.0-211.0","1920x1080","","11870.099999999627","21.16","img/314/3.5/0.66667/bw/001.png","","","natural"
"","","","","","animation","212","3773975","0.0-212.0","1920x1080","","14025.299999998882","9","img/117/3.5/0.5/bw/001.png","","","natural"
"","","","","","animation","213","3789106","0.0-213.0","1920x1080","","15129.5","69.84","img/117/4.5/0.66667/bw/001.png","","","natural"
"","","","","","animation","214","3800856","0.0-214.0","1920x1080","","11747.900000000373","76","img/238/5.5/1/bw/001.png","","","natural"
"","","","","","animation","215","3807489","0.0-215.0","1920x1080","","6631.300000000745","10.98","img/314/2.5/1/bw/001.png","","","natural"
"","","","","","animation","216","3872408","0.0-216.0","1920x1080","","64914.800000000745","19.97","img/314/4/2/bw/001.png","","","natural"
"","","","","","animation","217","3876992","0.0-217.0","1920x1080","","4581.5999999996275","54.23","img/314/5.5/0.5/bw/001.png","","","natural"
"","","","","","animation","218","3888494","0.0-218.0","1920x1080","","11500.900000000373","54.37","img/117/4/1.5/bw/001.png","","","natural"
"","","","","","animation","219","3893542","0.0-219.0","1920x1080","","5046.60000000149","65.48","img/314/5.5/1/bw/001.png","","","natural"
"","","","","","animation","220","3931582","0.0-220.0","1920x1080","","38038.699999999255","55.03","img/238/4.5/1/bw/001.png","","","natural"
"","","","","","animation","221","3938340","0.0-221.0","1920x1080","","6756.799999998882","81.88","img/117/5.5/1.5/bw/001.png","","","natural"
"","","","","","animation","222","3951374","0.0-222.0","1920x1080","","13032","27","img/238/3.5/0.66667/bw/001.png","","","natural"
"","","","","","animation","223","3956398","0.0-223.0","1920x1080","","5023.300000000745","74.74","img/314/5.5/1.5/bw/001.png","","","natural"
"","","","","","animation","224","3960644","0.0-224.0","1920x1080","","4246.5999999996275","16.01","img/238/2.5/0.66667/bw/001.png","","","natural"
"","","","","","animation","225","3966022","0.0-225.0","1920x1080","","5376.300000000745","17.99","img/238/2.5/1.5/bw/001.png","","","natural"
"","","","","","animation","226","3980060","0.0-226.0","1920x1080","","14037.099999999627","79.10","img/117/5.5/0.66667/bw/001.png","","","natural"
"","","","","","animation","227","3985172","0.0-227.0","1920x1080","","5107.199999999255","12","img/117/2.5/2/bw/001.png","","","natural"
"","","","","","animation","228","3989356","0.0-228.0","1920x1080","","4181.799999998882","20.63","img/117/2.5/0.66667/bw/001.png","","","natural"
"","","","","","animation","229","3994272","0.0-229.0","1920x1080","","4914.9000000003725","20","img/314/2.5/0.66667/bw/001.png","","","natural"
"","","","","","animation","230","3999872","0.0-230.0","1920x1080","","5598.200000001118","57.67","img/238/4.5/0.5/bw/001.png","","","natural"
"","","","","","animation","231","4009055","0.0-231.0","1920x1080","","9181.10000000149","19.05","img/314/2.5/1.5/bw/001.png","","","natural"
"","","","","","animation","232","4015956","0.0-232.0","1920x1080","","6899.60000000149","82.14","img/117/5.5/2/bw/001.png","","","natural"
"","","","","","animation","233","4020440","0.0-233.0","1920x1080","","4480.800000000745","74","img/238/4/0.5/bw/001.png","","","natural"
"","","","","","animation","234","4028742","0.0-234.0","1920x1080","","8300.39999999851","61.51","img/314/4.5/0.5/bw/001.png","","","natural"
"","","","","","animation","235","4066431","0.0-235.0","1920x1080","","37687","24.47","img/117/4.5/1.5/bw/001.png","","","natural"
"","","","","","html-button-response","236","4087438","0.0-236.0","1920x1080","","20998","","<div class=""intro"">You are about to view a new series of animations.<br><br></div><div class=""intro"">You will evaluate them based on a different descriptor.<br><br></div><div class=""intro"">Move the slider to indicate how <strong style=""text-transform:capitalize"">RELAXING</strong> you find each animation.<br><br></div><div class=""intro"">0 = Least Relaxing<br></div><div class=""intro"">1 = Most Relaxing<br><br></div><div class=""intro"">Remember to use the <strong><em>entire range</em></strong> of the slider to make your ratings.<br></div><div class=""intro"">Please <strong><em>take your time</em></strong> and carefully consider each rating you make.<br><br></div>","0","",""
"","","","","","call-function","237","4087439","0.0-237.0","1920x1080","","","","","","",""
"","","","","","animation","238","4092221","0.0-238.0","1920x1080","","4781.4000000003725","11","img/314/4/0.5/bw/001.png","","","relaxing"
"","","","","","animation","239","4096347","0.0-239.0","1920x1080","","4124","6","img/238/2.5/0.66667/bw/001.png","","","relaxing"
"","","","","","animation","240","4099965","0.0-240.0","1920x1080","","3616.5999999996275","2.78","img/314/2.5/0.66667/bw/001.png","","","relaxing"
"","","","","","animation","241","4105766","0.0-241.0","1920x1080","","5799.300000000745","23.81","img/314/4.5/1.5/bw/001.png","","","relaxing"
"","","","","","animation","242","4108780","0.0-242.0","1920x1080","","3012.699999999255","9","img/117/2.5/1/bw/001.png","","","relaxing"
"","","","","","animation","243","4111314","0.0-243.0","1920x1080","","2532.5999999996275","6.88","img/314/2.5/1/bw/001.png","","","relaxing"
"","","","","","animation","244","4114547","0.0-244.0","1920x1080","","3231.39999999851","20","img/238/3.5/1.5/bw/001.png","","","relaxing"
"","","","","","animation","245","4117565","0.0-245.0","1920x1080","","3016.7999999988824","14.95","img/117/4/0.5/bw/001.png","","","relaxing"
"","","","","","animation","246","4121730","0.0-246.0","1920x1080","","4163.800000000745","24.87","img/117/4/2/bw/001.png","","","relaxing"
"","","","","","animation","247","4124816","0.0-247.0","1920x1080","","3084.800000000745","13.62","img/238/3.5/0.5/bw/001.png","","","relaxing"
"","","","","","animation","248","4133333","0.0-248.0","1920x1080","","8514.89999999851","64.02","img/238/5.5/0.5/bw/001.png","","","relaxing"
"","","","","","animation","249","4144710","0.0-249.0","1920x1080","","11383","19","img/314/4/1.5/bw/001.png","","","relaxing"
"","","","","","animation","250","4148223","0.0-250.0","1920x1080","","3511.2999999988824","18","img/238/3.5/0.66667/bw/001.png","","","relaxing"
"","","","","","animation","251","4154007","0.0-251.0","1920x1080","","5782.4000000003725","71.69","img/314/5.5/0.66667/bw/001.png","","","relaxing"
"","","","","","animation","252","4157474","0.0-252.0","1920x1080","","3464.800000000745","2.25","img/238/2.5/1.5/bw/001.png","","","relaxing"
"","","","","","animation","253","4160342","0.0-253.0","1920x1080","","2866.5999999996275","2","img/314/2.5/1.5/bw/001.png","","","relaxing"
"","","","","","animation","254","4165458","0.0-254.0","1920x1080","","5114.200000001118","63","img/314/5.5/0.5/bw/001.png","","","relaxing"
"","","","","","animation","255","4171174","0.0-255.0","1920x1080","","5714.9000000003725","26","img/117/3.5/1.5/bw/001.png","","","relaxing"
"","","","","","animation","256","4174062","0.0-256.0","1920x1080","","2887","22","img/238/3.5/2/bw/001.png","","","relaxing"
"","","","","","animation","257","4186158","0.0-257.0","1920x1080","","12094.199999999255","34.26","img/238/4/1/bw/001.png","","","relaxing"
"","","","","","animation","258","4189958","0.0-258.0","1920x1080","","3797.39999999851","19","img/117/3.5/1/bw/001.png","","","relaxing"
"","","","","","animation","259","4201972","0.0-259.0","1920x1080","","12014.599999999627","20.63","img/238/3.5/1/bw/001.png","","","relaxing"
"","","","","","animation","260","4205204","0.0-260.0","1920x1080","","3225.800000000745","4.76","img/238/2.5/1/bw/001.png","","","relaxing"
"","","","","","animation","261","4214644","0.0-261.0","1920x1080","","9439","25.40","img/117/4.5/0.66667/bw/001.png","","","relaxing"
"","","","","","animation","262","4228788","0.0-262.0","1920x1080","","14141.699999999255","0","img/238/2.5/0.5/bw/001.png","","","relaxing"
"","","","","","animation","263","4234821","0.0-263.0","1920x1080","","6029.0999999996275","6.48","img/314/3.5/0.5/bw/001.png","","","relaxing"
"","","","","","animation","264","4239021","0.0-264.0","1920x1080","","4198.699999999255","33.47","img/238/4.5/1/bw/001.png","","","relaxing"
"","","","","","animation","265","4266830","0.0-265.0","1920x1080","","27805.300000000745","45","img/117/4.5/2/bw/001.png","","","relaxing"
"","","","","","animation","266","4270389","0.0-266.0","1920x1080","","3557.800000000745","19.44","img/238/4/0.66667/bw/001.png","","","relaxing"
"","","","","","animation","267","4277246","0.0-267.0","1920x1080","","6855.60000000149","28.44","img/238/4.5/1.5/bw/001.png","","","relaxing"
"","","","","","animation","268","4282126","0.0-268.0","1920x1080","","4877.5999999996275","79.50","img/238/5.5/0.66667/bw/001.png","","","relaxing"
"","","","","","animation","269","4293807","0.0-269.0","1920x1080","","11680","6","img/238/2.5/2/bw/001.png","","","relaxing"
"","","","","","animation","270","4299456","0.0-270.0","1920x1080","","5646.700000001118","33.99","img/238/4.5/0.5/bw/001.png","","","relaxing"
"","","","","","animation","271","4329956","0.0-271.0","1920x1080","","30499.699999999255","40.21","img/314/4/1/bw/001.png","","","relaxing"
"","","","","","animation","272","4352908","0.0-272.0","1920x1080","","22950.400000000373","35.05","img/117/4.5/1/bw/001.png","","","relaxing"
"","","","","","animation","273","4358324","0.0-273.0","1920x1080","","5413.5","24.21","img/314/4.5/0.66667/bw/001.png","","","relaxing"
"","","","","","animation","274","4366324","0.0-274.0","1920x1080","","7998.299999998882","62","img/117/5.5/1.5/bw/001.png","","","relaxing"
"","","","","","animation","275","4370869","0.0-275.0","1920x1080","","4543.5999999996275","16.27","img/117/4/0.66667/bw/001.png","","","relaxing"
"","","","","","animation","276","4379294","0.0-276.0","1920x1080","","8421.200000001118","3","img/117/2.5/1.5/bw/001.png","","","relaxing"
"","","","","","animation","277","4390205","0.0-277.0","1920x1080","","10907.299999998882","13.89","img/117/3.5/0.66667/bw/001.png","","","relaxing"
"","","","","","animation","278","4399822","0.0-278.0","1920x1080","","9615.699999999255","54.10","img/238/5.5/1.5/bw/001.png","","","relaxing"
"","","","","","animation","279","4405206","0.0-279.0","1920x1080","","5380.0999999996275","26.06","img/238/4/2/bw/001.png","","","relaxing"
"","","","","","animation","280","4410156","0.0-280.0","1920x1080","","4947.4000000003725","3.70","img/117/2.5/2/bw/001.png","","","relaxing"
"","","","","","animation","281","4416974","0.0-281.0","1920x1080","","6816.699999999255","76.06","img/238/5.5/1/bw/001.png","","","relaxing"
"","","","","","animation","282","4441646","0.0-282.0","1920x1080","","24670.5","13.89","img/117/4/1/bw/001.png","","","relaxing"
"","","","","","animation","283","4447157","0.0-283.0","1920x1080","","5507.699999999255","70.11","img/238/5.5/2/bw/001.png","","","relaxing"
"","","","","","animation","284","4453504","0.0-284.0","1920x1080","","6345.0999999996275","2.25","img/314/2.5/0.5/bw/001.png","","","relaxing"
"","","","","","animation","285","4463655","0.0-285.0","1920x1080","","10149","28.04","img/117/4.5/0.5/bw/001.png","","","relaxing"
"","","","","","animation","286","4468678","0.0-286.0","1920x1080","","5019.300000000745","61.38","img/314/5.5/2/bw/001.png","","","relaxing"
"","","","","","animation","287","4472438","0.0-287.0","1920x1080","","3757.9000000003725","24.60","img/314/4.5/2/bw/001.png","","","relaxing"
"","","","","","animation","288","4478338","0.0-288.0","1920x1080","","5898.199999999255","29.23","img/238/4.5/0.66667/bw/001.png","","","relaxing"
"","","","","","animation","289","4489726","0.0-289.0","1920x1080","","11385.39999999851","3.97","img/117/2.5/0.66667/bw/001.png","","","relaxing"
"","","","","","animation","290","4496862","0.0-290.0","1920x1080","","7132.700000001118","16.93","img/314/3.5/2/bw/001.png","","","relaxing"
"","","","","","animation","291","4505787","0.0-291.0","1920x1080","","8925.10000000149","1.59","img/314/2.5/2/bw/001.png","","","relaxing"
"","","","","","animation","292","4516859","0.0-292.0","1920x1080","","11068.700000001118","17.20","img/314/3.5/1.5/bw/001.png","","","relaxing"
"","","","","","animation","293","4537185","0.0-293.0","1920x1080","","20321.300000000745","26.72","img/238/4/1.5/bw/001.png","","","relaxing"
"","","","","","animation","294","4542952","0.0-294.0","1920x1080","","5765.9000000003725","56.75","img/117/5.5/0.5/bw/001.png","","","relaxing"
"","","","","","animation","295","4618987","0.0-295.0","1920x1080","","76030.5","36","img/238/4.5/2/bw/001.png","","","relaxing"
"","","","","","animation","296","4624571","0.0-296.0","1920x1080","","5582.0999999996275","66.27","img/314/5.5/1/bw/001.png","","","relaxing"
"","","","","","animation","297","4632174","0.0-297.0","1920x1080","","7600.89999999851","1","img/314/4.5/0.5/bw/001.png","","","relaxing"
"","","","","","animation","298","4637590","0.0-298.0","1920x1080","","5413.9000000003725","29.10","img/314/4.5/1/bw/001.png","","","relaxing"
"","","","","","animation","299","4643654","0.0-299.0","1920x1080","","6062.5999999996275","12.30","img/314/3.5/0.66667/bw/001.png","","","relaxing"
"","","","","","animation","300","4654422","0.0-300.0","1920x1080","","10764.200000001118","20.11","img/238/4/0.5/bw/001.png","","","relaxing"
"","","","","","animation","301","4664006","0.0-301.0","1920x1080","","9581.89999999851","56","img/117/5.5/2/bw/001.png","","","relaxing"
"","","","","","animation","302","4674344","0.0-302.0","1920x1080","","10334.900000000373","12.04","img/314/4/0.66667/bw/001.png","","","relaxing"
"","","","","","animation","303","4687004","0.0-303.0","1920x1080","","12656.200000001118","16.27","img/117/4.5/1.5/bw/001.png","","","relaxing"
"","","","","","animation","304","4708622","0.0-304.0","1920x1080","","21616.099999999627","55.95","img/117/5.5/1/bw/001.png","","","relaxing"
"","","","","","animation","305","4739586","0.0-305.0","1920x1080","","30963.200000001118","64","img/314/5.5/1.5/bw/001.png","","","relaxing"
"","","","","","animation","306","4748519","0.0-306.0","1920x1080","","8931.099999999627","57","img/117/5.5/0.66667/bw/001.png","","","relaxing"
"","","","","","animation","307","4757493","0.0-307.0","1920x1080","","8972.599999999627","35","img/314/4/2/bw/001.png","","","relaxing"
"","","","","","animation","308","4761219","0.0-308.0","1920x1080","","3724.699999999255","16","img/314/3.5/1/bw/001.png","","","relaxing"
"","","","","","animation","309","4765569","0.0-309.0","1920x1080","","4348.300000000745","3.70","img/117/3.5/2/bw/001.png","","","relaxing"
"","","","","","animation","310","4773502","0.0-310.0","1920x1080","","7930.799999998882","1.59","img/117/2.5/0.5/bw/001.png","","","relaxing"
"","","","","","animation","311","4829737","0.0-311.0","1920x1080","","56230","24.21","img/117/3.5/0.5/bw/001.png","","","relaxing"
"","","","","","animation","312","4847143","0.0-312.0","1920x1080","","17403.900000000373","31.88","img/117/4/1.5/bw/001.png","","","relaxing"
"","","","","","html-button-response","313","4868929","0.0-313.0","1920x1080","","21774","","<div class=""intro"">You are about to view a new series of animations.<br><br></div><div class=""intro"">You will evaluate them based on a different descriptor.<br><br></div><div class=""intro"">Move the slider to indicate how <strong style=""text-transform:capitalize"">APPEALING</strong> you find each animation.<br><br></div><div class=""intro"">0 = Least Appealing<br></div><div class=""intro"">1 = Most Appealing<br><br></div><div class=""intro"">Remember to use the <strong><em>entire range</em></strong> of the slider to make your ratings.<br></div><div class=""intro"">Please <strong><em>take your time</em></strong> and carefully consider each rating you make.<br><br></div>","0","",""
"","","","","","call-function","314","4868931","0.0-314.0","1920x1080","","","","","","",""
"","","","","","animation","315","4883096","0.0-315.0","1920x1080","","14164","85.19","img/314/5.5/1.5/bw/001.png","","","appealing"
"","","","","","animation","316","4889416","0.0-316.0","1920x1080","","6318","32.01","img/314/4.5/1.5/bw/001.png","","","appealing"
"","","","","","animation","317","4898179","0.0-317.0","1920x1080","","8761.300000000745","26.59","img/238/4.5/0.5/bw/001.png","","","appealing"
"","","","","","animation","318","4906168","0.0-318.0","1920x1080","","7985.5999999996275","69.44","img/314/5.5/0.5/bw/001.png","","","appealing"
"","","","","","animation","319","4912696","0.0-319.0","1920x1080","","6525.9000000003725","72.88","img/314/5.5/0.66667/bw/001.png","","","appealing"
"","","","","","animation","320","4919857","0.0-320.0","1920x1080","","7166.200000001118","6.35","img/238/2.5/1/bw/001.png","","","appealing"
"","","","","","animation","321","4943287","0.0-321.0","1920x1080","","23421.799999998882","35","img/314/4.5/0.66667/bw/001.png","","","appealing"
"","","","","","animation","322","4959058","0.0-322.0","1920x1080","","15768.5","84.26","img/238/5.5/0.5/bw/001.png","","","appealing"
"","","","","","animation","323","4978986","0.0-323.0","1920x1080","","19925.900000000373","23.41","img/314/4/0.5/bw/001.png","","","appealing"
"","","","","","animation","324","4984485","0.0-324.0","1920x1080","","5496.4000000003725","17.59","img/117/4.5/0.5/bw/001.png","","","appealing"
"","","","","","animation","325","4993606","0.0-325.0","1920x1080","","9119.400000000373","22.35","img/238/4.5/0.66667/bw/001.png","","","appealing"
"","","","","","animation","326","5009758","0.0-326.0","1920x1080","","16149.799999998882","9.92","img/238/3.5/0.5/bw/001.png","","","appealing"
"","","","","","animation","327","5014343","0.0-327.0","1920x1080","","4579.9000000003725","2.25","img/314/2.5/0.5/bw/001.png","","","appealing"
"","","","","","animation","328","5035086","0.0-328.0","1920x1080","","20741.300000000745","91.80","img/117/5.5/1/bw/001.png","","","appealing"
"","","","","","animation","329","5066321","0.0-329.0","1920x1080","","31228.199999999255","15","img/117/3.5/2/bw/001.png","","","appealing"
"","","","","","animation","330","5077240","0.0-330.0","1920x1080","","10916.800000000745","20.11","img/238/3.5/1.5/bw/001.png","","","appealing"
"","","","","","animation","331","5096555","0.0-331.0","1920x1080","","19313.400000000373","15.87","img/238/3.5/0.66667/bw/001.png","","","appealing"
"","","","","","animation","332","5104067","0.0-332.0","1920x1080","","7514.199999999255","52.38","img/314/4.5/2/bw/001.png","","","appealing"
"","","","","","animation","333","5110300","0.0-333.0","1920x1080","","6231.4000000003725","12.96","img/314/3.5/0.5/bw/001.png","","","appealing"
"","","","","","animation","334","5114517","0.0-334.0","1920x1080","","4213.9000000003725","7.80","img/117/2.5/1/bw/001.png","","","appealing"
"","","","","","animation","335","5153600","0.0-335.0","1920x1080","","39081.199999999255","28","img/314/3.5/2/bw/001.png","","","appealing"
"","","","","","animation","336","5171954","0.0-336.0","1920x1080","","18347.299999998882","27.25","img/238/3.5/2/bw/001.png","","","appealing"
"","","","","","animation","337","5175257","0.0-337.0","1920x1080","","3300.7000000011176","18.25","img/314/3.5/0.66667/bw/001.png","","","appealing"
"","","","","","animation","338","5183621","0.0-338.0","1920x1080","","8361.599999999627","9","img/117/4/0.5/bw/001.png","","","appealing"
"","","","","","animation","339","5188271","0.0-339.0","1920x1080","","4648.199999999255","3.44","img/238/2.5/0.66667/bw/001.png","","","appealing"
"","","","","","animation","340","5192293","0.0-340.0","1920x1080","","4020.5","13.10","img/117/4/1/bw/001.png","","","appealing"
"","","","","","animation","341","5195425","0.0-341.0","1920x1080","","3129.4000000003725","19.71","img/117/4.5/0.66667/bw/001.png","","","appealing"
"","","","","","animation","342","5199921","0.0-342.0","1920x1080","","4494.800000000745","10.71","img/314/3.5/1/bw/001.png","","","appealing"
"","","","","","animation","343","5233720","0.0-343.0","1920x1080","","33798","35.58","img/238/4/1.5/bw/001.png","","","appealing"
"","","","","","animation","344","5249743","0.0-344.0","1920x1080","","16020.400000000373","17.72","img/238/4/2/bw/001.png","","","appealing"
"","","","","","animation","345","5252602","0.0-345.0","1920x1080","","2856.2000000011176","5.95","img/117/2.5/2/bw/001.png","","","appealing"
"","","","","","animation","346","5257136","0.0-346.0","1920x1080","","4532.300000000745","83.33","img/314/5.5/1/bw/001.png","","","appealing"
"","","","","","animation","347","5260502","0.0-347.0","1920x1080","","3364.0999999996275","13.10","img/117/4/0.66667/bw/001.png","","","appealing"
"","","","","","animation","348","5267428","0.0-348.0","1920x1080","","6923.9000000003725","71.43","img/238/4.5/1/bw/001.png","","","appealing"
"","","","","","animation","349","5271776","0.0-349.0","1920x1080","","4345","0","img/117/2.5/0.5/bw/001.png","","","appealing"
"","","","","","animation","350","5288785","0.0-350.0","1920x1080","","16996","17.59","img/314/4/1.5/bw/001.png","","","appealing"
"","","","","","animation","351","5296571","0.0-351.0","1920x1080","","7782.39999999851","51.19","img/238/4.5/2/bw/001.png","","","appealing"
"","","","","","animation","352","5300331","0.0-352.0","1920x1080","","3757.7000000011176","16.67","img/117/4/1.5/bw/001.png","","","appealing"
"","","","","","animation","353","5312622","0.0-353.0","1920x1080","","12289.199999999255","29","img/117/4.5/1/bw/001.png","","","appealing"
"","","","","","animation","354","5315419","0.0-354.0","1920x1080","","2794.4000000003725","11.24","img/117/3.5/0.66667/bw/001.png","","","appealing"
"","","","","","animation","355","5319251","0.0-355.0","1920x1080","","3829.5999999996275","80.29","img/117/5.5/1.5/bw/001.png","","","appealing"
"","","","","","animation","356","5324015","0.0-356.0","1920x1080","","4762.5999999996275","93.65","img/238/5.5/1/bw/001.png","","","appealing"
"","","","","","animation","357","5338951","0.0-357.0","1920x1080","","14942.699999999255","32.80","img/314/4/2/bw/001.png","","","appealing"
"","","","","","animation","358","5343987","0.0-358.0","1920x1080","","5034.800000000745","52.78","img/117/4.5/1.5/bw/001.png","","","appealing"
"","","","","","animation","359","5351825","0.0-359.0","1920x1080","","7835.799999998882","24.74","img/314/4/0.66667/bw/001.png","","","appealing"
"","","","","","animation","360","5356984","0.0-360.0","1920x1080","","5154.800000000745","4.23","img/117/2.5/0.66667/bw/001.png","","","appealing"
"","","","","","animation","361","5361771","0.0-361.0","1920x1080","","4785.4000000003725","91.40","img/117/5.5/2/bw/001.png","","","appealing"
"","","","","","animation","362","5376404","0.0-362.0","1920x1080","","14630.300000000745","88","img/238/5.5/2/bw/001.png","","","appealing"
"","","","","","animation","363","5384719","0.0-363.0","1920x1080","","8311.199999999255","17.59","img/238/4/1/bw/001.png","","","appealing"
"","","","","","animation","364","5389340","0.0-364.0","1920x1080","","4617.200000001118","15.08","img/238/4.5/1.5/bw/001.png","","","appealing"
"","","","","","animation","365","5405992","0.0-365.0","1920x1080","","16650.099999999627","1","img/314/2.5/1.5/bw/001.png","","","appealing"
"","","","","","animation","366","5415255","0.0-366.0","1920x1080","","9260.800000000745","43","img/117/4/2/bw/001.png","","","appealing"
"","","","","","animation","367","5423327","0.0-367.0","1920x1080","","8070.39999999851","26.85","img/314/4/1/bw/001.png","","","appealing"
"","","","","","animation","368","5433687","0.0-368.0","1920x1080","","10356.900000000373","0","img/117/3.5/0.5/bw/001.png","","","appealing"
"","","","","","animation","369","5448751","0.0-369.0","1920x1080","","15060.199999999255","22.35","img/238/4/0.5/bw/001.png","","","appealing"
"","","","","","animation","370","5451687","0.0-370.0","1920x1080","","2933.199999999255","4.63","img/238/2.5/0.5/bw/001.png","","","appealing"
"","","","","","animation","371","5455135","0.0-371.0","1920x1080","","3446","6.88","img/238/2.5/2/bw/001.png","","","appealing"
"","","","","","animation","372","5459644","0.0-372.0","1920x1080","","4505.199999999255","80.95","img/314/5.5/2/bw/001.png","","","appealing"
"","","","","","animation","373","5463947","0.0-373.0","1920x1080","","4299.89999999851","9.52","img/314/2.5/1/bw/001.png","","","appealing"
"","","","","","animation","374","5468737","0.0-374.0","1920x1080","","4788.5","5.16","img/314/2.5/0.66667/bw/001.png","","","appealing"
"","","","","","animation","375","5483258","0.0-375.0","1920x1080","","14518.5","1.59","img/314/2.5/2/bw/001.png","","","appealing"
"","","","","","animation","376","5489287","0.0-376.0","1920x1080","","6027.5999999996275","4.23","img/238/2.5/1.5/bw/001.png","","","appealing"
"","","","","","animation","377","5495473","0.0-377.0","1920x1080","","6177.5999999996275","93.25","img/238/5.5/0.66667/bw/001.png","","","appealing"
"","","","","","animation","378","5499436","0.0-378.0","1920x1080","","3960.5","5.29","img/117/2.5/1.5/bw/001.png","","","appealing"
"","","","","","animation","379","5504353","0.0-379.0","1920x1080","","4915","21.03","img/314/3.5/1.5/bw/001.png","","","appealing"
"","","","","","animation","380","5546422","0.0-380.0","1920x1080","","42064.59999999963","41.27","img/117/4.5/2/bw/001.png","","","appealing"
"","","","","","animation","381","5556047","0.0-381.0","1920x1080","","9623.099999999627","97","img/117/5.5/0.5/bw/001.png","","","appealing"
"","","","","","animation","382","5570207","0.0-382.0","1920x1080","","14157","11.11","img/314/4.5/0.5/bw/001.png","","","appealing"
"","","","","","animation","383","5584741","0.0-383.0","1920x1080","","14532.199999999255","27.25","img/314/4.5/1/bw/001.png","","","appealing"
"","","","","","animation","384","5618689","0.0-384.0","1920x1080","","33946.300000000745","22.35","img/238/4/0.66667/bw/001.png","","","appealing"
"","","","","","animation","385","5624737","0.0-385.0","1920x1080","","6045.60000000149","9.66","img/117/3.5/1.5/bw/001.png","","","appealing"
"","","","","","animation","386","5635353","0.0-386.0","1920x1080","","10614","82","img/238/5.5/1.5/bw/001.png","","","appealing"
"","","","","","animation","387","5642401","0.0-387.0","1920x1080","","7046.5999999996275","9.39","img/117/3.5/1/bw/001.png","","","appealing"
"","","","","","animation","388","5647979","0.0-388.0","1920x1080","","5575.199999999255","65.87","img/117/5.5/0.66667/bw/001.png","","","appealing"
"","","","","","animation","389","5652034","0.0-389.0","1920x1080","","4053.199999999255","11.77","img/238/3.5/1/bw/001.png","","","appealing"
"","","","","","html-button-response","390","5711933","0.0-390.0","1920x1080","","59883.90000000037","","<strong>Study Debriefing</strong><br><p class=""debrief""><strong>Background:</strong> The patterns you rated are called <em>fractals</em>. The term fractal describes a class of irregular curves or shapes for which any suitably chosen part is similar in shape to a given larger or smaller part when magnified or reduced to the same size. Fractal properties are found throughout the natural and manmade world. The series of animations you saw today displayed animated fractal patterns of a varying complexity.</p><p class=""debrief""><strong>Purpose of this study:</strong> We hope to better understand how the perception of static fractals differs from the perception of animated fractals, and how the speed of the animated patterns influences people&apos;s perception of them. Fractals allow us to study the perception of aesthetic properties (e.g. the perceived level of beauty in an image) without using recognizable content, which makes them an excellent tool for studying abstract aesthetic judgement.</p><p class=""debrief""><strong>Your part:</strong> Your participation has helped us to further understand how humans perceive these patterns across different levels of speed and complexity. This research with allow us to better understand how the visual system and brain process our ever-changing visual environments.<p class=""debrief""><strong>Feedback and Further information:</strong> If you have additional questions about this study, please feel free to ask the researcher, Nathan Gonzales-Hess at nhess @ uoregon.edu. If you have any questions concerning your rights as a research participant, please contact Research Compliance Services, 5237 University of Oregon, Eugene, OR 97403, 541-346-2510, or email researchCompliance @ uoregon.edu. You can also email the Human Subjects Coordinator for psychology and linguistics research at hscoord @ uoregon.edu. ","0","",""
"","","","","","html-button-response","391","5715069","0.0-391.0","1920x1080","","3132.5","","Thank you for participating in this study. <br>Please click below to finish the experiment and submit your responses.<br><br>","0","",""
"true","","","","","fullscreen","392","5716074","0.0-392.0","1920x1080","13:59 21/10/2022","","","","","",""
