"success","timeout","failed_images","failed_audio","failed_video","trial_type","trial_index","time_elapsed","internal_node_id","resolution","timeStamp","rt","response","stimulus","button_pressed","value","descriptor"
"true","false","[]","[]","[]","preload","0","26720","0.0-0.0","1920x1080","","","","","","",""
"true","false","[]","[]","[]","preload","1","55215","0.0-1.0","1920x1080","","","","","","",""
"true","false","[]","[]","[]","preload","2","76816","0.0-2.0","1920x1080","","","","","","",""
"true","","","","","fullscreen","3","80359","0.0-3.0","1920x1080","13:43 27/5/2022","","","","","",""
"","","","","","survey-html-form","4","86661","0.0-4.0","1920x1080","","6299.599999964237","{""age"":""20"",""gender"":""Male""}","","","",""
"","","","","","html-button-response","5","103565","0.0-5.0","1920x1080","","16902.69999998808","","<div class=""complex"">You are going to see a series of animations.<br><br></div><div class=""complex"">Move the slider to indicate how <strong style=""text-transform:capitalize"">COMPLEX</strong> you find each animation.<br><br></div><div class=""complex"">0 = Least Complex<br></div><div class=""complex"">1 = Most Complex<br><br></div><div class=""complex"">Remember to use the <strong><em>entire range</em></strong> of the slider to make your ratings.<br></div><div class=""complex"">Please <strong><em>take your time</em></strong> and carefully consider each rating you make.<br><br></div><div class=""complex"">The study has five sections and will take about 45 minutes to complete.<br><br></div>","0","",""
"","","","","","call-function","6","103565","0.0-6.0","1920x1080","","","","","","",""
"","","","","","animation","7","118005","0.0-7.0","1920x1080","","14436.799999952316","46.83","img/117/2.5/0.66667/bw/001.png","","","complex"
"","","","","","animation","8","128685","0.0-8.0","1920x1080","","10679.099999964237","68","img/238/3.5/0.5/bw/001.png","","","complex"
"","","","","","animation","9","131860","0.0-9.0","1920x1080","","3174.599999964237","17.59","img/117/5.5/0.5/bw/001.png","","","complex"
"","","","","","animation","10","136172","0.0-10.0","1920x1080","","4311","22","img/314/5.5/0.5/bw/001.png","","","complex"
"","","","","","animation","11","138229","0.0-11.0","1920x1080","","2055.300000011921","51.46","img/314/4/1/bw/001.png","","","complex"
"","","","","","animation","12","141052","0.0-12.0","1920x1080","","2822.399999976158","58.33","img/117/3.5/2/bw/001.png","","","complex"
"","","","","","animation","13","143020","0.0-13.0","1920x1080","","1965.8999999761581","18.78","img/314/5.5/2/bw/001.png","","","complex"
"","","","","","animation","14","145396","0.0-14.0","1920x1080","","2375.2999999523163","25.13","img/314/4.5/1.5/bw/001.png","","","complex"
"","","","","","animation","15","148276","0.0-15.0","1920x1080","","2879.199999988079","76.98","img/117/2.5/0.5/bw/001.png","","","complex"
"","","","","","animation","16","150788","0.0-16.0","1920x1080","","2510.900000035763","90.61","img/117/2.5/2/bw/001.png","","","complex"
"","","","","","animation","17","153892","0.0-17.0","1920x1080","","3103.399999976158","31.88","img/314/3.5/0.66667/bw/001.png","","","complex"
"","","","","","animation","18","156908","0.0-18.0","1920x1080","","3015.400000035763","8.73","img/238/5.5/1/bw/001.png","","","complex"
"","","","","","animation","19","159396","0.0-19.0","1920x1080","","2487.199999988079","77.25","img/314/2.5/1/bw/001.png","","","complex"
"","","","","","animation","20","162124","0.0-20.0","1920x1080","","2727.300000011921","26.85","img/238/4/0.66667/bw/001.png","","","complex"
"","","","","","animation","21","164188","0.0-21.0","1920x1080","","2063.099999964237","31.88","img/314/4.5/0.5/bw/001.png","","","complex"
"","","","","","animation","22","165693","0.0-22.0","1920x1080","","1503.6000000238419","30.42","img/314/4.5/0.66667/bw/001.png","","","complex"
"","","","","","animation","23","167902","0.0-23.0","1920x1080","","2208.300000011921","50.66","img/117/3.5/0.66667/bw/001.png","","","complex"
"","","","","","animation","24","170548","0.0-24.0","1920x1080","","2645.899999976158","70.90","img/238/2.5/0.5/bw/001.png","","","complex"
"","","","","","animation","25","172901","0.0-25.0","1920x1080","","2352.099999964237","38.10","img/238/3.5/1.5/bw/001.png","","","complex"
"","","","","","animation","26","174749","0.0-26.0","1920x1080","","1846.699999988079","41.14","img/238/3.5/1/bw/001.png","","","complex"
"","","","","","animation","27","177148","0.0-27.0","1920x1080","","2399","3.70","img/314/5.5/1.5/bw/001.png","","","complex"
"","","","","","animation","28","179420","0.0-28.0","1920x1080","","2270.800000011921","15.34","img/117/5.5/1/bw/001.png","","","complex"
"","","","","","animation","29","181428","0.0-29.0","1920x1080","","2007.1000000238419","25.53","img/117/4.5/2/bw/001.png","","","complex"
"","","","","","animation","30","183852","0.0-30.0","1920x1080","","2423.5","33.86","img/314/4/2/bw/001.png","","","complex"
"","","","","","animation","31","186052","0.0-31.0","1920x1080","","2199.399999976158","38.36","img/314/4/0.66667/bw/001.png","","","complex"
"","","","","","animation","32","187636","0.0-32.0","1920x1080","","1583.5","36.90","img/117/4/0.5/bw/001.png","","","complex"
"","","","","","animation","33","189292","0.0-33.0","1920x1080","","1655.2000000476837","37.96","img/117/4/1/bw/001.png","","","complex"
"","","","","","animation","34","191492","0.0-34.0","1920x1080","","2199.2000000476837","79.89","img/238/2.5/1.5/bw/001.png","","","complex"
"","","","","","animation","35","193428","0.0-35.0","1920x1080","","1935.300000011921","36.77","img/117/4/2/bw/001.png","","","complex"
"","","","","","animation","36","195612","0.0-36.0","1920x1080","","2183.199999988079","29.89","img/238/4.5/0.66667/bw/001.png","","","complex"
"","","","","","animation","37","197476","0.0-37.0","1920x1080","","1863.199999988079","40.34","img/117/4.5/1/bw/001.png","","","complex"
"","","","","","animation","38","199028","0.0-38.0","1920x1080","","1551.300000011921","32.54","img/238/5.5/0.5/bw/001.png","","","complex"
"","","","","","animation","39","201348","0.0-39.0","1920x1080","","2319.199999988079","91.14","img/117/2.5/1/bw/001.png","","","complex"
"","","","","","animation","40","203804","0.0-40.0","1920x1080","","2454.699999988079","30.42","img/238/4.5/1/bw/001.png","","","complex"
"","","","","","animation","41","205756","0.0-41.0","1920x1080","","1951.0999999642372","34.79","img/117/4.5/0.5/bw/001.png","","","complex"
"","","","","","animation","42","207524","0.0-42.0","1920x1080","","1767.199999988079","37.30","img/238/4/1.5/bw/001.png","","","complex"
"","","","","","animation","43","210116","0.0-43.0","1920x1080","","2591.599999964237","27.65","img/117/5.5/0.66667/bw/001.png","","","complex"
"","","","","","animation","44","212788","0.0-44.0","1920x1080","","2670","87.30","img/314/2.5/1.5/bw/001.png","","","complex"
"","","","","","animation","45","215204","0.0-45.0","1920x1080","","2415.600000023842","16.93","img/314/5.5/0.66667/bw/001.png","","","complex"
"","","","","","animation","46","218180","0.0-46.0","1920x1080","","2975.5","23.02","img/238/3.5/0.66667/bw/001.png","","","complex"
"","","","","","animation","47","220340","0.0-47.0","1920x1080","","2159","92.99","img/238/2.5/2/bw/001.png","","","complex"
"","","","","","animation","48","223004","0.0-48.0","1920x1080","","2663.099999964237","43.78","img/238/4.5/0.5/bw/001.png","","","complex"
"","","","","","animation","49","225908","0.0-49.0","1920x1080","","2903.600000023842","92.33","img/117/2.5/1.5/bw/001.png","","","complex"
"","","","","","animation","50","227886","0.0-50.0","1920x1080","","1977.4000000357628","19.84","img/238/4/0.5/bw/001.png","","","complex"
"","","","","","animation","51","229548","0.0-51.0","1920x1080","","1661.300000011921","31.48","img/238/3.5/2/bw/001.png","","","complex"
"","","","","","animation","52","231956","0.0-52.0","1920x1080","","2406.699999988079","21.96","img/117/5.5/1.5/bw/001.png","","","complex"
"","","","","","animation","53","237748","0.0-53.0","1920x1080","","5791.5","59","img/314/3.5/1.5/bw/001.png","","","complex"
"","","","","","animation","54","239924","0.0-54.0","1920x1080","","2174.699999988079","30.95","img/117/4.5/0.66667/bw/001.png","","","complex"
"","","","","","animation","55","242732","0.0-55.0","1920x1080","","2807.399999976158","28.31","img/117/4/1.5/bw/001.png","","","complex"
"","","","","","animation","56","244886","0.0-56.0","1920x1080","","2153.100000023842","75.53","img/314/3.5/1/bw/001.png","","","complex"
"","","","","","animation","57","246572","0.0-57.0","1920x1080","","1684.4000000357628","76.72","img/314/3.5/2/bw/001.png","","","complex"
"","","","","","animation","58","249644","0.0-58.0","1920x1080","","3071.800000011921","24.60","img/117/5.5/2/bw/001.png","","","complex"
"","","","","","animation","59","251444","0.0-59.0","1920x1080","","1799.199999988079","40.34","img/314/4.5/1/bw/001.png","","","complex"
"","","","","","animation","60","253404","0.0-60.0","1920x1080","","1958.699999988079","7","img/238/5.5/0.66667/bw/001.png","","","complex"
"","","","","","animation","61","255756","0.0-61.0","1920x1080","","2351.099999964237","85.71","img/117/3.5/1.5/bw/001.png","","","complex"
"","","","","","animation","62","258092","0.0-62.0","1920x1080","","2335.399999976158","82.67","img/314/4/0.5/bw/001.png","","","complex"
"","","","","","animation","63","260508","0.0-63.0","1920x1080","","2415.400000035763","100","img/238/2.5/1/bw/001.png","","","complex"
"","","","","","animation","64","262670","0.0-64.0","1920x1080","","2160.899999976158","98","img/314/2.5/0.5/bw/001.png","","","complex"
"","","","","","animation","65","265780","0.0-65.0","1920x1080","","3109.400000035763","75.13","img/117/3.5/1/bw/001.png","","","complex"
"","","","","","animation","66","268941","0.0-66.0","1920x1080","","3159.399999976158","8.86","img/238/5.5/1.5/bw/001.png","","","complex"
"","","","","","animation","67","271292","0.0-67.0","1920x1080","","2350.5","73.15","img/117/3.5/0.5/bw/001.png","","","complex"
"","","","","","animation","68","273340","0.0-68.0","1920x1080","","2046.699999988079","61.11","img/238/4/2/bw/001.png","","","complex"
"","","","","","animation","69","277070","0.0-69.0","1920x1080","","3729.400000035763","97","img/314/2.5/0.66667/bw/001.png","","","complex"
"","","","","","animation","70","279612","0.0-70.0","1920x1080","","2540.900000035763","12.43","img/238/5.5/2/bw/001.png","","","complex"
"","","","","","animation","71","282508","0.0-71.0","1920x1080","","2894.800000011921","18.78","img/238/4/1/bw/001.png","","","complex"
"","","","","","animation","72","286412","0.0-72.0","1920x1080","","3903.300000011921","95","img/314/2.5/2/bw/001.png","","","complex"
"","","","","","animation","73","288492","0.0-73.0","1920x1080","","2079.2000000476837","18.39","img/117/4/0.66667/bw/001.png","","","complex"
"","","","","","animation","74","290932","0.0-74.0","1920x1080","","2438.899999976158","35.19","img/314/4.5/2/bw/001.png","","","complex"
"","","","","","animation","75","293021","0.0-75.0","1920x1080","","2087.400000035763","27.65","img/238/4.5/2/bw/001.png","","","complex"
"","","","","","animation","76","295812","0.0-76.0","1920x1080","","2790.400000035763","30.82","img/314/3.5/0.5/bw/001.png","","","complex"
"","","","","","animation","77","304228","0.0-77.0","1920x1080","","8407.099999964237","55","img/314/4/1.5/bw/001.png","","","complex"
"","","","","","animation","78","307964","0.0-78.0","1920x1080","","3734.199999988079","16.53","img/238/4.5/1.5/bw/001.png","","","complex"
"","","","","","animation","79","320532","0.0-79.0","1920x1080","","12567","15.74","img/117/4.5/1.5/bw/001.png","","","complex"
"","","","","","animation","80","331316","0.0-80.0","1920x1080","","10783.200000047684","7.94","img/314/5.5/1/bw/001.png","","","complex"
"","","","","","animation","81","333528","0.0-81.0","1920x1080","","2210.899999976158","96","img/238/2.5/0.66667/bw/001.png","","","complex"
"","","","","","html-button-response","82","336879","0.0-82.0","1920x1080","","3350.099999964237","","<div class=""intro"">You are about to view a new series of animations.<br><br></div><div class=""intro"">You will evaluate them based on a different descriptor.<br><br></div><div class=""intro"">Move the slider to indicate how <strong style=""text-transform:capitalize"">APPEALING</strong> you find each animation.<br><br></div><div class=""intro"">0 = Least Appealing<br></div><div class=""intro"">1 = Most Appealing<br><br></div><div class=""intro"">Remember to use the <strong><em>entire range</em></strong> of the slider to make your ratings.<br></div><div class=""intro"">Please <strong><em>take your time</em></strong> and carefully consider each rating you make.<br><br></div>","0","",""
"","","","","","call-function","83","336880","0.0-83.0","1920x1080","","","","","","",""
"","","","","","animation","84","341004","0.0-84.0","1920x1080","","4123.599999964237","27.91","img/117/2.5/0.66667/bw/001.png","","","appealing"
"","","","","","animation","85","343212","0.0-85.0","1920x1080","","2206.899999976158","32.80","img/314/3.5/1/bw/001.png","","","appealing"
"","","","","","animation","86","346196","0.0-86.0","1920x1080","","2982.800000011921","72","img/314/4/1.5/bw/001.png","","","appealing"
"","","","","","animation","87","348972","0.0-87.0","1920x1080","","2775.800000011921","66.27","img/314/4/0.66667/bw/001.png","","","appealing"
"","","","","","animation","88","353911","0.0-88.0","1920x1080","","4937.699999988079","61.24","img/314/5.5/1.5/bw/001.png","","","appealing"
"","","","","","animation","89","355900","0.0-89.0","1920x1080","","1988.5","27.65","img/314/3.5/0.66667/bw/001.png","","","appealing"
"","","","","","animation","90","358788","0.0-90.0","1920x1080","","2887.400000035763","29","img/238/4/1/bw/001.png","","","appealing"
"","","","","","animation","91","361040","0.0-91.0","1920x1080","","2231.300000011921","4.89","img/314/2.5/2/bw/001.png","","","appealing"
"","","","","","animation","92","363808","0.0-92.0","1920x1080","","2766.900000035763","14.15","img/117/2.5/2/bw/001.png","","","appealing"
"","","","","","animation","93","367072","0.0-93.0","1920x1080","","3262.699999988079","36.64","img/314/4.5/2/bw/001.png","","","appealing"
"","","","","","animation","94","369699","0.0-94.0","1920x1080","","2626.199999988079","61.38","img/238/4.5/1.5/bw/001.png","","","appealing"
"","","","","","animation","95","371552","0.0-95.0","1920x1080","","1851.7000000476837","24.87","img/117/4/1/bw/001.png","","","appealing"
"","","","","","animation","96","373936","0.0-96.0","1920x1080","","2383.199999988079","58.86","img/117/4.5/1.5/bw/001.png","","","appealing"
"","","","","","animation","97","376732","0.0-97.0","1920x1080","","2794.900000035763","24.21","img/314/4.5/0.5/bw/001.png","","","appealing"
"","","","","","animation","98","379088","0.0-98.0","1920x1080","","2355.699999988079","67.20","img/117/3.5/1/bw/001.png","","","appealing"
"","","","","","animation","99","386808","0.0-99.0","1920x1080","","7718.899999976158","19.97","img/117/5.5/0.5/bw/001.png","","","appealing"
"","","","","","animation","100","389976","0.0-100.0","1920x1080","","3167.2999999523163","72.35","img/238/5.5/1.5/bw/001.png","","","appealing"
"","","","","","animation","101","391600","0.0-101.0","1920x1080","","1622.4000000357628","75.66","img/117/5.5/2/bw/001.png","","","appealing"
"","","","","","animation","102","394856","0.0-102.0","1920x1080","","3255.600000023842","14","img/117/3.5/2/bw/001.png","","","appealing"
"","","","","","animation","103","398072","0.0-103.0","1920x1080","","3214.900000035763","47.22","img/314/4/2/bw/001.png","","","appealing"
"","","","","","animation","104","400992","0.0-104.0","1920x1080","","2919.199999988079","4.23","img/238/2.5/1.5/bw/001.png","","","appealing"
"","","","","","animation","105","402800","0.0-105.0","1920x1080","","1806.699999988079","21.30","img/238/3.5/1.5/bw/001.png","","","appealing"
"","","","","","animation","106","404376","0.0-106.0","1920x1080","","1575.699999988079","14.15","img/314/3.5/1.5/bw/001.png","","","appealing"
"","","","","","animation","107","405872","0.0-107.0","1920x1080","","1494.9000000357628","46.43","img/238/4.5/2/bw/001.png","","","appealing"
"","","","","","animation","108","408008","0.0-108.0","1920x1080","","2134.7999999523163","14.81","img/238/3.5/1/bw/001.png","","","appealing"
"","","","","","animation","109","410168","0.0-109.0","1920x1080","","2158.699999988079","5.29","img/238/2.5/2/bw/001.png","","","appealing"
"","","","","","animation","110","412608","0.0-110.0","1920x1080","","2439.300000011921","28.97","img/238/4/0.66667/bw/001.png","","","appealing"
"","","","","","animation","111","414808","0.0-111.0","1920x1080","","2199.300000011921","45.11","img/238/4.5/1/bw/001.png","","","appealing"
"","","","","","animation","112","417040","0.0-112.0","1920x1080","","2231.199999988079","17.99","img/314/3.5/2/bw/001.png","","","appealing"
"","","","","","animation","113","421402","0.0-113.0","1920x1080","","4342.600000023842","6.35","img/238/2.5/1/bw/001.png","","","appealing"
"","","","","","animation","114","443684","0.0-114.0","1920x1080","","22279.700000047684","4.37","img/314/2.5/1.5/bw/001.png","","","appealing"
"","","","","","animation","115","447155","0.0-115.0","1920x1080","","3470.099999964237","54.63","img/238/4.5/0.66667/bw/001.png","","","appealing"
"","","","","","animation","116","448971","0.0-116.0","1920x1080","","1814.8999999761581","23.54","img/238/3.5/2/bw/001.png","","","appealing"
"","","","","","animation","117","451195","0.0-117.0","1920x1080","","2223.5","14.81","img/314/2.5/1/bw/001.png","","","appealing"
"","","","","","animation","118","453318","0.0-118.0","1920x1080","","2121.399999976158","50.66","img/238/4/0.5/bw/001.png","","","appealing"
"","","","","","animation","119","455635","0.0-119.0","1920x1080","","2316.099999964237","5.95","img/117/2.5/1/bw/001.png","","","appealing"
"","","","","","animation","120","457475","0.0-120.0","1920x1080","","1839.6000000238419","53.31","img/117/4/0.66667/bw/001.png","","","appealing"
"","","","","","animation","121","460500","0.0-121.0","1920x1080","","3024.5","53.04","img/117/4/2/bw/001.png","","","appealing"
"","","","","","animation","122","463203","0.0-122.0","1920x1080","","2701.2999999523163","61.24","img/314/4.5/1/bw/001.png","","","appealing"
"","","","","","animation","123","465139","0.0-123.0","1920x1080","","1935.3999999761581","60.19","img/117/4.5/0.66667/bw/001.png","","","appealing"
"","","","","","animation","124","467051","0.0-124.0","1920x1080","","1911.800000011921","39.29","img/117/3.5/0.66667/bw/001.png","","","appealing"
"","","","","","animation","125","469659","0.0-125.0","1920x1080","","2606.699999988079","12.43","img/238/2.5/0.66667/bw/001.png","","","appealing"
"","","","","","animation","126","471955","0.0-126.0","1920x1080","","2295.100000023842","58.20","img/314/4.5/0.66667/bw/001.png","","","appealing"
"","","","","","animation","127","475467","0.0-127.0","1920x1080","","3511","29","img/238/3.5/0.5/bw/001.png","","","appealing"
"","","","","","animation","128","477983","0.0-128.0","1920x1080","","2515.100000023842","62.70","img/238/4/1.5/bw/001.png","","","appealing"
"","","","","","animation","129","480911","0.0-129.0","1920x1080","","2907.199999988079","9.52","img/117/2.5/0.5/bw/001.png","","","appealing"
"","","","","","animation","130","483087","0.0-130.0","1920x1080","","2175","9.39","img/238/2.5/0.5/bw/001.png","","","appealing"
"","","","","","animation","131","486159","0.0-131.0","1920x1080","","3071.300000011921","25.13","img/314/4/0.5/bw/001.png","","","appealing"
"","","","","","animation","132","489831","0.0-132.0","1920x1080","","3671.100000023842","71.96","img/238/5.5/0.5/bw/001.png","","","appealing"
"","","","","","animation","133","492487","0.0-133.0","1920x1080","","2654.400000035763","68.39","img/314/5.5/1/bw/001.png","","","appealing"
"","","","","","animation","134","494203","0.0-134.0","1920x1080","","1715.3999999761581","39.29","img/117/4/0.5/bw/001.png","","","appealing"
"","","","","","animation","135","497279","0.0-135.0","1920x1080","","3075.199999988079","68.12","img/238/5.5/0.66667/bw/001.png","","","appealing"
"","","","","","animation","136","499143","0.0-136.0","1920x1080","","1863","68.52","img/314/5.5/0.66667/bw/001.png","","","appealing"
"","","","","","animation","137","501695","0.0-137.0","1920x1080","","2551.099999964237","73.15","img/117/5.5/1.5/bw/001.png","","","appealing"
"","","","","","animation","138","503911","0.0-138.0","1920x1080","","2215","67.86","img/117/4.5/2/bw/001.png","","","appealing"
"","","","","","animation","139","506121","0.0-139.0","1920x1080","","2208.5","35","img/238/4/2/bw/001.png","","","appealing"
"","","","","","animation","140","509375","0.0-140.0","1920x1080","","3253.600000023842","35.85","img/238/4.5/0.5/bw/001.png","","","appealing"
"","","","","","animation","141","511791","0.0-141.0","1920x1080","","2414.699999988079","32.94","img/117/4/1.5/bw/001.png","","","appealing"
"","","","","","animation","142","513863","0.0-142.0","1920x1080","","2071.199999988079","75.26","img/314/5.5/2/bw/001.png","","","appealing"
"","","","","","animation","143","515615","0.0-143.0","1920x1080","","1751.0999999642372","33.47","img/117/3.5/0.5/bw/001.png","","","appealing"
"","","","","","animation","144","518447","0.0-144.0","1920x1080","","2830.5","2.65","img/117/2.5/1.5/bw/001.png","","","appealing"
"","","","","","animation","145","522255","0.0-145.0","1920x1080","","3807","6.22","img/314/2.5/0.5/bw/001.png","","","appealing"
"","","","","","animation","146","525215","0.0-146.0","1920x1080","","2959.699999988079","63","img/314/4.5/1.5/bw/001.png","","","appealing"
"","","","","","animation","147","527991","0.0-147.0","1920x1080","","2774.899999976158","67","img/117/5.5/0.66667/bw/001.png","","","appealing"
"","","","","","animation","148","530575","0.0-148.0","1920x1080","","2583.199999988079","71.16","img/314/5.5/0.5/bw/001.png","","","appealing"
"","","","","","animation","149","532815","0.0-149.0","1920x1080","","2239.199999988079","71","img/238/5.5/1/bw/001.png","","","appealing"
"","","","","","animation","150","534743","0.0-150.0","1920x1080","","1926.9000000357628","67.46","img/117/5.5/1/bw/001.png","","","appealing"
"","","","","","animation","151","539114","0.0-151.0","1920x1080","","4351.199999988079","51","img/117/4.5/1/bw/001.png","","","appealing"
"","","","","","animation","152","541242","0.0-152.0","1920x1080","","2126.600000023842","70.90","img/238/5.5/2/bw/001.png","","","appealing"
"","","","","","animation","153","543714","0.0-153.0","1920x1080","","2471","9.39","img/238/3.5/0.66667/bw/001.png","","","appealing"
"","","","","","animation","154","545578","0.0-154.0","1920x1080","","1862.800000011921","9.26","img/117/3.5/1.5/bw/001.png","","","appealing"
"","","","","","animation","155","547357","0.0-155.0","1920x1080","","1777.6000000238419","10.98","img/117/4.5/0.5/bw/001.png","","","appealing"
"","","","","","animation","156","549291","0.0-156.0","1920x1080","","1933.4000000357628","12.30","img/314/4/1/bw/001.png","","","appealing"
"","","","","","animation","157","551562","0.0-157.0","1920x1080","","2270","3.70","img/314/3.5/0.5/bw/001.png","","","appealing"
"","","","","","animation","158","554010","0.0-158.0","1920x1080","","2447.100000023842","0","img/314/2.5/0.66667/bw/001.png","","","appealing"
"","","","","","html-button-response","159","572883","0.0-159.0","1920x1080","","18871.100000023842","","<div class=""intro"">You are about to view a new series of animations.<br><br></div><div class=""intro"">You will evaluate them based on a different descriptor.<br><br></div><div class=""intro"">Move the slider to indicate how <strong style=""text-transform:capitalize"">NATURAL</strong> you find each animation.<br><br></div><div class=""intro"">0 = Least Natural<br></div><div class=""intro"">1 = Most Natural<br><br></div><div class=""intro"">Remember to use the <strong><em>entire range</em></strong> of the slider to make your ratings.<br></div><div class=""intro"">Please <strong><em>take your time</em></strong> and carefully consider each rating you make.<br><br></div>","0","",""
"","","","","","call-function","160","572883","0.0-160.0","1920x1080","","","","","","",""
"","","","","","animation","161","576474","0.0-161.0","1920x1080","","3590.600000023842","67.59","img/117/2.5/0.66667/bw/001.png","","","natural"
"","","","","","animation","162","578546","0.0-162.0","1920x1080","","2071.599999964237","62.70","img/314/2.5/0.5/bw/001.png","","","natural"
"","","","","","animation","163","580047","0.0-163.0","1920x1080","","1499.3999999761581","59.66","img/238/2.5/0.5/bw/001.png","","","natural"
"","","","","","animation","164","581773","0.0-164.0","1920x1080","","1723.7000000476837","57.67","img/117/3.5/0.66667/bw/001.png","","","natural"
"","","","","","animation","165","583058","0.0-165.0","1920x1080","","1284","46.16","img/117/4.5/1.5/bw/001.png","","","natural"
"","","","","","animation","166","584882","0.0-166.0","1920x1080","","1823.5","41.67","img/314/3.5/2/bw/001.png","","","natural"
"","","","","","animation","167","589346","0.0-167.0","1920x1080","","4463.199999988079","30.82","img/314/5.5/0.66667/bw/001.png","","","natural"
"","","","","","animation","168","591042","0.0-168.0","1920x1080","","1694.699999988079","31.35","img/314/4.5/0.5/bw/001.png","","","natural"
"","","","","","animation","169","592524","0.0-169.0","1920x1080","","1481","29.89","img/117/5.5/2/bw/001.png","","","natural"
"","","","","","animation","170","593924","0.0-170.0","1920x1080","","1398.6000000238419","29.37","img/238/4/1.5/bw/001.png","","","natural"
"","","","","","animation","171","595250","0.0-171.0","1920x1080","","1325.8999999761581","30.42","img/238/2.5/1/bw/001.png","","","natural"
"","","","","","animation","172","596930","0.0-172.0","1920x1080","","1678.6000000238419","56.48","img/117/4.5/0.66667/bw/001.png","","","natural"
"","","","","","animation","173","598474","0.0-173.0","1920x1080","","1542.3999999761581","61.11","img/238/4/0.5/bw/001.png","","","natural"
"","","","","","animation","174","600234","0.0-174.0","1920x1080","","1748.6000000238419","62.30","img/238/3.5/2/bw/001.png","","","natural"
"","","","","","animation","175","601941","0.0-175.0","1920x1080","","1706","59.39","img/314/5.5/0.5/bw/001.png","","","natural"
"","","","","","animation","176","604293","0.0-176.0","1920x1080","","2351.2999999523163","61.90","img/314/5.5/1.5/bw/001.png","","","natural"
"","","","","","animation","177","606918","0.0-177.0","1920x1080","","2623.599999964237","20.63","img/117/2.5/1/bw/001.png","","","natural"
"","","","","","animation","178","610184","0.0-178.0","1920x1080","","3265.800000011921","27.78","img/314/3.5/0.5/bw/001.png","","","natural"
"","","","","","animation","179","611901","0.0-179.0","1920x1080","","1715.699999988079","21.96","img/314/4/1.5/bw/001.png","","","natural"
"","","","","","animation","180","613323","0.0-180.0","1920x1080","","1420.7999999523163","19.97","img/117/4.5/0.5/bw/001.png","","","natural"
"","","","","","animation","181","615534","0.0-181.0","1920x1080","","2209.899999976158","24.34","img/314/4/1/bw/001.png","","","natural"
"","","","","","animation","182","617051","0.0-182.0","1920x1080","","1515.5","21.16","img/117/3.5/1.5/bw/001.png","","","natural"
"","","","","","animation","183","619534","0.0-183.0","1920x1080","","2482.800000011921","10.71","img/238/2.5/0.66667/bw/001.png","","","natural"
"","","","","","animation","184","621551","0.0-184.0","1920x1080","","2015.199999988079","14.68","img/238/4/1/bw/001.png","","","natural"
"","","","","","animation","185","623985","0.0-185.0","1920x1080","","2433.199999988079","14.68","img/238/3.5/1/bw/001.png","","","natural"
"","","","","","animation","186","638869","0.0-186.0","1920x1080","","14882.699999988079","26.32","img/238/4.5/1.5/bw/001.png","","","natural"
"","","","","","animation","187","641293","0.0-187.0","1920x1080","","2423.399999976158","15.61","img/314/2.5/1/bw/001.png","","","natural"
"","","","","","animation","188","644418","0.0-188.0","1920x1080","","3123.5","12.30","img/238/2.5/2/bw/001.png","","","natural"
"","","","","","animation","189","646901","0.0-189.0","1920x1080","","2482","17.72","img/238/3.5/1.5/bw/001.png","","","natural"
"","","","","","animation","190","649835","0.0-190.0","1920x1080","","2932.600000023842","14.02","img/117/2.5/0.5/bw/001.png","","","natural"
"","","","","","animation","191","652357","0.0-191.0","1920x1080","","2521.2999999523163","10.32","img/314/2.5/0.66667/bw/001.png","","","natural"
"","","","","","animation","192","654269","0.0-192.0","1920x1080","","1910.5","12.17","img/238/3.5/0.66667/bw/001.png","","","natural"
"","","","","","animation","193","656551","0.0-193.0","1920x1080","","2281.300000011921","64.68","img/117/5.5/0.66667/bw/001.png","","","natural"
"","","","","","animation","194","658557","0.0-194.0","1920x1080","","2004.8999999761581","65.87","img/314/4/0.66667/bw/001.png","","","natural"
"","","","","","animation","195","660751","0.0-195.0","1920x1080","","2193.2000000476837","67.86","img/314/3.5/1.5/bw/001.png","","","natural"
"","","","","","animation","196","662405","0.0-196.0","1920x1080","","1653.1000000238419","69.97","img/117/5.5/1.5/bw/001.png","","","natural"
"","","","","","animation","197","664301","0.0-197.0","1920x1080","","1895","66.40","img/238/4/2/bw/001.png","","","natural"
"","","","","","animation","198","665869","0.0-198.0","1920x1080","","1567.1000000238419","63.49","img/238/4.5/2/bw/001.png","","","natural"
"","","","","","animation","199","667805","0.0-199.0","1920x1080","","1935.3999999761581","67.20","img/117/4.5/2/bw/001.png","","","natural"
"","","","","","animation","200","671885","0.0-200.0","1920x1080","","4078.699999988079","21.96","img/314/2.5/1.5/bw/001.png","","","natural"
"","","","","","animation","201","673739","0.0-201.0","1920x1080","","1853","25.40","img/314/2.5/2/bw/001.png","","","natural"
"","","","","","animation","202","679118","0.0-202.0","1920x1080","","5377.900000035763","26.19","img/238/4/0.66667/bw/001.png","","","natural"
"","","","","","animation","203","685651","0.0-203.0","1920x1080","","6529.899999976158","60.71","img/117/3.5/2/bw/001.png","","","natural"
"","","","","","animation","204","688557","0.0-204.0","1920x1080","","2904.699999988079","60.71","img/238/5.5/1.5/bw/001.png","","","natural"
"","","","","","animation","205","690535","0.0-205.0","1920x1080","","1976.3999999761581","62.83","img/117/4.5/1/bw/001.png","","","natural"
"","","","","","animation","206","692302","0.0-206.0","1920x1080","","1765.8999999761581","61.51","img/314/3.5/1/bw/001.png","","","natural"
"","","","","","animation","207","694219","0.0-207.0","1920x1080","","1915.699999988079","60.71","img/314/5.5/2/bw/001.png","","","natural"
"","","","","","animation","208","695701","0.0-208.0","1920x1080","","1482.1000000238419","60.85","img/238/5.5/1/bw/001.png","","","natural"
"","","","","","animation","209","697253","0.0-209.0","1920x1080","","1550.199999988079","62.96","img/238/5.5/0.5/bw/001.png","","","natural"
"","","","","","animation","210","700109","0.0-210.0","1920x1080","","2855.5","62.70","img/314/5.5/1/bw/001.png","","","natural"
"","","","","","animation","211","701871","0.0-211.0","1920x1080","","1760.699999988079","48.41","img/117/4/1/bw/001.png","","","natural"
"","","","","","animation","212","703762","0.0-212.0","1920x1080","","1889.300000011921","50.26","img/117/4/2/bw/001.png","","","natural"
"","","","","","animation","213","706237","0.0-213.0","1920x1080","","2473.399999976158","49.34","img/238/4.5/1/bw/001.png","","","natural"
"","","","","","animation","214","708952","0.0-214.0","1920x1080","","2713.800000011921","21.43","img/117/2.5/1.5/bw/001.png","","","natural"
"","","","","","animation","215","711477","0.0-215.0","1920x1080","","2524.399999976158","26.06","img/117/4/0.5/bw/001.png","","","natural"
"","","","","","animation","216","716589","0.0-216.0","1920x1080","","5111","29.76","img/314/3.5/0.66667/bw/001.png","","","natural"
"","","","","","animation","217","718221","0.0-217.0","1920x1080","","1630.4000000357628","29.23","img/117/2.5/2/bw/001.png","","","natural"
"","","","","","animation","218","722002","0.0-218.0","1920x1080","","3779.899999976158","24.74","img/117/3.5/0.5/bw/001.png","","","natural"
"","","","","","animation","219","723773","0.0-219.0","1920x1080","","1770.199999988079","64.29","img/238/4.5/0.66667/bw/001.png","","","natural"
"","","","","","animation","220","725720","0.0-220.0","1920x1080","","1945.3999999761581","63.62","img/117/5.5/1/bw/001.png","","","natural"
"","","","","","animation","221","728109","0.0-221.0","1920x1080","","2388.599999964237","66.67","img/117/3.5/1/bw/001.png","","","natural"
"","","","","","animation","222","729725","0.0-222.0","1920x1080","","1612.2000000476837","68.65","img/314/4.5/2/bw/001.png","","","natural"
"","","","","","animation","223","731405","0.0-223.0","1920x1080","","1679","71.16","img/238/5.5/0.66667/bw/001.png","","","natural"
"","","","","","animation","224","733837","0.0-224.0","1920x1080","","2430.600000023842","50.13","img/238/4.5/0.5/bw/001.png","","","natural"
"","","","","","animation","225","735770","0.0-225.0","1920x1080","","1931.300000011921","22.62","img/238/2.5/1.5/bw/001.png","","","natural"
"","","","","","animation","226","737603","0.0-226.0","1920x1080","","1832","52.51","img/314/4/2/bw/001.png","","","natural"
"","","","","","animation","227","739142","0.0-227.0","1920x1080","","1538","64.29","img/238/5.5/2/bw/001.png","","","natural"
"","","","","","animation","228","740973","0.0-228.0","1920x1080","","1831","54.89","img/314/4.5/1.5/bw/001.png","","","natural"
"","","","","","animation","229","743973","0.0-229.0","1920x1080","","2998.399999976158","69","img/117/4/1.5/bw/001.png","","","natural"
"","","","","","animation","230","752094","0.0-230.0","1920x1080","","8119","30","img/117/5.5/0.5/bw/001.png","","","natural"
"","","","","","animation","231","755269","0.0-231.0","1920x1080","","3174.400000035763","34.39","img/314/4/0.5/bw/001.png","","","natural"
"","","","","","animation","232","757570","0.0-232.0","1920x1080","","2299.599999964237","33.20","img/117/4/0.66667/bw/001.png","","","natural"
"","","","","","animation","233","760678","0.0-233.0","1920x1080","","3106.800000011921","31.48","img/238/3.5/0.5/bw/001.png","","","natural"
"","","","","","animation","234","762310","0.0-234.0","1920x1080","","1630.699999988079","31.35","img/314/4.5/0.66667/bw/001.png","","","natural"
"","","","","","animation","235","765995","0.0-235.0","1920x1080","","3684.900000035763","22.35","img/314/4.5/1/bw/001.png","","","natural"
"","","","","","html-button-response","236","785222","0.0-236.0","1920x1080","","19224.80000001192","","<div class=""intro"">You are about to view a new series of animations.<br><br></div><div class=""intro"">You will evaluate them based on a different descriptor.<br><br></div><div class=""intro"">Move the slider to indicate how <strong style=""text-transform:capitalize"">RELAXING</strong> you find each animation.<br><br></div><div class=""intro"">0 = Least Relaxing<br></div><div class=""intro"">1 = Most Relaxing<br><br></div><div class=""intro"">Remember to use the <strong><em>entire range</em></strong> of the slider to make your ratings.<br></div><div class=""intro"">Please <strong><em>take your time</em></strong> and carefully consider each rating you make.<br><br></div>","0","",""
"","","","","","call-function","237","785223","0.0-237.0","1920x1080","","","","","","",""
"","","","","","animation","238","788389","0.0-238.0","1920x1080","","3166.300000011921","89","img/238/5.5/1.5/bw/001.png","","","relaxing"
"","","","","","animation","239","791236","0.0-239.0","1920x1080","","2845.199999988079","51.72","img/117/3.5/2/bw/001.png","","","relaxing"
"","","","","","animation","240","793269","0.0-240.0","1920x1080","","2031.5","53.70","img/238/4.5/2/bw/001.png","","","relaxing"
"","","","","","animation","241","795403","0.0-241.0","1920x1080","","2132.5","6.22","img/314/2.5/0.66667/bw/001.png","","","relaxing"
"","","","","","animation","242","797053","0.0-242.0","1920x1080","","1649.5","60.85","img/117/5.5/2/bw/001.png","","","relaxing"
"","","","","","animation","243","798694","0.0-243.0","1920x1080","","1639.6000000238419","32.28","img/117/4/0.5/bw/001.png","","","relaxing"
"","","","","","animation","244","800869","0.0-244.0","1920x1080","","2174.800000011921","7","img/314/2.5/1/bw/001.png","","","relaxing"
"","","","","","animation","245","802869","0.0-245.0","1920x1080","","1998.800000011921","44.18","img/314/4.5/1.5/bw/001.png","","","relaxing"
"","","","","","animation","246","804878","0.0-246.0","1920x1080","","2007.6000000238419","5.95","img/117/2.5/1/bw/001.png","","","relaxing"
"","","","","","animation","247","807520","0.0-247.0","1920x1080","","2640.5","7.80","img/117/3.5/0.5/bw/001.png","","","relaxing"
"","","","","","animation","248","810903","0.0-248.0","1920x1080","","3381.899999976158","31.48","img/238/4.5/0.5/bw/001.png","","","relaxing"
"","","","","","animation","249","812637","0.0-249.0","1920x1080","","1733.1000000238419","40.61","img/238/3.5/2/bw/001.png","","","relaxing"
"","","","","","animation","250","814353","0.0-250.0","1920x1080","","1714.8999999761581","46.30","img/117/4/1.5/bw/001.png","","","relaxing"
"","","","","","animation","251","816957","0.0-251.0","1920x1080","","2603.5","67.06","img/314/5.5/1/bw/001.png","","","relaxing"
"","","","","","animation","252","819205","0.0-252.0","1920x1080","","2247","61.90","img/117/4.5/1.5/bw/001.png","","","relaxing"
"","","","","","animation","253","822270","0.0-253.0","1920x1080","","3063","80.42","img/117/5.5/1.5/bw/001.png","","","relaxing"
"","","","","","animation","254","824737","0.0-254.0","1920x1080","","2465.7999999523163","8.47","img/238/2.5/2/bw/001.png","","","relaxing"
"","","","","","animation","255","827553","0.0-255.0","1920x1080","","2815.5","78.17","img/314/5.5/1.5/bw/001.png","","","relaxing"
"","","","","","animation","256","829542","0.0-256.0","1920x1080","","1987.5","33.60","img/238/4/0.5/bw/001.png","","","relaxing"
"","","","","","animation","257","831726","0.0-257.0","1920x1080","","2182.900000035763","29","img/238/4/1/bw/001.png","","","relaxing"
"","","","","","animation","258","833870","0.0-258.0","1920x1080","","2143.400000035763","31.61","img/238/4.5/0.66667/bw/001.png","","","relaxing"
"","","","","","animation","259","835742","0.0-259.0","1920x1080","","1870.4000000357628","28.97","img/117/3.5/0.66667/bw/001.png","","","relaxing"
"","","","","","animation","260","840186","0.0-260.0","1920x1080","","4443.599999964237","74","img/314/5.5/2/bw/001.png","","","relaxing"
"","","","","","animation","261","842293","0.0-261.0","1920x1080","","2105.900000035763","32.94","img/314/4/1.5/bw/001.png","","","relaxing"
"","","","","","animation","262","845494","0.0-262.0","1920x1080","","3199","70.90","img/238/5.5/0.5/bw/001.png","","","relaxing"
"","","","","","animation","263","847821","0.0-263.0","1920x1080","","2326.300000011921","42.86","img/314/4.5/0.5/bw/001.png","","","relaxing"
"","","","","","animation","264","849926","0.0-264.0","1920x1080","","2103.2000000476837","64.68","img/238/5.5/0.66667/bw/001.png","","","relaxing"
"","","","","","animation","265","853220","0.0-265.0","1920x1080","","3293","71.16","img/238/5.5/2/bw/001.png","","","relaxing"
"","","","","","animation","266","855837","0.0-266.0","1920x1080","","2616.300000011921","37.43","img/117/4.5/1/bw/001.png","","","relaxing"
"","","","","","animation","267","858110","0.0-267.0","1920x1080","","2271.399999976158","2.65","img/314/2.5/2/bw/001.png","","","relaxing"
"","","","","","animation","268","861153","0.0-268.0","1920x1080","","3041.7000000476837","32.54","img/117/4/0.66667/bw/001.png","","","relaxing"
"","","","","","animation","269","865374","0.0-269.0","1920x1080","","4220","18.12","img/314/3.5/1.5/bw/001.png","","","relaxing"
"","","","","","animation","270","868621","0.0-270.0","1920x1080","","3246.399999976158","15.08","img/314/4/1/bw/001.png","","","relaxing"
"","","","","","animation","271","872807","0.0-271.0","1920x1080","","4183.599999964237","7.01","img/238/3.5/0.5/bw/001.png","","","relaxing"
"","","","","","animation","272","877787","0.0-272.0","1920x1080","","4978.600000023842","12.96","img/314/4/0.66667/bw/001.png","","","relaxing"
"","","","","","animation","273","879570","0.0-273.0","1920x1080","","1781.800000011921","9","img/117/4.5/0.5/bw/001.png","","","relaxing"
"","","","","","animation","274","882005","0.0-274.0","1920x1080","","2434.600000023842","13.62","img/238/3.5/1/bw/001.png","","","relaxing"
"","","","","","animation","275","883957","0.0-275.0","1920x1080","","1951.1000000238419","7","img/314/3.5/0.5/bw/001.png","","","relaxing"
"","","","","","animation","276","886419","0.0-276.0","1920x1080","","2460.699999988079","50.93","img/238/4.5/1/bw/001.png","","","relaxing"
"","","","","","animation","277","888870","0.0-277.0","1920x1080","","2449.800000011921","5.16","img/314/2.5/1.5/bw/001.png","","","relaxing"
"","","","","","animation","278","892020","0.0-278.0","1920x1080","","3148.699999988079","62.96","img/238/5.5/1/bw/001.png","","","relaxing"
"","","","","","animation","279","895437","0.0-279.0","1920x1080","","3415.5","4.23","img/117/2.5/1.5/bw/001.png","","","relaxing"
"","","","","","animation","280","897670","0.0-280.0","1920x1080","","2232.099999964237","8.07","img/314/3.5/1/bw/001.png","","","relaxing"
"","","","","","animation","281","899421","0.0-281.0","1920x1080","","1749.8999999761581","61.77","img/314/5.5/0.66667/bw/001.png","","","relaxing"
"","","","","","animation","282","902106","0.0-282.0","1920x1080","","2684.599999964237","16.67","img/238/3.5/0.66667/bw/001.png","","","relaxing"
"","","","","","animation","283","904786","0.0-283.0","1920x1080","","2677.199999988079","65.74","img/314/4/2/bw/001.png","","","relaxing"
"","","","","","animation","284","907589","0.0-284.0","1920x1080","","2801.300000011921","4.63","img/238/2.5/0.66667/bw/001.png","","","relaxing"
"","","","","","animation","285","912788","0.0-285.0","1920x1080","","5198","7.41","img/314/2.5/0.5/bw/001.png","","","relaxing"
"","","","","","animation","286","930237","0.0-286.0","1920x1080","","17446.900000035763","65","img/117/3.5/1.5/bw/001.png","","","relaxing"
"","","","","","animation","287","941336","0.0-287.0","1920x1080","","11098.400000035763","25.26","img/117/2.5/0.5/bw/001.png","","","relaxing"
"","","","","","animation","288","943439","0.0-288.0","1920x1080","","2101.699999988079","59.39","img/117/5.5/1/bw/001.png","","","relaxing"
"","","","","","animation","289","945189","0.0-289.0","1920x1080","","1748.2999999523163","54","img/314/4.5/0.66667/bw/001.png","","","relaxing"
"","","","","","animation","290","946725","0.0-290.0","1920x1080","","1535.0999999642372","46.83","img/117/4.5/2/bw/001.png","","","relaxing"
"","","","","","animation","291","949253","0.0-291.0","1920x1080","","2527.399999976158","11.51","img/238/2.5/1.5/bw/001.png","","","relaxing"
"","","","","","animation","292","951153","0.0-292.0","1920x1080","","1898.199999988079","13.76","img/314/3.5/0.66667/bw/001.png","","","relaxing"
"","","","","","animation","293","954419","0.0-293.0","1920x1080","","3265.400000035763","50.79","img/117/4/2/bw/001.png","","","relaxing"
"","","","","","animation","294","959315","0.0-294.0","1920x1080","","4893.399999976158","38.89","img/117/4.5/0.66667/bw/001.png","","","relaxing"
"","","","","","animation","295","961388","0.0-295.0","1920x1080","","2071.800000011921","9.66","img/117/2.5/2/bw/001.png","","","relaxing"
"","","","","","animation","296","963264","0.0-296.0","1920x1080","","1874.5","14.02","img/314/3.5/2/bw/001.png","","","relaxing"
"","","","","","animation","297","965021","0.0-297.0","1920x1080","","1756","20.63","img/238/3.5/1.5/bw/001.png","","","relaxing"
"","","","","","animation","298","967070","0.0-298.0","1920x1080","","2047.199999988079","20.63","img/238/4/2/bw/001.png","","","relaxing"
"","","","","","animation","299","968862","0.0-299.0","1920x1080","","1791","44.05","img/314/4/0.5/bw/001.png","","","relaxing"
"","","","","","animation","300","972805","0.0-300.0","1920x1080","","3942.100000023842","-7.14","img/238/2.5/1/bw/001.png","","","relaxing"
"","","","","","animation","301","976437","0.0-301.0","1920x1080","","3629.699999988079","51.72","img/238/4/1.5/bw/001.png","","","relaxing"
"","","","","","animation","302","979730","0.0-302.0","1920x1080","","3291.5","11.51","img/238/4/0.66667/bw/001.png","","","relaxing"
"","","","","","animation","303","982742","0.0-303.0","1920x1080","","3010.300000011921","50.00","img/314/4.5/2/bw/001.png","","","relaxing"
"","","","","","animation","304","984654","0.0-304.0","1920x1080","","1911","10.58","img/117/3.5/1/bw/001.png","","","relaxing"
"","","","","","animation","305","996694","0.0-305.0","1920x1080","","12038.100000023842","58.33","img/117/5.5/0.66667/bw/001.png","","","relaxing"
"","","","","","animation","306","1003711","0.0-306.0","1920x1080","","7015.300000011921","30.29","img/117/4/1/bw/001.png","","","relaxing"
"","","","","","animation","307","1005662","0.0-307.0","1920x1080","","1950.199999988079","26.19","img/314/4.5/1/bw/001.png","","","relaxing"
"","","","","","animation","308","1008221","0.0-308.0","1920x1080","","2558.2999999523163","68.52","img/314/5.5/0.5/bw/001.png","","","relaxing"
"","","","","","animation","309","1009854","0.0-309.0","1920x1080","","1631.2999999523163","67.06","img/238/4.5/1.5/bw/001.png","","","relaxing"
"","","","","","animation","310","1011681","0.0-310.0","1920x1080","","1826.2000000476837","68.25","img/117/5.5/0.5/bw/001.png","","","relaxing"
"","","","","","animation","311","1013822","0.0-311.0","1920x1080","","2139.300000011921","2.65","img/117/2.5/0.66667/bw/001.png","","","relaxing"
"","","","","","animation","312","1015870","0.0-312.0","1920x1080","","2045.300000011921","2.51","img/238/2.5/0.5/bw/001.png","","","relaxing"
"","","","","","html-button-response","313","1041630","0.0-313.0","1920x1080","","25759.5","","<div class=""intro"">You are about to view a new series of animations.<br><br></div><div class=""intro"">You will evaluate them based on a different descriptor.<br><br></div><div class=""intro"">Move the slider to indicate how <strong style=""text-transform:capitalize"">INTERESTING</strong> you find each animation.<br><br></div><div class=""intro"">0 = Least Interesting<br></div><div class=""intro"">1 = Most Interesting<br><br></div><div class=""intro"">Remember to use the <strong><em>entire range</em></strong> of the slider to make your ratings.<br></div><div class=""intro"">Please <strong><em>take your time</em></strong> and carefully consider each rating you make.<br><br></div>","0","",""
"","","","","","call-function","314","1041635","0.0-314.0","1920x1080","","","","","","",""
"","","","","","animation","315","1044726","0.0-315.0","1920x1080","","3090.199999988079","66.67","img/238/4.5/1.5/bw/001.png","","","interesting"
"","","","","","animation","316","1046893","0.0-316.0","1920x1080","","2166.099999964237","7.28","img/238/2.5/0.66667/bw/001.png","","","interesting"
"","","","","","animation","317","1050293","0.0-317.0","1920x1080","","3398.600000023842","6.35","img/238/2.5/2/bw/001.png","","","interesting"
"","","","","","animation","318","1052470","0.0-318.0","1920x1080","","2175.800000011921","7.94","img/238/3.5/0.5/bw/001.png","","","interesting"
"","","","","","animation","319","1055192","0.0-319.0","1920x1080","","2718.7999999523163","36.38","img/117/4/2/bw/001.png","","","interesting"
"","","","","","animation","320","1057054","0.0-320.0","1920x1080","","1860.5","7.67","img/238/2.5/1.5/bw/001.png","","","interesting"
"","","","","","animation","321","1059308","0.0-321.0","1920x1080","","2253.199999988079","27.12","img/238/4.5/0.5/bw/001.png","","","interesting"
"","","","","","animation","322","1061356","0.0-322.0","1920x1080","","2046.6000000238419","7.01","img/238/2.5/0.5/bw/001.png","","","interesting"
"","","","","","animation","323","1063655","0.0-323.0","1920x1080","","2297.7999999523163","39.42","img/314/5.5/1.5/bw/001.png","","","interesting"
"","","","","","animation","324","1066470","0.0-324.0","1920x1080","","2813.399999976158","7.28","img/117/2.5/0.5/bw/001.png","","","interesting"
"","","","","","animation","325","1068853","0.0-325.0","1920x1080","","2382.099999964237","11.90","img/314/4/1/bw/001.png","","","interesting"
"","","","","","animation","326","1072070","0.0-326.0","1920x1080","","3215.400000035763","13.10","img/238/3.5/1.5/bw/001.png","","","interesting"
"","","","","","animation","327","1074220","0.0-327.0","1920x1080","","2149.5","12.83","img/238/4/1.5/bw/001.png","","","interesting"
"","","","","","animation","328","1078127","0.0-328.0","1920x1080","","3905.100000023842","12.04","img/117/4/0.5/bw/001.png","","","interesting"
"","","","","","animation","329","1080351","0.0-329.0","1920x1080","","2224.899999976158","11.51","img/314/4/0.66667/bw/001.png","","","interesting"
"","","","","","animation","330","1082862","0.0-330.0","1920x1080","","2507.100000023842","60.45","img/238/5.5/1.5/bw/001.png","","","interesting"
"","","","","","animation","331","1089732","0.0-331.0","1920x1080","","6869.199999988079","74.47","img/117/5.5/0.66667/bw/001.png","","","interesting"
"","","","","","animation","332","1096983","0.0-332.0","1920x1080","","7227.5","71.69","img/117/3.5/2/bw/001.png","","","interesting"
"","","","","","animation","333","1099923","0.0-333.0","1920x1080","","2938.5","77.65","img/238/4/2/bw/001.png","","","interesting"
"","","","","","animation","334","1111734","0.0-334.0","1920x1080","","11809.800000011921","85.05","img/314/4.5/1/bw/001.png","","","interesting"
"","","","","","animation","335","1113739","0.0-335.0","1920x1080","","2002.7000000476837","71.30","img/314/4.5/0.66667/bw/001.png","","","interesting"
"","","","","","animation","336","1116438","0.0-336.0","1920x1080","","2697.899999976158","71.30","img/117/5.5/2/bw/001.png","","","interesting"
"","","","","","animation","337","1124559","0.0-337.0","1920x1080","","8120.200000047684","75.79","img/117/5.5/0.5/bw/001.png","","","interesting"
"","","","","","animation","338","1128651","0.0-338.0","1920x1080","","4090.399999976158","70.11","img/314/4.5/2/bw/001.png","","","interesting"
"","","","","","animation","339","1135987","0.0-339.0","1920x1080","","7335.100000023842","29.23","img/238/3.5/2/bw/001.png","","","interesting"
"","","","","","animation","340","1138923","0.0-340.0","1920x1080","","2934","21.56","img/117/4.5/0.5/bw/001.png","","","interesting"
"","","","","","animation","341","1141032","0.0-341.0","1920x1080","","2109.900000035763","24.07","img/314/4/2/bw/001.png","","","interesting"
"","","","","","animation","342","1144385","0.0-342.0","1920x1080","","3351.600000023842","56.61","img/117/4.5/0.66667/bw/001.png","","","interesting"
"","","","","","animation","343","1146489","0.0-343.0","1920x1080","","2102.600000023842","22.62","img/238/3.5/1/bw/001.png","","","interesting"
"","","","","","animation","344","1149298","0.0-344.0","1920x1080","","2807.699999988079","30.56","img/314/4/1.5/bw/001.png","","","interesting"
"","","","","","animation","345","1151969","0.0-345.0","1920x1080","","2669.199999988079","68.52","img/314/5.5/0.5/bw/001.png","","","interesting"
"","","","","","animation","346","1154496","0.0-346.0","1920x1080","","2526.099999964237","31.22","img/314/3.5/2/bw/001.png","","","interesting"
"","","","","","animation","347","1156752","0.0-347.0","1920x1080","","2254","67.06","img/117/5.5/1.5/bw/001.png","","","interesting"
"","","","","","animation","348","1158832","0.0-348.0","1920x1080","","2079.199999988079","66.27","img/238/4.5/2/bw/001.png","","","interesting"
"","","","","","animation","349","1161618","0.0-349.0","1920x1080","","2785","35","img/117/4/1.5/bw/001.png","","","interesting"
"","","","","","animation","350","1163272","0.0-350.0","1920x1080","","1650.3999999761581","29.23","img/117/3.5/1.5/bw/001.png","","","interesting"
"","","","","","animation","351","1165482","0.0-351.0","1920x1080","","2208.699999988079","35.58","img/117/4.5/1/bw/001.png","","","interesting"
"","","","","","animation","352","1167543","0.0-352.0","1920x1080","","2059.5","5.82","img/117/2.5/1.5/bw/001.png","","","interesting"
"","","","","","animation","353","1169920","0.0-353.0","1920x1080","","2375.800000011921","4.50","img/314/2.5/0.66667/bw/001.png","","","interesting"
"","","","","","animation","354","1173269","0.0-354.0","1920x1080","","3347.699999988079","6.61","img/314/4/0.5/bw/001.png","","","interesting"
"","","","","","animation","355","1175504","0.0-355.0","1920x1080","","2233.7000000476837","5.69","img/238/2.5/1/bw/001.png","","","interesting"
"","","","","","animation","356","1177768","0.0-356.0","1920x1080","","2262.5","65.48","img/238/5.5/0.5/bw/001.png","","","interesting"
"","","","","","animation","357","1180258","0.0-357.0","1920x1080","","2488.800000011921","32","img/314/3.5/1.5/bw/001.png","","","interesting"
"","","","","","animation","358","1182412","0.0-358.0","1920x1080","","2152.699999988079","45.77","img/117/2.5/1/bw/001.png","","","interesting"
"","","","","","animation","359","1184233","0.0-359.0","1920x1080","","1819.4000000357628","55.03","img/117/3.5/1/bw/001.png","","","interesting"
"","","","","","animation","360","1186666","0.0-360.0","1920x1080","","2432.100000023842","74.60","img/117/5.5/1/bw/001.png","","","interesting"
"","","","","","animation","361","1188942","0.0-361.0","1920x1080","","2274.800000011921","72.22","img/238/4.5/1/bw/001.png","","","interesting"
"","","","","","animation","362","1191032","0.0-362.0","1920x1080","","2089","25.26","img/314/2.5/1/bw/001.png","","","interesting"
"","","","","","animation","363","1193184","0.0-363.0","1920x1080","","2150.099999964237","73.28","img/117/4.5/2/bw/001.png","","","interesting"
"","","","","","animation","364","1195849","0.0-364.0","1920x1080","","2664.400000035763","76.85","img/314/5.5/1/bw/001.png","","","interesting"
"","","","","","animation","365","1198483","0.0-365.0","1920x1080","","2630.5","66.27","img/117/4/1/bw/001.png","","","interesting"
"","","","","","animation","366","1200064","0.0-366.0","1920x1080","","1581.699999988079","67.06","img/314/4.5/0.5/bw/001.png","","","interesting"
"","","","","","animation","367","1201366","0.0-367.0","1920x1080","","1301","68.39","img/238/4/1/bw/001.png","","","interesting"
"","","","","","animation","368","1203264","0.0-368.0","1920x1080","","1896.800000011921","25.40","img/117/2.5/2/bw/001.png","","","interesting"
"","","","","","animation","369","1205999","0.0-369.0","1920x1080","","2733.599999964237","92","img/238/5.5/2/bw/001.png","","","interesting"
"","","","","","animation","370","1208433","0.0-370.0","1920x1080","","2433","37.30","img/314/2.5/0.5/bw/001.png","","","interesting"
"","","","","","animation","371","1210001","0.0-371.0","1920x1080","","1567.300000011921","76.46","img/314/4.5/1.5/bw/001.png","","","interesting"
"","","","","","animation","372","1212847","0.0-372.0","1920x1080","","2844.600000023842","63.89","img/117/3.5/0.5/bw/001.png","","","interesting"
"","","","","","animation","373","1214952","0.0-373.0","1920x1080","","2102.899999976158","63.76","img/117/4.5/1.5/bw/001.png","","","interesting"
"","","","","","animation","374","1217269","0.0-374.0","1920x1080","","2316.400000035763","83.20","img/314/5.5/0.66667/bw/001.png","","","interesting"
"","","","","","animation","375","1220243","0.0-375.0","1920x1080","","2972.5","80.42","img/238/4/0.5/bw/001.png","","","interesting"
"","","","","","animation","376","1223057","0.0-376.0","1920x1080","","2811.800000011921","80.42","img/314/5.5/2/bw/001.png","","","interesting"
"","","","","","animation","377","1225270","0.0-377.0","1920x1080","","2211.600000023842","41","img/314/3.5/1/bw/001.png","","","interesting"
"","","","","","animation","378","1227902","0.0-378.0","1920x1080","","2631.100000023842","14.42","img/314/2.5/2/bw/001.png","","","interesting"
"","","","","","animation","379","1229902","0.0-379.0","1920x1080","","1999","83.20","img/238/5.5/0.66667/bw/001.png","","","interesting"
"","","","","","animation","380","1232718","0.0-380.0","1920x1080","","2813.899999976158","78.31","img/238/3.5/0.66667/bw/001.png","","","interesting"
"","","","","","animation","381","1234952","0.0-381.0","1920x1080","","2232.600000023842","31","img/314/3.5/0.5/bw/001.png","","","interesting"
"","","","","","animation","382","1237629","0.0-382.0","1920x1080","","2675.599999964237","15.74","img/314/2.5/1.5/bw/001.png","","","interesting"
"","","","","","animation","383","1239623","0.0-383.0","1920x1080","","1992.199999988079","19.84","img/314/3.5/0.66667/bw/001.png","","","interesting"
"","","","","","animation","384","1241167","0.0-384.0","1920x1080","","1542.800000011921","20.37","img/117/4/0.66667/bw/001.png","","","interesting"
"","","","","","animation","385","1243968","0.0-385.0","1920x1080","","2798.899999976158","13.23","img/117/2.5/0.66667/bw/001.png","","","interesting"
"","","","","","animation","386","1248086","0.0-386.0","1920x1080","","4116.099999964237","77.51","img/238/4.5/0.66667/bw/001.png","","","interesting"
"","","","","","animation","387","1250441","0.0-387.0","1920x1080","","2353","33","img/117/3.5/0.66667/bw/001.png","","","interesting"
"","","","","","animation","388","1252909","0.0-388.0","1920x1080","","2466.699999988079","34.39","img/238/4/0.66667/bw/001.png","","","interesting"
"","","","","","animation","389","1256939","0.0-389.0","1920x1080","","4028.7999999523163","78.31","img/238/5.5/1/bw/001.png","","","interesting"
"","","","","","html-button-response","390","1262412","0.0-390.0","1920x1080","","5473","","<strong>Study Debriefing</strong><br><p class=""debrief""><strong>Background:</strong> The patterns you rated are called <em>fractals</em>. The term fractal describes a class of irregular curves or shapes for which any suitably chosen part is similar in shape to a given larger or smaller part when magnified or reduced to the same size. Fractal properties are found throughout the natural and manmade world. The series of animations you saw today displayed animated fractal patterns of a varying complexity.</p><p class=""debrief""><strong>Purpose of this study:</strong> We hope to better understand how the perception of static fractals differs from the perception of animated fractals, and how the speed of the animated patterns influences people&apos;s perception of them. Fractals allow us to study the perception of aesthetic properties (e.g. the perceived level of beauty in an image) without using recognizable content, which makes them an excellent tool for studying abstract aesthetic judgement.</p><p class=""debrief""><strong>Your part:</strong> Your participation has helped us to further understand how humans perceive these patterns across different levels of speed and complexity. This research with allow us to better understand how the visual system and brain process our ever-changing visual environments.<p class=""debrief""><strong>Feedback and Further information:</strong> If you have additional questions about this study, please feel free to ask the researcher, Nathan Gonzales-Hess at nhess @ uoregon.edu. If you have any questions concerning your rights as a research participant, please contact Research Compliance Services, 5237 University of Oregon, Eugene, OR 97403, 541-346-2510, or email researchCompliance @ uoregon.edu. You can also email the Human Subjects Coordinator for psychology and linguistics research at hscoord @ uoregon.edu. ","0","",""
"","","","","","html-button-response","391","1264827","0.0-391.0","1920x1080","","2412","","Thank you for participating in this study. <br>Please click below to finish the experiment and submit your responses.<br><br>","0","",""
"true","","","","","fullscreen","392","1265837","0.0-392.0","1920x1080","14:3 27/5/2022","","","","","",""
