"success","timeout","failed_images","failed_audio","failed_video","trial_type","trial_index","time_elapsed","internal_node_id","resolution","timeStamp","rt","response","stimulus","button_pressed","value","descriptor"
"true","false","[]","[]","[]","preload","0","3826","0.0-0.0","1920x1080","","","","","","",""
"true","false","[]","[]","[]","preload","1","7745","0.0-1.0","1920x1080","","","","","","",""
"true","false","[]","[]","[]","preload","2","35142","0.0-2.0","1920x1080","","","","","","",""
"true","","","","","fullscreen","3","39569","0.0-3.0","1920x1080","14:5 2/6/2022","","","","","",""
"","","","","","survey-html-form","4","44796","0.0-4.0","1920x1080","","5224.799999952316","{""age"":""19"",""gender"":""Male""}","","","",""
"","","","","","html-button-response","5","67772","0.0-5.0","1920x1080","","22975.300000071526","","<div class=""complex"">You are going to see a series of animations.<br><br></div><div class=""complex"">Move the slider to indicate how <strong style=""text-transform:capitalize"">COMPLEX</strong> you find each animation.<br><br></div><div class=""complex"">0 = Least Complex<br></div><div class=""complex"">1 = Most Complex<br><br></div><div class=""complex"">Remember to use the <strong><em>entire range</em></strong> of the slider to make your ratings.<br></div><div class=""complex"">Please <strong><em>take your time</em></strong> and carefully consider each rating you make.<br><br></div><div class=""complex"">The study has five sections and will take about 45 minutes to complete.<br><br></div>","0","",""
"","","","","","call-function","6","67773","0.0-6.0","1920x1080","","","","","","",""
"","","","","","animation","7","81180","0.0-7.0","1920x1080","","13404.5","75.66","img/238/5.5/1.5/bw/001.png","","","complex"
"","","","","","animation","8","118283","0.0-8.0","1920x1080","","37102.5","79.63","img/117/4/2/bw/001.png","","","complex"
"","","","","","animation","9","157276","0.0-9.0","1920x1080","","38989.10000002384","84.92","img/238/2.5/2/bw/001.png","","","complex"
"","","","","","animation","10","169884","0.0-10.0","1920x1080","","12604.700000047684","50.53","img/314/4/1/bw/001.png","","","complex"
"","","","","","animation","11","179548","0.0-11.0","1920x1080","","9663.700000047684","23.94","img/117/5.5/2/bw/001.png","","","complex"
"","","","","","animation","12","190892","0.0-12.0","1920x1080","","11343.200000047684","51.32","img/238/4/1/bw/001.png","","","complex"
"","","","","","animation","13","199484","0.0-13.0","1920x1080","","8590.600000023842","75.00","img/314/3.5/0.66667/bw/001.png","","","complex"
"","","","","","animation","14","210299","0.0-14.0","1920x1080","","10815.399999976158","84.79","img/238/3.5/1/bw/001.png","","","complex"
"","","","","","animation","15","219204","0.0-15.0","1920x1080","","8903.5","14.02","img/117/5.5/1/bw/001.png","","","complex"
"","","","","","animation","16","235124","0.0-16.0","1920x1080","","15919.200000047684","96","img/314/2.5/0.66667/bw/001.png","","","complex"
"","","","","","animation","17","250611","0.0-17.0","1920x1080","","15486.5","71.43","img/117/4/0.66667/bw/001.png","","","complex"
"","","","","","animation","18","259027","0.0-18.0","1920x1080","","8415.5","53.04","img/117/4.5/1/bw/001.png","","","complex"
"","","","","","animation","19","278324","0.0-19.0","1920x1080","","19295","58.47","img/117/4.5/2/bw/001.png","","","complex"
"","","","","","animation","20","295932","0.0-20.0","1920x1080","","17607.200000047684","84.13","img/238/3.5/0.5/bw/001.png","","","complex"
"","","","","","animation","21","312484","0.0-21.0","1920x1080","","16551.299999952316","79.23","img/117/3.5/1.5/bw/001.png","","","complex"
"","","","","","animation","22","331180","0.0-22.0","1920x1080","","18695.199999928474","17","img/314/5.5/0.5/bw/001.png","","","complex"
"","","","","","animation","23","337396","0.0-23.0","1920x1080","","6215.100000023842","8.47","img/238/5.5/0.66667/bw/001.png","","","complex"
"","","","","","animation","24","413604","0.0-24.0","1920x1080","","76207.20000004768","87.70","img/117/2.5/0.5/bw/001.png","","","complex"
"","","","","","animation","25","451100","0.0-25.0","1920x1080","","37494.5","81","img/117/3.5/0.66667/bw/001.png","","","complex"
"","","","","","animation","26","684132","0.0-26.0","1920x1080","","233031.5","94","img/314/3.5/0.5/bw/001.png","","","complex"
"","","","","","animation","27","691109","0.0-27.0","1920x1080","","6974.899999976158","48","img/117/4.5/1.5/bw/001.png","","","complex"
"","","","","","animation","28","698700","0.0-28.0","1920x1080","","7590.199999928474","55.29","img/117/4/1/bw/001.png","","","complex"
"","","","","","animation","29","707325","0.0-29.0","1920x1080","","8624.599999904633","86.90","img/314/3.5/2/bw/001.png","","","complex"
"","","","","","animation","30","714627","0.0-30.0","1920x1080","","7301.800000071526","59.79","img/117/4/0.5/bw/001.png","","","complex"
"","","","","","animation","31","721876","0.0-31.0","1920x1080","","7247.600000023842","98","img/117/2.5/1/bw/001.png","","","complex"
"","","","","","animation","32","728403","0.0-32.0","1920x1080","","6526.899999976158","39.15","img/238/4.5/1/bw/001.png","","","complex"
"","","","","","animation","33","732396","0.0-33.0","1920x1080","","3991.600000023842","24.74","img/117/5.5/1.5/bw/001.png","","","complex"
"","","","","","animation","34","898698","0.0-34.0","1920x1080","","166303.60000002384","90.08","img/117/3.5/2/bw/001.png","","","complex"
"","","","","","animation","35","904050","0.0-35.0","1920x1080","","5351","64.15","img/238/4.5/0.66667/bw/001.png","","","complex"
"","","","","","animation","36","907842","0.0-36.0","1920x1080","","3790.5999999046326","98","img/238/2.5/1/bw/001.png","","","complex"
"","","","","","animation","37","912178","0.0-37.0","1920x1080","","4335.600000023842","48.94","img/314/4.5/1/bw/001.png","","","complex"
"","","","","","animation","38","916658","0.0-38.0","1920x1080","","4478.600000023842","18.65","img/238/5.5/2/bw/001.png","","","complex"
"","","","","","animation","39","919874","0.0-39.0","1920x1080","","3216.100000023842","70.24","img/238/3.5/2/bw/001.png","","","complex"
"","","","","","animation","40","926515","0.0-40.0","1920x1080","","6638.600000023842","4.50","img/314/5.5/2/bw/001.png","","","complex"
"","","","","","animation","41","932506","0.0-41.0","1920x1080","","5989.600000023842","91.27","img/238/2.5/1.5/bw/001.png","","","complex"
"","","","","","animation","42","935987","0.0-42.0","1920x1080","","3480","56","img/238/4.5/1.5/bw/001.png","","","complex"
"","","","","","animation","43","939619","0.0-43.0","1920x1080","","3631.0999999046326","71.56","img/238/3.5/0.66667/bw/001.png","","","complex"
"","","","","","animation","44","943242","0.0-44.0","1920x1080","","3622.600000023842","41.14","img/117/5.5/0.66667/bw/001.png","","","complex"
"","","","","","animation","45","945826","0.0-45.0","1920x1080","","2583.1999999284744","60.05","img/117/4.5/0.5/bw/001.png","","","complex"
"","","","","","animation","46","951027","0.0-46.0","1920x1080","","5199.200000047684","61","img/314/4.5/1.5/bw/001.png","","","complex"
"","","","","","animation","47","954435","0.0-47.0","1920x1080","","3407.4000000953674","73.54","img/314/4/0.66667/bw/001.png","","","complex"
"","","","","","animation","48","962363","0.0-48.0","1920x1080","","7927.200000047684","75.40","img/117/4.5/0.66667/bw/001.png","","","complex"
"","","","","","animation","49","967347","0.0-49.0","1920x1080","","4983.400000095367","32.14","img/314/5.5/1.5/bw/001.png","","","complex"
"","","","","","animation","50","979387","0.0-50.0","1920x1080","","12039.199999928474","61.90","img/238/4.5/0.5/bw/001.png","","","complex"
"","","","","","animation","51","987275","0.0-51.0","1920x1080","","7887","91.27","img/314/2.5/2/bw/001.png","","","complex"
"","","","","","animation","52","990635","0.0-52.0","1920x1080","","3358.600000023842","57.80","img/314/4/0.5/bw/001.png","","","complex"
"","","","","","animation","53","996762","0.0-53.0","1920x1080","","6126.700000047684","89.68","img/314/2.5/1.5/bw/001.png","","","complex"
"","","","","","animation","54","1003042","0.0-54.0","1920x1080","","6279.200000047684","97","img/117/2.5/0.66667/bw/001.png","","","complex"
"","","","","","animation","55","1012341","0.0-55.0","1920x1080","","9296.899999976158","96","img/238/2.5/0.66667/bw/001.png","","","complex"
"","","","","","animation","56","1018419","0.0-56.0","1920x1080","","6077.199999928474","83.86","img/314/3.5/1.5/bw/001.png","","","complex"
"","","","","","animation","57","1022098","0.0-57.0","1920x1080","","3678.7000000476837","99","img/314/2.5/1/bw/001.png","","","complex"
"","","","","","animation","58","1030994","0.0-58.0","1920x1080","","8895.100000023842","66.40","img/238/4/2/bw/001.png","","","complex"
"","","","","","animation","59","1044098","0.0-59.0","1920x1080","","13103.5","18","img/238/5.5/1/bw/001.png","","","complex"
"","","","","","animation","60","1048586","0.0-60.0","1920x1080","","4487.100000023842","73","img/238/4.5/2/bw/001.png","","","complex"
"","","","","","animation","61","1053866","0.0-61.0","1920x1080","","5279","75.66","img/238/4/0.5/bw/001.png","","","complex"
"","","","","","animation","62","1057234","0.0-62.0","1920x1080","","3366.3000000715256","98","img/117/2.5/1.5/bw/001.png","","","complex"
"","","","","","animation","63","1077530","0.0-63.0","1920x1080","","20295.300000071526","70","img/238/4/0.66667/bw/001.png","","","complex"
"","","","","","animation","64","1079946","0.0-64.0","1920x1080","","2415.1999999284744","47.22","img/117/5.5/0.5/bw/001.png","","","complex"
"","","","","","animation","65","1104341","0.0-65.0","1920x1080","","24393.400000095367","59.39","img/314/4/2/bw/001.png","","","complex"
"","","","","","animation","66","1110899","0.0-66.0","1920x1080","","6556.799999952316","88.62","img/117/2.5/2/bw/001.png","","","complex"
"","","","","","animation","67","1116842","0.0-67.0","1920x1080","","5942.600000023842","73.81","img/117/4/1.5/bw/001.png","","","complex"
"","","","","","animation","68","1128818","0.0-68.0","1920x1080","","11975.399999976158","89","img/314/2.5/0.5/bw/001.png","","","complex"
"","","","","","animation","69","1134267","0.0-69.0","1920x1080","","5447.399999976158","26.85","img/238/5.5/0.5/bw/001.png","","","complex"
"","","","","","animation","70","1145610","0.0-70.0","1920x1080","","11342.600000023842","85","img/238/3.5/1.5/bw/001.png","","","complex"
"","","","","","animation","71","1149651","0.0-71.0","1920x1080","","4039.399999976158","93.25","img/117/3.5/0.5/bw/001.png","","","complex"
"","","","","","animation","72","1153587","0.0-72.0","1920x1080","","3934.899999976158","67.06","img/314/4.5/0.66667/bw/001.png","","","complex"
"","","","","","animation","73","1155787","0.0-73.0","1920x1080","","2199.100000023842","57.28","img/314/4.5/2/bw/001.png","","","complex"
"","","","","","animation","74","1302690","0.0-74.0","1920x1080","","146902.70000004768","67.86","img/314/4/1.5/bw/001.png","","","complex"
"","","","","","animation","75","1321874","0.0-75.0","1920x1080","","19183.100000023842","65.87","img/314/4.5/0.5/bw/001.png","","","complex"
"","","","","","animation","76","1325867","0.0-76.0","1920x1080","","3991.7000000476837","36.90","img/314/5.5/1/bw/001.png","","","complex"
"","","","","","animation","77","1329090","0.0-77.0","1920x1080","","3222.6999999284744","48.81","img/314/5.5/0.66667/bw/001.png","","","complex"
"","","","","","animation","78","1332179","0.0-78.0","1920x1080","","3087.2000000476837","95","img/314/3.5/1/bw/001.png","","","complex"
"","","","","","animation","79","1339562","0.0-79.0","1920x1080","","7382.899999976158","77","img/238/4/1.5/bw/001.png","","","complex"
"","","","","","animation","80","1344274","0.0-80.0","1920x1080","","4710.700000047684","85.71","img/117/3.5/1/bw/001.png","","","complex"
"","","","","","animation","81","1346835","0.0-81.0","1920x1080","","2559.2000000476837","97","img/238/2.5/0.5/bw/001.png","","","complex"
"","","","","","html-button-response","82","1365315","0.0-82.0","1920x1080","","18479.100000023842","","<div class=""intro"">You are about to view a new series of animations.<br><br></div><div class=""intro"">You will evaluate them based on a different descriptor.<br><br></div><div class=""intro"">Move the slider to indicate how <strong style=""text-transform:capitalize"">INTERESTING</strong> you find each animation.<br><br></div><div class=""intro"">0 = Least Interesting<br></div><div class=""intro"">1 = Most Interesting<br><br></div><div class=""intro"">Remember to use the <strong><em>entire range</em></strong> of the slider to make your ratings.<br></div><div class=""intro"">Please <strong><em>take your time</em></strong> and carefully consider each rating you make.<br><br></div>","0","",""
"","","","","","call-function","83","1365316","0.0-83.0","1920x1080","","","","","","",""
"","","","","","animation","84","1377242","0.0-84.0","1920x1080","","11925.799999952316","66","img/117/3.5/0.66667/bw/001.png","","","interesting"
"","","","","","animation","85","1382324","0.0-85.0","1920x1080","","5080.799999952316","42.86","img/238/4.5/1/bw/001.png","","","interesting"
"","","","","","animation","86","1396851","0.0-86.0","1920x1080","","14525.300000071526","70.11","img/238/5.5/2/bw/001.png","","","interesting"
"","","","","","animation","87","1403674","0.0-87.0","1920x1080","","6822.5","74","img/238/5.5/1/bw/001.png","","","interesting"
"","","","","","animation","88","1409115","0.0-88.0","1920x1080","","5439.200000047684","53.57","img/238/4.5/2/bw/001.png","","","interesting"
"","","","","","animation","89","1415341","0.0-89.0","1920x1080","","6223.800000071526","67.20","img/238/4.5/1.5/bw/001.png","","","interesting"
"","","","","","animation","90","1422539","0.0-90.0","1920x1080","","7197.700000047684","86.51","img/314/3.5/2/bw/001.png","","","interesting"
"","","","","","animation","91","1430835","0.0-91.0","1920x1080","","8294.299999952316","42.20","img/117/4.5/0.66667/bw/001.png","","","interesting"
"","","","","","animation","92","1438347","0.0-92.0","1920x1080","","7511.700000047684","62.96","img/314/2.5/0.66667/bw/001.png","","","interesting"
"","","","","","animation","93","1446307","0.0-93.0","1920x1080","","7958.800000071526","47.35","img/314/4.5/1/bw/001.png","","","interesting"
"","","","","","animation","94","1461699","0.0-94.0","1920x1080","","15391.900000095367","64.29","img/117/4.5/2/bw/001.png","","","interesting"
"","","","","","animation","95","1465395","0.0-95.0","1920x1080","","3695","44.84","img/238/2.5/0.66667/bw/001.png","","","interesting"
"","","","","","animation","96","1470907","0.0-96.0","1920x1080","","5510.300000071526","72.22","img/238/5.5/0.5/bw/001.png","","","interesting"
"","","","","","animation","97","1481875","0.0-97.0","1920x1080","","10967","65","img/238/4/2/bw/001.png","","","interesting"
"","","","","","animation","98","1487859","0.0-98.0","1920x1080","","5983.199999928474","92.46","img/117/5.5/0.66667/bw/001.png","","","interesting"
"","","","","","animation","99","1492957","0.0-99.0","1920x1080","","5096.799999952316","74.47","img/314/4.5/1.5/bw/001.png","","","interesting"
"","","","","","animation","100","1500484","0.0-100.0","1920x1080","","7525","69.84","img/117/4/1.5/bw/001.png","","","interesting"
"","","","","","animation","101","1505108","0.0-101.0","1920x1080","","4623.399999976158","60.45","img/117/4/0.66667/bw/001.png","","","interesting"
"","","","","","animation","102","1510347","0.0-102.0","1920x1080","","5238.600000023842","73.68","img/314/5.5/1.5/bw/001.png","","","interesting"
"","","","","","animation","103","1516091","0.0-103.0","1920x1080","","5742.699999928474","35.98","img/117/2.5/0.5/bw/001.png","","","interesting"
"","","","","","animation","104","1519859","0.0-104.0","1920x1080","","3767","55.29","img/314/4.5/0.66667/bw/001.png","","","interesting"
"","","","","","animation","105","1528059","0.0-105.0","1920x1080","","8199.199999928474","61.64","img/117/4.5/1.5/bw/001.png","","","interesting"
"","","","","","animation","106","1533228","0.0-106.0","1920x1080","","5167.300000071526","62","img/117/4/0.5/bw/001.png","","","interesting"
"","","","","","animation","107","1536180","0.0-107.0","1920x1080","","2951.2999999523163","33.60","img/238/2.5/1/bw/001.png","","","interesting"
"","","","","","animation","108","1539131","0.0-108.0","1920x1080","","2950.399999976158","45.90","img/117/3.5/1.5/bw/001.png","","","interesting"
"","","","","","animation","109","1550628","0.0-109.0","1920x1080","","11495.5","59.13","img/238/2.5/1.5/bw/001.png","","","interesting"
"","","","","","animation","110","1563084","0.0-110.0","1920x1080","","12454.700000047684","69.58","img/238/4/1/bw/001.png","","","interesting"
"","","","","","animation","111","1567052","0.0-111.0","1920x1080","","3967.1999999284744","60.98","img/314/4/0.66667/bw/001.png","","","interesting"
"","","","","","animation","112","1574732","0.0-112.0","1920x1080","","7679.100000023842","57.14","img/238/4/1.5/bw/001.png","","","interesting"
"","","","","","animation","113","1579342","0.0-113.0","1920x1080","","4608.899999976158","47.09","img/117/4.5/1/bw/001.png","","","interesting"
"","","","","","animation","114","1583251","0.0-114.0","1920x1080","","3908.5","38.76","img/238/4/0.5/bw/001.png","","","interesting"
"","","","","","animation","115","1593408","0.0-115.0","1920x1080","","10155.200000047684","57.28","img/314/4/1/bw/001.png","","","interesting"
"","","","","","animation","116","1604180","0.0-116.0","1920x1080","","10771.799999952316","36.90","img/314/3.5/0.5/bw/001.png","","","interesting"
"","","","","","animation","117","1610852","0.0-117.0","1920x1080","","6671","53.70","img/238/3.5/1.5/bw/001.png","","","interesting"
"","","","","","animation","118","1616060","0.0-118.0","1920x1080","","5206.699999928474","22.62","img/314/2.5/0.5/bw/001.png","","","interesting"
"","","","","","animation","119","1621875","0.0-119.0","1920x1080","","5815","86","img/117/5.5/2/bw/001.png","","","interesting"
"","","","","","animation","120","1626224","0.0-120.0","1920x1080","","4347.5","60.19","img/314/3.5/0.66667/bw/001.png","","","interesting"
"","","","","","animation","121","1633592","0.0-121.0","1920x1080","","7366.799999952316","74.74","img/117/5.5/0.5/bw/001.png","","","interesting"
"","","","","","animation","122","1636596","0.0-122.0","1920x1080","","3003.5","66.53","img/238/3.5/0.5/bw/001.png","","","interesting"
"","","","","","animation","123","1643516","0.0-123.0","1920x1080","","6919.099999904633","80.29","img/314/5.5/0.5/bw/001.png","","","interesting"
"","","","","","animation","124","1650054","0.0-124.0","1920x1080","","6535.100000023842","64.29","img/314/4/0.5/bw/001.png","","","interesting"
"","","","","","animation","125","1661150","0.0-125.0","1920x1080","","11094.699999928474","56","img/117/3.5/0.5/bw/001.png","","","interesting"
"","","","","","animation","126","1666109","0.0-126.0","1920x1080","","4958.799999952316","29.76","img/117/2.5/0.66667/bw/001.png","","","interesting"
"","","","","","animation","127","1675608","0.0-127.0","1920x1080","","9498.5","65.34","img/238/5.5/0.66667/bw/001.png","","","interesting"
"","","","","","animation","128","1679870","0.0-128.0","1920x1080","","4260","68.92","img/117/4.5/0.5/bw/001.png","","","interesting"
"","","","","","animation","129","1683534","0.0-129.0","1920x1080","","3663.1999999284744","43.92","img/238/3.5/0.66667/bw/001.png","","","interesting"
"","","","","","animation","130","1691733","0.0-130.0","1920x1080","","8198.800000071526","60.58","img/314/4.5/0.5/bw/001.png","","","interesting"
"","","","","","animation","131","1700358","0.0-131.0","1920x1080","","8622.599999904633","59.26","img/238/4.5/0.5/bw/001.png","","","interesting"
"","","","","","animation","132","1708719","0.0-132.0","1920x1080","","8358.299999952316","41","img/238/2.5/0.5/bw/001.png","","","interesting"
"","","","","","animation","133","1718428","0.0-133.0","1920x1080","","9707.5","59.92","img/117/2.5/1.5/bw/001.png","","","interesting"
"","","","","","animation","134","1725487","0.0-134.0","1920x1080","","7058.799999952316","48.02","img/117/4/1/bw/001.png","","","interesting"
"","","","","","animation","135","1733199","0.0-135.0","1920x1080","","7710.899999976158","37","img/314/2.5/2/bw/001.png","","","interesting"
"","","","","","animation","136","1742583","0.0-136.0","1920x1080","","9382.5","55","img/117/2.5/1/bw/001.png","","","interesting"
"","","","","","animation","137","1748011","0.0-137.0","1920x1080","","5426.899999976158","41.40","img/314/4/2/bw/001.png","","","interesting"
"","","","","","animation","138","1754455","0.0-138.0","1920x1080","","6443.5","82.54","img/314/5.5/1/bw/001.png","","","interesting"
"","","","","","animation","139","1761577","0.0-139.0","1920x1080","","7119.599999904633","51.46","img/117/3.5/2/bw/001.png","","","interesting"
"","","","","","animation","140","1770785","0.0-140.0","1920x1080","","9204.799999952316","77","img/117/5.5/1.5/bw/001.png","","","interesting"
"","","","","","animation","141","1773881","0.0-141.0","1920x1080","","3095.100000023842","69.71","img/314/5.5/2/bw/001.png","","","interesting"
"","","","","","animation","142","1777617","0.0-142.0","1920x1080","","3734.7999999523163","53.31","img/314/3.5/1.5/bw/001.png","","","interesting"
"","","","","","animation","143","1783513","0.0-143.0","1920x1080","","5894.800000071526","82.67","img/238/5.5/1.5/bw/001.png","","","interesting"
"","","","","","animation","144","1787137","0.0-144.0","1920x1080","","3623.100000023842","47.22","img/117/4/2/bw/001.png","","","interesting"
"","","","","","animation","145","1790665","0.0-145.0","1920x1080","","3526.3000000715256","19.44","img/238/2.5/2/bw/001.png","","","interesting"
"","","","","","animation","146","1795630","0.0-146.0","1920x1080","","4963.799999952316","34.66","img/314/2.5/1.5/bw/001.png","","","interesting"
"","","","","","animation","147","1800297","0.0-147.0","1920x1080","","4666.200000047684","57.28","img/314/4/1.5/bw/001.png","","","interesting"
"","","","","","animation","148","1803569","0.0-148.0","1920x1080","","3271.5","66.53","img/238/4.5/0.66667/bw/001.png","","","interesting"
"","","","","","animation","149","1806297","0.0-149.0","1920x1080","","2726.600000023842","59.13","img/238/4/0.66667/bw/001.png","","","interesting"
"","","","","","animation","150","1809629","0.0-150.0","1920x1080","","3331.7000000476837","85.85","img/314/5.5/0.66667/bw/001.png","","","interesting"
"","","","","","animation","151","1812996","0.0-151.0","1920x1080","","3366.2000000476837","62.96","img/238/3.5/1/bw/001.png","","","interesting"
"","","","","","animation","152","1819505","0.0-152.0","1920x1080","","6508.100000023842","97","img/117/5.5/1/bw/001.png","","","interesting"
"","","","","","animation","153","1823537","0.0-153.0","1920x1080","","4030","51","img/314/3.5/1/bw/001.png","","","interesting"
"","","","","","animation","154","1827514","0.0-154.0","1920x1080","","3974.8000000715256","65.08","img/314/4.5/2/bw/001.png","","","interesting"
"","","","","","animation","155","1830331","0.0-155.0","1920x1080","","2815.5","37.17","img/238/3.5/2/bw/001.png","","","interesting"
"","","","","","animation","156","1836034","0.0-156.0","1920x1080","","5702.5","24.07","img/314/2.5/1/bw/001.png","","","interesting"
"","","","","","animation","157","1839048","0.0-157.0","1920x1080","","3012.4000000953674","12.04","img/117/2.5/2/bw/001.png","","","interesting"
"","","","","","animation","158","1843035","0.0-158.0","1920x1080","","3985.600000023842","41.93","img/117/3.5/1/bw/001.png","","","interesting"
"","","","","","html-button-response","159","1861949","0.0-159.0","1920x1080","","18912.800000071526","","<div class=""intro"">You are about to view a new series of animations.<br><br></div><div class=""intro"">You will evaluate them based on a different descriptor.<br><br></div><div class=""intro"">Move the slider to indicate how <strong style=""text-transform:capitalize"">NATURAL</strong> you find each animation.<br><br></div><div class=""intro"">0 = Least Natural<br></div><div class=""intro"">1 = Most Natural<br><br></div><div class=""intro"">Remember to use the <strong><em>entire range</em></strong> of the slider to make your ratings.<br></div><div class=""intro"">Please <strong><em>take your time</em></strong> and carefully consider each rating you make.<br><br></div>","0","",""
"","","","","","call-function","160","1861949","0.0-160.0","1920x1080","","","","","","",""
"","","","","","animation","161","1870619","0.0-161.0","1920x1080","","8669","34.92","img/314/2.5/1/bw/001.png","","","natural"
"","","","","","animation","162","1876314","0.0-162.0","1920x1080","","5694.100000023842","79.10","img/238/3.5/2/bw/001.png","","","natural"
"","","","","","animation","163","1882403","0.0-163.0","1920x1080","","6087.399999976158","7","img/117/4/0.66667/bw/001.png","","","natural"
"","","","","","animation","164","1888384","0.0-164.0","1920x1080","","5978.799999952316","44.44","img/238/4/2/bw/001.png","","","natural"
"","","","","","animation","165","1893932","0.0-165.0","1920x1080","","5546.799999952316","24.07","img/314/3.5/0.5/bw/001.png","","","natural"
"","","","","","animation","166","1897382","0.0-166.0","1920x1080","","3448.7999999523163","36.64","img/117/4/1.5/bw/001.png","","","natural"
"","","","","","animation","167","1901188","0.0-167.0","1920x1080","","3805.100000023842","18.65","img/117/2.5/0.5/bw/001.png","","","natural"
"","","","","","animation","168","1905372","0.0-168.0","1920x1080","","4183","16.53","img/314/2.5/0.5/bw/001.png","","","natural"
"","","","","","animation","169","1913876","0.0-169.0","1920x1080","","8502.600000023842","23.28","img/117/2.5/1.5/bw/001.png","","","natural"
"","","","","","animation","170","1917868","0.0-170.0","1920x1080","","3990.4000000953674","50.53","img/314/4/1/bw/001.png","","","natural"
"","","","","","animation","171","1923499","0.0-171.0","1920x1080","","5631.100000023842","82.28","img/238/5.5/0.66667/bw/001.png","","","natural"
"","","","","","animation","172","1928865","0.0-172.0","1920x1080","","5364.5","31","img/238/2.5/0.5/bw/001.png","","","natural"
"","","","","","animation","173","1941436","0.0-173.0","1920x1080","","12569.399999976158","56.61","img/117/4.5/1.5/bw/001.png","","","natural"
"","","","","","animation","174","1949599","0.0-174.0","1920x1080","","8162.299999952316","19.58","img/238/4/1/bw/001.png","","","natural"
"","","","","","animation","175","1957249","0.0-175.0","1920x1080","","7648.700000047684","34.79","img/117/3.5/1.5/bw/001.png","","","natural"
"","","","","","animation","176","1963115","0.0-176.0","1920x1080","","5865.300000071526","41.93","img/238/2.5/2/bw/001.png","","","natural"
"","","","","","animation","177","1967172","0.0-177.0","1920x1080","","4055.5","80.95","img/314/5.5/2/bw/001.png","","","natural"
"","","","","","animation","178","1971248","0.0-178.0","1920x1080","","4075.3000000715256","35.58","img/314/4/2/bw/001.png","","","natural"
"","","","","","animation","179","1973708","0.0-179.0","1920x1080","","2458.1999999284744","24.87","img/117/4/0.5/bw/001.png","","","natural"
"","","","","","animation","180","1978604","0.0-180.0","1920x1080","","4894.399999976158","17.46","img/314/2.5/1.5/bw/001.png","","","natural"
"","","","","","animation","181","1982892","0.0-181.0","1920x1080","","4287.300000071526","32.54","img/314/3.5/1/bw/001.png","","","natural"
"","","","","","animation","182","2025635","0.0-182.0","1920x1080","","42742.199999928474","63.76","img/117/4.5/1/bw/001.png","","","natural"
"","","","","","animation","183","2027819","0.0-183.0","1920x1080","","2183.1999999284744","26.46","img/238/4/0.66667/bw/001.png","","","natural"
"","","","","","animation","184","2032281","0.0-184.0","1920x1080","","4461","52.78","img/238/4.5/2/bw/001.png","","","natural"
"","","","","","animation","185","2040948","0.0-185.0","1920x1080","","8665.699999928474","51.06","img/117/2.5/2/bw/001.png","","","natural"
"","","","","","animation","186","2043772","0.0-186.0","1920x1080","","2822.4000000953674","88.49","img/238/5.5/1.5/bw/001.png","","","natural"
"","","","","","animation","187","2046832","0.0-187.0","1920x1080","","3059.2999999523163","90.08","img/314/5.5/0.66667/bw/001.png","","","natural"
"","","","","","animation","188","2050524","0.0-188.0","1920x1080","","3690.600000023842","95","img/314/5.5/1/bw/001.png","","","natural"
"","","","","","animation","189","2055972","0.0-189.0","1920x1080","","5447","63","img/314/4.5/1.5/bw/001.png","","","natural"
"","","","","","animation","190","2058299","0.0-190.0","1920x1080","","2326.399999976158","46.43","img/314/4.5/1/bw/001.png","","","natural"
"","","","","","animation","191","2062524","0.0-191.0","1920x1080","","4223.400000095367","27.12","img/238/4.5/1.5/bw/001.png","","","natural"
"","","","","","animation","192","2066924","0.0-192.0","1920x1080","","4399","36.11","img/238/3.5/1.5/bw/001.png","","","natural"
"","","","","","animation","193","2069682","0.0-193.0","1920x1080","","2757","29.89","img/117/4/1/bw/001.png","","","natural"
"","","","","","animation","194","2072682","0.0-194.0","1920x1080","","2999.399999976158","16.14","img/238/2.5/0.66667/bw/001.png","","","natural"
"","","","","","animation","195","2082708","0.0-195.0","1920x1080","","10024.600000023842","25.66","img/314/4/0.66667/bw/001.png","","","natural"
"","","","","","animation","196","2085268","0.0-196.0","1920x1080","","2558.399999976158","17.20","img/117/4.5/0.5/bw/001.png","","","natural"
"","","","","","animation","197","2090333","0.0-197.0","1920x1080","","5063.700000047684","33.20","img/238/2.5/1.5/bw/001.png","","","natural"
"","","","","","animation","198","2140251","0.0-198.0","1920x1080","","49918.39999997616","49.07","img/314/4.5/2/bw/001.png","","","natural"
"","","","","","animation","199","2142172","0.0-199.0","1920x1080","","1919.5999999046326","39.68","img/238/3.5/1/bw/001.png","","","natural"
"","","","","","animation","200","2144683","0.0-200.0","1920x1080","","2510.6999999284744","32.94","img/314/4/0.5/bw/001.png","","","natural"
"","","","","","animation","201","2149108","0.0-201.0","1920x1080","","4423.399999976158","44.44","img/314/4/1.5/bw/001.png","","","natural"
"","","","","","animation","202","2151804","0.0-202.0","1920x1080","","2695","18","img/117/2.5/1/bw/001.png","","","natural"
"","","","","","animation","203","2154349","0.0-203.0","1920x1080","","2543.9000000953674","90.48","img/117/5.5/2/bw/001.png","","","natural"
"","","","","","animation","204","2156588","0.0-204.0","1920x1080","","2238.1999999284744","91.40","img/238/5.5/1/bw/001.png","","","natural"
"","","","","","animation","205","2159356","0.0-205.0","1920x1080","","2766.600000023842","79.23","img/314/5.5/0.5/bw/001.png","","","natural"
"","","","","","animation","206","2162732","0.0-206.0","1920x1080","","3375.2999999523163","34","img/314/2.5/0.66667/bw/001.png","","","natural"
"","","","","","animation","207","2168452","0.0-207.0","1920x1080","","5718.199999928474","18.65","img/314/3.5/2/bw/001.png","","","natural"
"","","","","","animation","208","2173082","0.0-208.0","1920x1080","","4628.5","1.98","img/238/3.5/0.66667/bw/001.png","","","natural"
"","","","","","animation","209","2179483","0.0-209.0","1920x1080","","6399.699999928474","17","img/314/3.5/1.5/bw/001.png","","","natural"
"","","","","","animation","210","2182788","0.0-210.0","1920x1080","","3302.7999999523163","36.90","img/314/3.5/0.66667/bw/001.png","","","natural"
"","","","","","animation","211","2185204","0.0-211.0","1920x1080","","2415","21.69","img/117/3.5/0.66667/bw/001.png","","","natural"
"","","","","","animation","212","2189572","0.0-212.0","1920x1080","","4366.799999952316","36.51","img/314/4.5/0.66667/bw/001.png","","","natural"
"","","","","","animation","213","2193190","0.0-213.0","1920x1080","","3616.2999999523163","53.97","img/238/4.5/0.66667/bw/001.png","","","natural"
"","","","","","animation","214","2196068","0.0-214.0","1920x1080","","2877.1999999284744","27.51","img/238/4/1.5/bw/001.png","","","natural"
"","","","","","animation","215","2200189","0.0-215.0","1920x1080","","4119.5","89.55","img/117/5.5/0.5/bw/001.png","","","natural"
"","","","","","animation","216","2202200","0.0-216.0","1920x1080","","2009.6000000238419","46.30","img/117/3.5/1/bw/001.png","","","natural"
"","","","","","animation","217","2212052","0.0-217.0","1920x1080","","9851.700000047684","76.85","img/238/5.5/0.5/bw/001.png","","","natural"
"","","","","","animation","218","2215433","0.0-218.0","1920x1080","","3379.6999999284744","93.65","img/314/5.5/1.5/bw/001.png","","","natural"
"","","","","","animation","219","2218916","0.0-219.0","1920x1080","","3481.7999999523163","3","img/238/4.5/0.5/bw/001.png","","","natural"
"","","","","","animation","220","2221500","0.0-220.0","1920x1080","","2582.399999976158","74.34","img/117/5.5/1/bw/001.png","","","natural"
"","","","","","animation","221","2226440","0.0-221.0","1920x1080","","4939.5","60.71","img/117/4.5/2/bw/001.png","","","natural"
"","","","","","animation","222","2232373","0.0-222.0","1920x1080","","5929.199999928474","34.52","img/117/4.5/0.66667/bw/001.png","","","natural"
"","","","","","animation","223","2247636","0.0-223.0","1920x1080","","15262.399999976158","30.95","img/117/3.5/2/bw/001.png","","","natural"
"","","","","","animation","224","2250283","0.0-224.0","1920x1080","","2646","16.80","img/238/3.5/0.5/bw/001.png","","","natural"
"","","","","","animation","225","2253492","0.0-225.0","1920x1080","","3208.399999976158","36.11","img/238/4.5/1/bw/001.png","","","natural"
"","","","","","animation","226","2256036","0.0-226.0","1920x1080","","2541.399999976158","11.24","img/238/4/0.5/bw/001.png","","","natural"
"","","","","","animation","227","2257966","0.0-227.0","1920x1080","","1929.5","82.41","img/117/5.5/1.5/bw/001.png","","","natural"
"","","","","","animation","228","2262316","0.0-228.0","1920x1080","","4348.5","26","img/238/2.5/1/bw/001.png","","","natural"
"","","","","","animation","229","2264740","0.0-229.0","1920x1080","","2423.1999999284744","46.96","img/314/4.5/0.5/bw/001.png","","","natural"
"","","","","","animation","230","2266420","0.0-230.0","1920x1080","","1678.8999999761581","79.23","img/117/5.5/0.66667/bw/001.png","","","natural"
"","","","","","animation","231","2269236","0.0-231.0","1920x1080","","2814.8000000715256","22.62","img/117/4/2/bw/001.png","","","natural"
"","","","","","animation","232","2271866","0.0-232.0","1920x1080","","2629.2999999523163","71.16","img/238/5.5/2/bw/001.png","","","natural"
"","","","","","animation","233","2274767","0.0-233.0","1920x1080","","2899.1999999284744","24.34","img/117/3.5/0.5/bw/001.png","","","natural"
"","","","","","animation","234","2279908","0.0-234.0","1920x1080","","5140.600000023842","10.85","img/314/2.5/2/bw/001.png","","","natural"
"","","","","","animation","235","2284852","0.0-235.0","1920x1080","","4941.5","13.76","img/117/2.5/0.66667/bw/001.png","","","natural"
"","","","","","html-button-response","236","2325949","0.0-236.0","1920x1080","","41095.200000047684","","<div class=""intro"">You are about to view a new series of animations.<br><br></div><div class=""intro"">You will evaluate them based on a different descriptor.<br><br></div><div class=""intro"">Move the slider to indicate how <strong style=""text-transform:capitalize"">APPEALING</strong> you find each animation.<br><br></div><div class=""intro"">0 = Least Appealing<br></div><div class=""intro"">1 = Most Appealing<br><br></div><div class=""intro"">Remember to use the <strong><em>entire range</em></strong> of the slider to make your ratings.<br></div><div class=""intro"">Please <strong><em>take your time</em></strong> and carefully consider each rating you make.<br><br></div>","0","",""
"","","","","","call-function","237","2325953","0.0-237.0","1920x1080","","","","","","",""
"","","","","","animation","238","2328516","0.0-238.0","1920x1080","","2561.600000023842","78.44","img/238/4.5/2/bw/001.png","","","appealing"
"","","","","","animation","239","2330899","0.0-239.0","1920x1080","","2382.600000023842","34.26","img/314/4/1.5/bw/001.png","","","appealing"
"","","","","","animation","240","2333500","0.0-240.0","1920x1080","","2597.5","6.08","img/314/3.5/0.66667/bw/001.png","","","appealing"
"","","","","","animation","241","2360924","0.0-241.0","1920x1080","","27423.099999904633","83.99","img/314/5.5/0.5/bw/001.png","","","appealing"
"","","","","","animation","242","2390399","0.0-242.0","1920x1080","","29473.400000095367","16.93","img/238/4.5/0.5/bw/001.png","","","appealing"
"","","","","","animation","243","2393625","0.0-243.0","1920x1080","","3224.2999999523163","0.53","img/117/2.5/0.5/bw/001.png","","","appealing"
"","","","","","animation","244","2397404","0.0-244.0","1920x1080","","3777.7000000476837","7.54","img/314/3.5/1/bw/001.png","","","appealing"
"","","","","","animation","245","2401100","0.0-245.0","1920x1080","","3694.2999999523163","15","img/314/4.5/0.5/bw/001.png","","","appealing"
"","","","","","animation","246","2406068","0.0-246.0","1920x1080","","4966.899999976158","5.56","img/117/3.5/0.66667/bw/001.png","","","appealing"
"","","","","","animation","247","2408766","0.0-247.0","1920x1080","","2696.5","12.17","img/314/2.5/0.66667/bw/001.png","","","appealing"
"","","","","","animation","248","2410820","0.0-248.0","1920x1080","","2052.899999976158","51.72","img/117/4.5/2/bw/001.png","","","appealing"
"","","","","","animation","249","2413284","0.0-249.0","1920x1080","","2462.600000023842","36.90","img/117/4.5/0.66667/bw/001.png","","","appealing"
"","","","","","animation","250","2418650","0.0-250.0","1920x1080","","5364.400000095367","29.63","img/117/4.5/0.5/bw/001.png","","","appealing"
"","","","","","animation","251","2421902","0.0-251.0","1920x1080","","3251","31.22","img/314/4/1/bw/001.png","","","appealing"
"","","","","","animation","252","2424899","0.0-252.0","1920x1080","","2995.7999999523163","23.81","img/117/4/0.66667/bw/001.png","","","appealing"
"","","","","","animation","253","2427772","0.0-253.0","1920x1080","","2871.6999999284744","35.85","img/314/4.5/1.5/bw/001.png","","","appealing"
"","","","","","animation","254","2431124","0.0-254.0","1920x1080","","3350.9000000953674","84.52","img/238/5.5/1.5/bw/001.png","","","appealing"
"","","","","","animation","255","2434372","0.0-255.0","1920x1080","","3246.5","6.88","img/238/3.5/2/bw/001.png","","","appealing"
"","","","","","animation","256","2436533","0.0-256.0","1920x1080","","2159.4000000953674","17.46","img/314/3.5/2/bw/001.png","","","appealing"
"","","","","","animation","257","2439200","0.0-257.0","1920x1080","","2665.600000023842","7.28","img/117/3.5/1/bw/001.png","","","appealing"
"","","","","","animation","258","2442540","0.0-258.0","1920x1080","","3339.2000000476837","81.88","img/314/5.5/2/bw/001.png","","","appealing"
"","","","","","animation","259","2444316","0.0-259.0","1920x1080","","1774.3000000715256","23.15","img/117/4/0.5/bw/001.png","","","appealing"
"","","","","","animation","260","2447583","0.0-260.0","1920x1080","","3266.4000000953674","35.85","img/238/4.5/0.66667/bw/001.png","","","appealing"
"","","","","","animation","261","2451083","0.0-261.0","1920x1080","","3498.5","58.60","img/117/5.5/1.5/bw/001.png","","","appealing"
"","","","","","animation","262","2453524","0.0-262.0","1920x1080","","2439.8000000715256","23.94","img/117/2.5/1.5/bw/001.png","","","appealing"
"","","","","","animation","263","2460940","0.0-263.0","1920x1080","","7415","17.20","img/238/4/0.5/bw/001.png","","","appealing"
"","","","","","animation","264","2464100","0.0-264.0","1920x1080","","3158.2000000476837","75.40","img/314/5.5/1/bw/001.png","","","appealing"
"","","","","","animation","265","2468788","0.0-265.0","1920x1080","","4687.199999928474","62.43","img/314/5.5/0.66667/bw/001.png","","","appealing"
"","","","","","animation","266","2471140","0.0-266.0","1920x1080","","2351.3000000715256","19.71","img/117/3.5/0.5/bw/001.png","","","appealing"
"","","","","","animation","267","2476967","0.0-267.0","1920x1080","","5824.799999952316","9.52","img/117/2.5/2/bw/001.png","","","appealing"
"","","","","","animation","268","2480233","0.0-268.0","1920x1080","","3265","12.83","img/117/3.5/1.5/bw/001.png","","","appealing"
"","","","","","animation","269","2485034","0.0-269.0","1920x1080","","4799.400000095367","15.87","img/238/3.5/0.66667/bw/001.png","","","appealing"
"","","","","","animation","270","2488269","0.0-270.0","1920x1080","","3232.8000000715256","23.54","img/238/3.5/1/bw/001.png","","","appealing"
"","","","","","animation","271","2493434","0.0-271.0","1920x1080","","5164.400000095367","80.03","img/314/5.5/1.5/bw/001.png","","","appealing"
"","","","","","animation","272","2496901","0.0-272.0","1920x1080","","3465.4000000953674","86.24","img/238/5.5/0.66667/bw/001.png","","","appealing"
"","","","","","animation","273","2499967","0.0-273.0","1920x1080","","3065.2000000476837","23.81","img/314/3.5/0.5/bw/001.png","","","appealing"
"","","","","","animation","274","2503117","0.0-274.0","1920x1080","","3148.899999976158","14.42","img/117/4/1/bw/001.png","","","appealing"
"","","","","","animation","275","2509217","0.0-275.0","1920x1080","","6099.199999928474","60","img/117/5.5/1/bw/001.png","","","appealing"
"","","","","","animation","276","2512885","0.0-276.0","1920x1080","","3666.2000000476837","22","img/238/3.5/1.5/bw/001.png","","","appealing"
"","","","","","animation","277","2515117","0.0-277.0","1920x1080","","2231.7000000476837","11.90","img/314/4/0.5/bw/001.png","","","appealing"
"","","","","","animation","278","2517221","0.0-278.0","1920x1080","","2102","55.16","img/117/5.5/0.66667/bw/001.png","","","appealing"
"","","","","","animation","279","2519584","0.0-279.0","1920x1080","","2361.899999976158","33.60","img/117/4.5/1.5/bw/001.png","","","appealing"
"","","","","","animation","280","2522917","0.0-280.0","1920x1080","","3331.899999976158","5.82","img/314/2.5/2/bw/001.png","","","appealing"
"","","","","","animation","281","2528373","0.0-281.0","1920x1080","","5454.099999904633","5.29","img/314/4.5/1/bw/001.png","","","appealing"
"","","","","","animation","282","2535334","0.0-282.0","1920x1080","","6959.399999976158","48.81","img/117/5.5/0.5/bw/001.png","","","appealing"
"","","","","","animation","283","2537621","0.0-283.0","1920x1080","","2285.6999999284744","11.51","img/314/4/0.66667/bw/001.png","","","appealing"
"","","","","","animation","284","2540617","0.0-284.0","1920x1080","","2995.399999976158","0","img/117/2.5/0.66667/bw/001.png","","","appealing"
"","","","","","animation","285","2543134","0.0-285.0","1920x1080","","2515","3.70","img/238/2.5/0.66667/bw/001.png","","","appealing"
"","","","","","animation","286","2545620","0.0-286.0","1920x1080","","2485.4000000953674","3.70","img/238/3.5/0.5/bw/001.png","","","appealing"
"","","","","","animation","287","2547967","0.0-287.0","1920x1080","","2344.6999999284744","4.63","img/238/2.5/1.5/bw/001.png","","","appealing"
"","","","","","animation","288","2549884","0.0-288.0","1920x1080","","1916.1000000238419","6.08","img/238/2.5/0.5/bw/001.png","","","appealing"
"","","","","","animation","289","2553708","0.0-289.0","1920x1080","","3823","10.45","img/117/2.5/1/bw/001.png","","","appealing"
"","","","","","animation","290","2575420","0.0-290.0","1920x1080","","21709.899999976158","35.32","img/238/4/1.5/bw/001.png","","","appealing"
"","","","","","animation","291","2578540","0.0-291.0","1920x1080","","3118.5999999046326","67.20","img/238/5.5/0.5/bw/001.png","","","appealing"
"","","","","","animation","292","2580617","0.0-292.0","1920x1080","","2075.100000023842","48.94","img/238/4.5/1.5/bw/001.png","","","appealing"
"","","","","","animation","293","2582405","0.0-293.0","1920x1080","","1786.2000000476837","32.14","img/314/4/2/bw/001.png","","","appealing"
"","","","","","animation","294","2585801","0.0-294.0","1920x1080","","3395","16.01","img/238/4/0.66667/bw/001.png","","","appealing"
"","","","","","animation","295","2588117","0.0-295.0","1920x1080","","2315.100000023842","5.69","img/238/4/1/bw/001.png","","","appealing"
"","","","","","animation","296","2612055","0.0-296.0","1920x1080","","23935.600000023842","78.84","img/238/5.5/2/bw/001.png","","","appealing"
"","","","","","animation","297","2615552","0.0-297.0","1920x1080","","3496.399999976158","10.85","img/117/4.5/1/bw/001.png","","","appealing"
"","","","","","animation","298","2622777","0.0-298.0","1920x1080","","7223.5","5.56","img/238/2.5/2/bw/001.png","","","appealing"
"","","","","","animation","299","2625685","0.0-299.0","1920x1080","","2905.5","10.58","img/314/3.5/1.5/bw/001.png","","","appealing"
"","","","","","animation","300","2627869","0.0-300.0","1920x1080","","2182.7000000476837","18.65","img/314/2.5/0.5/bw/001.png","","","appealing"
"","","","","","animation","301","2629934","0.0-301.0","1920x1080","","2063.899999976158","66.40","img/238/5.5/1/bw/001.png","","","appealing"
"","","","","","animation","302","2632358","0.0-302.0","1920x1080","","2422.899999976158","34.92","img/238/2.5/1/bw/001.png","","","appealing"
"","","","","","animation","303","2637653","0.0-303.0","1920x1080","","5292.899999976158","12.04","img/117/3.5/2/bw/001.png","","","appealing"
"","","","","","animation","304","2641248","0.0-304.0","1920x1080","","3593.7999999523163","14.15","img/238/4/2/bw/001.png","","","appealing"
"","","","","","animation","305","2644021","0.0-305.0","1920x1080","","2771.1999999284744","2.78","img/314/2.5/1.5/bw/001.png","","","appealing"
"","","","","","animation","306","2645934","0.0-306.0","1920x1080","","1912.2000000476837","68.65","img/117/5.5/2/bw/001.png","","","appealing"
"","","","","","animation","307","2647868","0.0-307.0","1920x1080","","1932.2000000476837","45.37","img/314/4.5/0.66667/bw/001.png","","","appealing"
"","","","","","animation","308","2649957","0.0-308.0","1920x1080","","2088.0999999046326","28.44","img/117/4/1.5/bw/001.png","","","appealing"
"","","","","","animation","309","2652487","0.0-309.0","1920x1080","","2526.7999999523163","18.12","img/238/4.5/1/bw/001.png","","","appealing"
"","","","","","animation","310","2654594","0.0-310.0","1920x1080","","2105.6999999284744","8.60","img/314/2.5/1/bw/001.png","","","appealing"
"","","","","","animation","311","2657037","0.0-311.0","1920x1080","","2441.399999976158","33.20","img/117/4/2/bw/001.png","","","appealing"
"","","","","","animation","312","2659900","0.0-312.0","1920x1080","","2862.100000023842","17.86","img/314/4.5/2/bw/001.png","","","appealing"
"","","","","","html-button-response","313","2678472","0.0-313.0","1920x1080","","18570.299999952316","","<div class=""intro"">You are about to view a new series of animations.<br><br></div><div class=""intro"">You will evaluate them based on a different descriptor.<br><br></div><div class=""intro"">Move the slider to indicate how <strong style=""text-transform:capitalize"">RELAXING</strong> you find each animation.<br><br></div><div class=""intro"">0 = Least Relaxing<br></div><div class=""intro"">1 = Most Relaxing<br><br></div><div class=""intro"">Remember to use the <strong><em>entire range</em></strong> of the slider to make your ratings.<br></div><div class=""intro"">Please <strong><em>take your time</em></strong> and carefully consider each rating you make.<br><br></div>","0","",""
"","","","","","call-function","314","2678472","0.0-314.0","1920x1080","","","","","","",""
"","","","","","animation","315","2683501","0.0-315.0","1920x1080","","5028.399999976158","10","img/238/2.5/0.5/bw/001.png","","","relaxing"
"","","","","","animation","316","2686734","0.0-316.0","1920x1080","","3231.2000000476837","34.13","img/314/4.5/1.5/bw/001.png","","","relaxing"
"","","","","","animation","317","2691318","0.0-317.0","1920x1080","","4582.800000071526","71.43","img/314/5.5/2/bw/001.png","","","relaxing"
"","","","","","animation","318","2694405","0.0-318.0","1920x1080","","3086.100000023842","6.75","img/314/2.5/1.5/bw/001.png","","","relaxing"
"","","","","","animation","319","2696777","0.0-319.0","1920x1080","","2370.2000000476837","25.79","img/238/4.5/0.66667/bw/001.png","","","relaxing"
"","","","","","animation","320","2700573","0.0-320.0","1920x1080","","3794.399999976158","16.01","img/314/3.5/1/bw/001.png","","","relaxing"
"","","","","","animation","321","2704993","0.0-321.0","1920x1080","","4418.600000023842","19.58","img/314/4/1.5/bw/001.png","","","relaxing"
"","","","","","animation","322","2708909","0.0-322.0","1920x1080","","3914.4000000953674","20.50","img/238/4.5/0.5/bw/001.png","","","relaxing"
"","","","","","animation","323","2713318","0.0-323.0","1920x1080","","4405.899999976158","0","img/117/2.5/1.5/bw/001.png","","","relaxing"
"","","","","","animation","324","2716957","0.0-324.0","1920x1080","","3637.7000000476837","3.04","img/238/2.5/1.5/bw/001.png","","","relaxing"
"","","","","","animation","325","2721501","0.0-325.0","1920x1080","","4541.199999928474","72","img/314/5.5/1/bw/001.png","","","relaxing"
"","","","","","animation","326","2723959","0.0-326.0","1920x1080","","2456.899999976158","37.17","img/238/4/0.66667/bw/001.png","","","relaxing"
"","","","","","animation","327","2729995","0.0-327.0","1920x1080","","6033.899999976158","79","img/117/5.5/0.66667/bw/001.png","","","relaxing"
"","","","","","animation","328","2736389","0.0-328.0","1920x1080","","6391.799999952316","76.32","img/117/5.5/2/bw/001.png","","","relaxing"
"","","","","","animation","329","2739773","0.0-329.0","1920x1080","","3383","1.32","img/314/2.5/0.5/bw/001.png","","","relaxing"
"","","","","","animation","330","2742227","0.0-330.0","1920x1080","","2452","4.76","img/117/3.5/0.66667/bw/001.png","","","relaxing"
"","","","","","animation","331","2744918","0.0-331.0","1920x1080","","2689.399999976158","3.31","img/314/2.5/2/bw/001.png","","","relaxing"
"","","","","","animation","332","2748735","0.0-332.0","1920x1080","","3815.6999999284744","14.02","img/117/4/2/bw/001.png","","","relaxing"
"","","","","","animation","333","2751118","0.0-333.0","1920x1080","","2381.5999999046326","31.75","img/314/4.5/1/bw/001.png","","","relaxing"
"","","","","","animation","334","2753063","0.0-334.0","1920x1080","","1944","17.99","img/238/3.5/0.66667/bw/001.png","","","relaxing"
"","","","","","animation","335","2755152","0.0-335.0","1920x1080","","2087","14.02","img/238/3.5/2/bw/001.png","","","relaxing"
"","","","","","animation","336","2757989","0.0-336.0","1920x1080","","2836.600000023842","9.79","img/314/2.5/1/bw/001.png","","","relaxing"
"","","","","","animation","337","2760319","0.0-337.0","1920x1080","","2328.2000000476837","27.78","img/314/4/2/bw/001.png","","","relaxing"
"","","","","","animation","338","2762752","0.0-338.0","1920x1080","","2431.6999999284744","12.70","img/238/3.5/1/bw/001.png","","","relaxing"
"","","","","","animation","339","2766901","0.0-339.0","1920x1080","","4148.199999928474","62.70","img/314/5.5/0.5/bw/001.png","","","relaxing"
"","","","","","animation","340","2769468","0.0-340.0","1920x1080","","2564.8000000715256","25.93","img/314/4.5/0.5/bw/001.png","","","relaxing"
"","","","","","animation","341","2772176","0.0-341.0","1920x1080","","2706.3000000715256","20.11","img/117/4.5/0.66667/bw/001.png","","","relaxing"
"","","","","","animation","342","2775769","0.0-342.0","1920x1080","","3591.600000023842","11.38","img/117/4/0.66667/bw/001.png","","","relaxing"
"","","","","","animation","343","2781959","0.0-343.0","1920x1080","","6189","3.57","img/238/2.5/1/bw/001.png","","","relaxing"
"","","","","","animation","344","2795106","0.0-344.0","1920x1080","","13142.099999904633","59.39","img/117/5.5/0.5/bw/001.png","","","relaxing"
"","","","","","animation","345","2797238","0.0-345.0","1920x1080","","2129.399999976158","16.80","img/117/2.5/0.66667/bw/001.png","","","relaxing"
"","","","","","animation","346","2800964","0.0-346.0","1920x1080","","3725","96","img/238/5.5/2/bw/001.png","","","relaxing"
"","","","","","animation","347","2804572","0.0-347.0","1920x1080","","3605.6999999284744","13","img/238/3.5/0.5/bw/001.png","","","relaxing"
"","","","","","animation","348","2806969","0.0-348.0","1920x1080","","2396.2999999523163","3.31","img/238/2.5/0.66667/bw/001.png","","","relaxing"
"","","","","","animation","349","2808864","0.0-349.0","1920x1080","","1893.8999999761581","13.49","img/117/3.5/1/bw/001.png","","","relaxing"
"","","","","","animation","350","2814888","0.0-350.0","1920x1080","","6021.899999976158","59","img/238/5.5/0.66667/bw/001.png","","","relaxing"
"","","","","","animation","351","2819944","0.0-351.0","1920x1080","","5054.899999976158","72.49","img/314/5.5/0.66667/bw/001.png","","","relaxing"
"","","","","","animation","352","2822440","0.0-352.0","1920x1080","","2494.7000000476837","3.17","img/117/2.5/1/bw/001.png","","","relaxing"
"","","","","","animation","353","2825202","0.0-353.0","1920x1080","","2761.3000000715256","55.42","img/238/5.5/1/bw/001.png","","","relaxing"
"","","","","","animation","354","2827082","0.0-354.0","1920x1080","","1878.8000000715256","27.38","img/117/4/1.5/bw/001.png","","","relaxing"
"","","","","","animation","355","2831236","0.0-355.0","1920x1080","","4151.800000071526","60.32","img/238/5.5/0.5/bw/001.png","","","relaxing"
"","","","","","animation","356","2834390","0.0-356.0","1920x1080","","3152","2.51","img/238/2.5/2/bw/001.png","","","relaxing"
"","","","","","animation","357","2836438","0.0-357.0","1920x1080","","2045.8999999761581","28.97","img/238/4.5/1.5/bw/001.png","","","relaxing"
"","","","","","animation","358","2843174","0.0-358.0","1920x1080","","6734.800000071526","16.80","img/117/3.5/1.5/bw/001.png","","","relaxing"
"","","","","","animation","359","2845959","0.0-359.0","1920x1080","","2782.5999999046326","12.17","img/117/4/1/bw/001.png","","","relaxing"
"","","","","","animation","360","2848622","0.0-360.0","1920x1080","","2661.7999999523163","2.25","img/117/4/0.5/bw/001.png","","","relaxing"
"","","","","","animation","361","2851370","0.0-361.0","1920x1080","","2746.7000000476837","3.84","img/238/4/0.5/bw/001.png","","","relaxing"
"","","","","","animation","362","2853937","0.0-362.0","1920x1080","","2565.4000000953674","66.14","img/117/5.5/1.5/bw/001.png","","","relaxing"
"","","","","","animation","363","2857006","0.0-363.0","1920x1080","","3068.2000000476837","14.15","img/314/3.5/0.5/bw/001.png","","","relaxing"
"","","","","","animation","364","2859353","0.0-364.0","1920x1080","","2345.5","14.95","img/238/4.5/1/bw/001.png","","","relaxing"
"","","","","","animation","365","2861491","0.0-365.0","1920x1080","","2136.7999999523163","9.66","img/314/4/1/bw/001.png","","","relaxing"
"","","","","","animation","366","2864557","0.0-366.0","1920x1080","","3064","16.67","img/314/4/0.66667/bw/001.png","","","relaxing"
"","","","","","animation","367","2866904","0.0-367.0","1920x1080","","2344.5999999046326","5.16","img/117/4.5/1.5/bw/001.png","","","relaxing"
"","","","","","animation","368","2869822","0.0-368.0","1920x1080","","2917.399999976158","4.63","img/117/4.5/2/bw/001.png","","","relaxing"
"","","","","","animation","369","2872032","0.0-369.0","1920x1080","","2208.2000000476837","1.59","img/117/2.5/2/bw/001.png","","","relaxing"
"","","","","","animation","370","2874486","0.0-370.0","1920x1080","","2452.600000023842","7.94","img/117/3.5/0.5/bw/001.png","","","relaxing"
"","","","","","animation","371","2876399","0.0-371.0","1920x1080","","1911.1000000238419","12.96","img/314/3.5/0.66667/bw/001.png","","","relaxing"
"","","","","","animation","372","2878977","0.0-372.0","1920x1080","","2576.600000023842","31.22","img/314/4/0.5/bw/001.png","","","relaxing"
"","","","","","animation","373","2883854","0.0-373.0","1920x1080","","4875.300000071526","82","img/117/5.5/1/bw/001.png","","","relaxing"
"","","","","","animation","374","2887337","0.0-374.0","1920x1080","","3481","46","img/117/4.5/1/bw/001.png","","","relaxing"
"","","","","","animation","375","2890754","0.0-375.0","1920x1080","","3415.4000000953674","87.57","img/238/5.5/1.5/bw/001.png","","","relaxing"
"","","","","","animation","376","2893954","0.0-376.0","1920x1080","","3199.0999999046326","22.49","img/314/4.5/2/bw/001.png","","","relaxing"
"","","","","","animation","377","2897975","0.0-377.0","1920x1080","","4019.1999999284744","16.40","img/238/4.5/2/bw/001.png","","","relaxing"
"","","","","","animation","378","2899920","0.0-378.0","1920x1080","","1944.2999999523163","1.72","img/314/2.5/0.66667/bw/001.png","","","relaxing"
"","","","","","animation","379","2905251","0.0-379.0","1920x1080","","5328.799999952316","90.61","img/314/5.5/1.5/bw/001.png","","","relaxing"
"","","","","","animation","380","2907304","0.0-380.0","1920x1080","","2052.2000000476837","11.51","img/238/3.5/1.5/bw/001.png","","","relaxing"
"","","","","","animation","381","2909239","0.0-381.0","1920x1080","","1933.3000000715256","16.40","img/238/4/2/bw/001.png","","","relaxing"
"","","","","","animation","382","2911554","0.0-382.0","1920x1080","","2313.7000000476837","2.91","img/117/2.5/0.5/bw/001.png","","","relaxing"
"","","","","","animation","383","2913239","0.0-383.0","1920x1080","","1683.6000000238419","21.16","img/314/4.5/0.66667/bw/001.png","","","relaxing"
"","","","","","animation","384","2915065","0.0-384.0","1920x1080","","1825.6000000238419","32.01","img/314/3.5/2/bw/001.png","","","relaxing"
"","","","","","animation","385","2917131","0.0-385.0","1920x1080","","2064.2000000476837","13.36","img/314/3.5/1.5/bw/001.png","","","relaxing"
"","","","","","animation","386","2918897","0.0-386.0","1920x1080","","1764.5999999046326","24.21","img/117/3.5/2/bw/001.png","","","relaxing"
"","","","","","animation","387","2921413","0.0-387.0","1920x1080","","2514.8000000715256","18.92","img/117/4.5/0.5/bw/001.png","","","relaxing"
"","","","","","animation","388","2923387","0.0-388.0","1920x1080","","1972.6999999284744","7.94","img/238/4/1/bw/001.png","","","relaxing"
"","","","","","animation","389","2925771","0.0-389.0","1920x1080","","2382.2000000476837","5.69","img/238/4/1.5/bw/001.png","","","relaxing"
"","","","","","html-button-response","390","2953930","0.0-390.0","1920x1080","","28156.900000095367","","<strong>Study Debriefing</strong><br><p class=""debrief""><strong>Background:</strong> The patterns you rated are called <em>fractals</em>. The term fractal describes a class of irregular curves or shapes for which any suitably chosen part is similar in shape to a given larger or smaller part when magnified or reduced to the same size. Fractal properties are found throughout the natural and manmade world. The series of animations you saw today displayed animated fractal patterns of a varying complexity.</p><p class=""debrief""><strong>Purpose of this study:</strong> We hope to better understand how the perception of static fractals differs from the perception of animated fractals, and how the speed of the animated patterns influences people&apos;s perception of them. Fractals allow us to study the perception of aesthetic properties (e.g. the perceived level of beauty in an image) without using recognizable content, which makes them an excellent tool for studying abstract aesthetic judgement.</p><p class=""debrief""><strong>Your part:</strong> Your participation has helped us to further understand how humans perceive these patterns across different levels of speed and complexity. This research with allow us to better understand how the visual system and brain process our ever-changing visual environments.<p class=""debrief""><strong>Feedback and Further information:</strong> If you have additional questions about this study, please feel free to ask the researcher, Nathan Gonzales-Hess at nhess @ uoregon.edu. If you have any questions concerning your rights as a research participant, please contact Research Compliance Services, 5237 University of Oregon, Eugene, OR 97403, 541-346-2510, or email researchCompliance @ uoregon.edu. You can also email the Human Subjects Coordinator for psychology and linguistics research at hscoord @ uoregon.edu. ","0","",""
"","","","","","html-button-response","391","2956475","0.0-391.0","1920x1080","","2539.9000000953674","","Thank you for participating in this study. <br>Please click below to finish the experiment and submit your responses.<br><br>","0","",""
"true","","","","","fullscreen","392","2957486","0.0-392.0","1920x1080","14:53 2/6/2022","","","","","",""
