"success","timeout","failed_images","failed_audio","failed_video","trial_type","trial_index","time_elapsed","internal_node_id","resolution","timeStamp","rt","response","stimulus","button_pressed","value","descriptor"
"true","false","[]","[]","[]","preload","0","31176","0.0-0.0","1920x1080","","","","","","",""
"true","false","[]","[]","[]","preload","1","60696","0.0-1.0","1920x1080","","","","","","",""
"true","false","[]","[]","[]","preload","2","91668","0.0-2.0","1920x1080","","","","","","",""
"true","","","","","fullscreen","3","177133","0.0-3.0","1920x1080","9:11 12/10/2022","","","","","",""
"","","","","","survey-html-form","4","187067","0.0-4.0","1920x1080","","9931.200000047684","{""age"":""26"",""gender"":""m""}","","","",""
"","","","","","html-button-response","5","243339","0.0-5.0","1920x1080","","56270.799999952316","","<div class=""complex"">You are going to see a series of animations.<br><br></div><div class=""complex"">Move the slider to indicate how <strong style=""text-transform:capitalize"">COMPLEX</strong> you find each animation.<br><br></div><div class=""complex"">0 = Least Complex<br></div><div class=""complex"">1 = Most Complex<br><br></div><div class=""complex"">Remember to use the <strong><em>entire range</em></strong> of the slider to make your ratings.<br></div><div class=""complex"">Please <strong><em>take your time</em></strong> and carefully consider each rating you make.<br><br></div><div class=""complex"">The study has five sections and will take about 45 minutes to complete.<br><br></div>","0","",""
"","","","","","call-function","6","243340","0.0-6.0","1920x1080","","","","","","",""
"","","","","","animation","7","259260","0.0-7.0","1920x1080","","15917.099999904633","24.60","img/314/4/1/bw/001.png","","","complex"
"","","","","","animation","8","264635","0.0-8.0","1920x1080","","5374.199999928474","14.95","img/117/5.5/0.66667/bw/001.png","","","complex"
"","","","","","animation","9","270355","0.0-9.0","1920x1080","","5719","35.19","img/117/4.5/0.66667/bw/001.png","","","complex"
"","","","","","animation","10","278219","0.0-10.0","1920x1080","","7863","69.05","img/238/2.5/1.5/bw/001.png","","","complex"
"","","","","","animation","11","283563","0.0-11.0","1920x1080","","5342.600000023842","74.87","img/117/2.5/0.5/bw/001.png","","","complex"
"","","","","","animation","12","291276","0.0-12.0","1920x1080","","7712.200000047684","35","img/238/3.5/1.5/bw/001.png","","","complex"
"","","","","","animation","13","298546","0.0-13.0","1920x1080","","7270.199999928474","77.25","img/117/2.5/2/bw/001.png","","","complex"
"","","","","","animation","14","306698","0.0-14.0","1920x1080","","8150.899999976158","35.45","img/117/4/0.66667/bw/001.png","","","complex"
"","","","","","animation","15","317178","0.0-15.0","1920x1080","","10479.200000047684","69.84","img/238/3.5/1/bw/001.png","","","complex"
"","","","","","animation","16","325570","0.0-16.0","1920x1080","","8391.399999976158","43.65","img/314/4/0.66667/bw/001.png","","","complex"
"","","","","","animation","17","348122","0.0-17.0","1920x1080","","22550.899999976158","43","img/117/5.5/1.5/bw/001.png","","","complex"
"","","","","","animation","18","357939","0.0-18.0","1920x1080","","9815.399999976158","64.55","img/238/2.5/1/bw/001.png","","","complex"
"","","","","","animation","19","368571","0.0-19.0","1920x1080","","10631.100000023842","39.55","img/314/3.5/1.5/bw/001.png","","","complex"
"","","","","","animation","20","385619","0.0-20.0","1920x1080","","17047.100000023842","29.89","img/238/4.5/2/bw/001.png","","","complex"
"","","","","","animation","21","397242","0.0-21.0","1920x1080","","11622.699999928474","80.03","img/314/2.5/2/bw/001.png","","","complex"
"","","","","","animation","22","403492","0.0-22.0","1920x1080","","6249","30.42","img/238/4/1.5/bw/001.png","","","complex"
"","","","","","animation","23","408027","0.0-23.0","1920x1080","","4533.800000071526","85.32","img/314/2.5/0.66667/bw/001.png","","","complex"
"","","","","","animation","24","417153","0.0-24.0","1920x1080","","9127.600000023842","79.63","img/314/4/0.5/bw/001.png","","","complex"
"","","","","","animation","25","434193","0.0-25.0","1920x1080","","17038.799999952316","15","img/117/5.5/2/bw/001.png","","","complex"
"","","","","","animation","26","444553","0.0-26.0","1920x1080","","10359.199999928474","30.16","img/117/4.5/1.5/bw/001.png","","","complex"
"","","","","","animation","27","458081","0.0-27.0","1920x1080","","13527.5","60.32","img/314/3.5/1/bw/001.png","","","complex"
"","","","","","animation","28","476424","0.0-28.0","1920x1080","","18342.700000047684","74.74","img/238/4.5/1/bw/001.png","","","complex"
"","","","","","animation","29","489306","0.0-29.0","1920x1080","","12881","60.45","img/314/4.5/0.5/bw/001.png","","","complex"
"","","","","","animation","30","500857","0.0-30.0","1920x1080","","11550","75.26","img/314/3.5/0.66667/bw/001.png","","","complex"
"","","","","","animation","31","507576","0.0-31.0","1920x1080","","6718.5","79.89","img/117/4/0.5/bw/001.png","","","complex"
"","","","","","animation","32","519090","0.0-32.0","1920x1080","","11512.600000023842","67.99","img/117/4.5/0.5/bw/001.png","","","complex"
"","","","","","animation","33","532200","0.0-33.0","1920x1080","","13110.199999928474","24.74","img/314/5.5/0.66667/bw/001.png","","","complex"
"","","","","","animation","34","546583","0.0-34.0","1920x1080","","14383.5","90.08","img/238/4/0.66667/bw/001.png","","","complex"
"","","","","","animation","35","563095","0.0-35.0","1920x1080","","16511.200000047684","50","img/117/4/2/bw/001.png","","","complex"
"","","","","","animation","36","575359","0.0-36.0","1920x1080","","12263","44.58","img/117/3.5/1.5/bw/001.png","","","complex"
"","","","","","animation","37","589631","0.0-37.0","1920x1080","","14271.100000023842","93","img/238/3.5/0.66667/bw/001.png","","","complex"
"","","","","","animation","38","611491","0.0-38.0","1920x1080","","21856","43.65","img/117/4/1.5/bw/001.png","","","complex"
"","","","","","animation","39","622291","0.0-39.0","1920x1080","","10799.100000023842","55.03","img/117/3.5/1/bw/001.png","","","complex"
"","","","","","animation","40","634987","0.0-40.0","1920x1080","","12695.200000047684","82.67","img/238/4/0.5/bw/001.png","","","complex"
"","","","","","animation","41","650411","0.0-41.0","1920x1080","","15423","54.10","img/117/4/1/bw/001.png","","","complex"
"","","","","","animation","42","671770","0.0-42.0","1920x1080","","21359.199999928474","5.16","img/238/2.5/2/bw/001.png","","","complex"
"","","","","","animation","43","686809","0.0-43.0","1920x1080","","15039","20.37","img/117/3.5/0.5/bw/001.png","","","complex"
"","","","","","animation","44","705082","0.0-44.0","1920x1080","","18270.700000047684","29.50","img/314/5.5/2/bw/001.png","","","complex"
"","","","","","animation","45","718636","0.0-45.0","1920x1080","","13558.700000047684","30.16","img/238/2.5/0.5/bw/001.png","","","complex"
"","","","","","animation","46","741796","0.0-46.0","1920x1080","","23159","30.03","img/117/4.5/2/bw/001.png","","","complex"
"","","","","","animation","47","754334","0.0-47.0","1920x1080","","12537.100000023842","40.08","img/117/2.5/0.66667/bw/001.png","","","complex"
"","","","","","animation","48","767156","0.0-48.0","1920x1080","","12820.600000023842","50.26","img/117/5.5/0.5/bw/001.png","","","complex"
"","","","","","animation","49","780297","0.0-49.0","1920x1080","","13134.700000047684","20.24","img/314/3.5/2/bw/001.png","","","complex"
"","","","","","animation","50","789786","0.0-50.0","1920x1080","","9487.800000071526","29.50","img/314/4.5/0.66667/bw/001.png","","","complex"
"","","","","","animation","51","802481","0.0-51.0","1920x1080","","12694.5","38","img/238/4/2/bw/001.png","","","complex"
"","","","","","animation","52","815097","0.0-52.0","1920x1080","","12615.099999904633","40.08","img/314/2.5/1/bw/001.png","","","complex"
"","","","","","animation","53","827249","0.0-53.0","1920x1080","","12150.600000023842","46.83","img/117/3.5/2/bw/001.png","","","complex"
"","","","","","animation","54","844025","0.0-54.0","1920x1080","","16775","54.89","img/314/4.5/1/bw/001.png","","","complex"
"","","","","","animation","55","865593","0.0-55.0","1920x1080","","21567.5","43.65","img/117/4.5/1/bw/001.png","","","complex"
"","","","","","animation","56","878081","0.0-56.0","1920x1080","","12486.799999952316","39.68","img/314/4/2/bw/001.png","","","complex"
"","","","","","animation","57","886417","0.0-57.0","1920x1080","","8335.300000071526","56.08","img/238/3.5/2/bw/001.png","","","complex"
"","","","","","animation","58","900291","0.0-58.0","1920x1080","","13870.899999976158","53.31","img/314/4/1.5/bw/001.png","","","complex"
"","","","","","animation","59","912059","0.0-59.0","1920x1080","","11766.800000071526","65.34","img/238/5.5/1/bw/001.png","","","complex"
"","","","","","animation","60","923747","0.0-60.0","1920x1080","","11687.399999976158","48.81","img/314/2.5/0.5/bw/001.png","","","complex"
"","","","","","animation","61","948715","0.0-61.0","1920x1080","","24967","52.38","img/238/5.5/2/bw/001.png","","","complex"
"","","","","","animation","62","971897","0.0-62.0","1920x1080","","23182.700000047684","40.48","img/238/5.5/1.5/bw/001.png","","","complex"
"","","","","","animation","63","987409","0.0-63.0","1920x1080","","15511.5","55.29","img/238/4.5/0.66667/bw/001.png","","","complex"
"","","","","","animation","64","1004314","0.0-64.0","1920x1080","","16903.399999976158","60.98","img/314/4.5/2/bw/001.png","","","complex"
"","","","","","animation","65","1031672","0.0-65.0","1920x1080","","27359.700000047684","56.08","img/117/5.5/1/bw/001.png","","","complex"
"","","","","","animation","66","1042103","0.0-66.0","1920x1080","","10430.100000023842","69.84","img/238/3.5/0.5/bw/001.png","","","complex"
"","","","","","animation","67","1055575","0.0-67.0","1920x1080","","13471.5","56.22","img/314/5.5/0.5/bw/001.png","","","complex"
"","","","","","animation","68","1077043","0.0-68.0","1920x1080","","21462.899999976158","59.79","img/314/4.5/1.5/bw/001.png","","","complex"
"","","","","","animation","69","1098822","0.0-69.0","1920x1080","","21778.400000095367","59.26","img/314/5.5/1/bw/001.png","","","complex"
"","","","","","animation","70","1109083","0.0-70.0","1920x1080","","10259.700000047684","55.29","img/314/3.5/0.5/bw/001.png","","","complex"
"","","","","","animation","71","1125940","0.0-71.0","1920x1080","","16855.900000095367","65.08","img/238/4.5/1.5/bw/001.png","","","complex"
"","","","","","animation","72","1141904","0.0-72.0","1920x1080","","15966.199999928474","79.76","img/238/4/1/bw/001.png","","","complex"
"","","","","","animation","73","1159673","0.0-73.0","1920x1080","","17767.399999976158","24.21","img/238/5.5/0.5/bw/001.png","","","complex"
"","","","","","animation","74","1173008","0.0-74.0","1920x1080","","13335","42.06","img/238/5.5/0.66667/bw/001.png","","","complex"
"","","","","","animation","75","1183888","0.0-75.0","1920x1080","","10879","56","img/238/2.5/0.66667/bw/001.png","","","complex"
"","","","","","animation","76","1190420","0.0-76.0","1920x1080","","6530.5","53.17","img/117/2.5/1.5/bw/001.png","","","complex"
"","","","","","animation","77","1204007","0.0-77.0","1920x1080","","13588","46.56","img/238/4.5/0.5/bw/001.png","","","complex"
"","","","","","animation","78","1222767","0.0-78.0","1920x1080","","18759.5","27.51","img/314/5.5/1.5/bw/001.png","","","complex"
"","","","","","animation","79","1232022","0.0-79.0","1920x1080","","9254.199999928474","64.81","img/117/3.5/0.66667/bw/001.png","","","complex"
"","","","","","animation","80","1241968","0.0-80.0","1920x1080","","9944.100000023842","25.40","img/314/2.5/1.5/bw/001.png","","","complex"
"","","","","","animation","81","1253854","0.0-81.0","1920x1080","","11885.599999904633","47.49","img/117/2.5/1/bw/001.png","","","complex"
"","","","","","html-button-response","82","1281968","0.0-82.0","1920x1080","","28103.600000023842","","<div class=""intro"">You are about to view a new series of animations.<br><br></div><div class=""intro"">You will evaluate them based on a different descriptor.<br><br></div><div class=""intro"">Move the slider to indicate how <strong style=""text-transform:capitalize"">APPEALING</strong> you find each animation.<br><br></div><div class=""intro"">0 = Least Appealing<br></div><div class=""intro"">1 = Most Appealing<br><br></div><div class=""intro"">Remember to use the <strong><em>entire range</em></strong> of the slider to make your ratings.<br></div><div class=""intro"">Please <strong><em>take your time</em></strong> and carefully consider each rating you make.<br><br></div>","0","",""
"","","","","","call-function","83","1281971","0.0-83.0","1920x1080","","","","","","",""
"","","","","","animation","84","1298599","0.0-84.0","1920x1080","","16626.600000023842","71.30","img/117/4.5/1/bw/001.png","","","appealing"
"","","","","","animation","85","1306615","0.0-85.0","1920x1080","","8015","69.58","img/238/4/1/bw/001.png","","","appealing"
"","","","","","animation","86","1321004","0.0-86.0","1920x1080","","14393.200000047684","75.13","img/314/5.5/2/bw/001.png","","","appealing"
"","","","","","animation","87","1329171","0.0-87.0","1920x1080","","8165.899999976158","50.26","img/314/3.5/1/bw/001.png","","","appealing"
"","","","","","animation","88","1339393","0.0-88.0","1920x1080","","10221.600000023842","83.99","img/314/4/1.5/bw/001.png","","","appealing"
"","","","","","animation","89","1347220","0.0-89.0","1920x1080","","7825.799999952316","64.55","img/117/5.5/1.5/bw/001.png","","","appealing"
"","","","","","animation","90","1362052","0.0-90.0","1920x1080","","14830.899999976158","70.11","img/314/4.5/2/bw/001.png","","","appealing"
"","","","","","animation","91","1376272","0.0-91.0","1920x1080","","14220.199999928474","39.68","img/314/2.5/2/bw/001.png","","","appealing"
"","","","","","animation","92","1384240","0.0-92.0","1920x1080","","7967.200000047684","20.37","img/117/4/0.5/bw/001.png","","","appealing"
"","","","","","animation","93","1389536","0.0-93.0","1920x1080","","5294.299999952316","15.74","img/314/2.5/1.5/bw/001.png","","","appealing"
"","","","","","animation","94","1398202","0.0-94.0","1920x1080","","8664.799999952316","47.75","img/238/5.5/0.5/bw/001.png","","","appealing"
"","","","","","animation","95","1410369","0.0-95.0","1920x1080","","12166.300000071526","69","img/238/5.5/1.5/bw/001.png","","","appealing"
"","","","","","animation","96","1414552","0.0-96.0","1920x1080","","4182","1.72","img/117/2.5/1/bw/001.png","","","appealing"
"","","","","","animation","97","1428928","0.0-97.0","1920x1080","","14375.599999904633","61.64","img/314/4.5/1/bw/001.png","","","appealing"
"","","","","","animation","98","1438845","0.0-98.0","1920x1080","","9910.900000095367","75.00","img/238/4/2/bw/001.png","","","appealing"
"","","","","","animation","99","1444365","0.0-99.0","1920x1080","","5519","30.16","img/314/4.5/0.5/bw/001.png","","","appealing"
"","","","","","animation","100","1450365","0.0-100.0","1920x1080","","5999.100000023842","55.29","img/314/3.5/2/bw/001.png","","","appealing"
"","","","","","animation","101","1456133","0.0-101.0","1920x1080","","5767.300000071526","0.40","img/117/2.5/0.66667/bw/001.png","","","appealing"
"","","","","","animation","102","1461909","0.0-102.0","1920x1080","","5774.600000023842","0","img/314/2.5/1/bw/001.png","","","appealing"
"","","","","","animation","103","1472982","0.0-103.0","1920x1080","","11071.300000071526","54.63","img/117/4/2/bw/001.png","","","appealing"
"","","","","","animation","104","1485893","0.0-104.0","1920x1080","","12910.600000023842","80","img/238/4.5/1.5/bw/001.png","","","appealing"
"","","","","","animation","105","1492389","0.0-105.0","1920x1080","","6495","61.90","img/117/5.5/2/bw/001.png","","","appealing"
"","","","","","animation","106","1498422","0.0-106.0","1920x1080","","6033.100000023842","20.77","img/117/4/1.5/bw/001.png","","","appealing"
"","","","","","animation","107","1509156","0.0-107.0","1920x1080","","10732.799999952316","61.38","img/314/5.5/1/bw/001.png","","","appealing"
"","","","","","animation","108","1514860","0.0-108.0","1920x1080","","5703.600000023842","0.53","img/314/2.5/0.5/bw/001.png","","","appealing"
"","","","","","animation","109","1520124","0.0-109.0","1920x1080","","5262.300000071526","57.28","img/117/5.5/0.5/bw/001.png","","","appealing"
"","","","","","animation","110","1523796","0.0-110.0","1920x1080","","3671.7000000476837","1.19","img/238/2.5/0.5/bw/001.png","","","appealing"
"","","","","","animation","111","1526444","0.0-111.0","1920x1080","","2647.2000000476837","3.70","img/117/3.5/0.5/bw/001.png","","","appealing"
"","","","","","animation","112","1536732","0.0-112.0","1920x1080","","10286.800000071526","66","img/238/4.5/1/bw/001.png","","","appealing"
"","","","","","animation","113","1544564","0.0-113.0","1920x1080","","7830.300000071526","6.88","img/238/2.5/1.5/bw/001.png","","","appealing"
"","","","","","animation","114","1555958","0.0-114.0","1920x1080","","11390.5","65.34","img/314/4/1/bw/001.png","","","appealing"
"","","","","","animation","115","1561815","0.0-115.0","1920x1080","","5855.699999928474","34.13","img/117/3.5/1/bw/001.png","","","appealing"
"","","","","","animation","116","1575742","0.0-116.0","1920x1080","","13926.5","60.05","img/238/3.5/0.66667/bw/001.png","","","appealing"
"","","","","","animation","117","1587719","0.0-117.0","1920x1080","","11975.5","54.63","img/238/5.5/2/bw/001.png","","","appealing"
"","","","","","animation","118","1593383","0.0-118.0","1920x1080","","5662.600000023842","32.94","img/117/3.5/0.66667/bw/001.png","","","appealing"
"","","","","","animation","119","1596526","0.0-119.0","1920x1080","","3142.399999976158","27.25","img/117/4/0.66667/bw/001.png","","","appealing"
"","","","","","animation","120","1601479","0.0-120.0","1920x1080","","4951","68.92","img/117/5.5/1/bw/001.png","","","appealing"
"","","","","","animation","121","1604119","0.0-121.0","1920x1080","","2639.1999999284744","14.42","img/117/2.5/2/bw/001.png","","","appealing"
"","","","","","animation","122","1617310","0.0-122.0","1920x1080","","13190.299999952316","85.58","img/238/3.5/1.5/bw/001.png","","","appealing"
"","","","","","animation","123","1620958","0.0-123.0","1920x1080","","3647.0999999046326","66.80","img/117/4/1/bw/001.png","","","appealing"
"","","","","","animation","124","1624126","0.0-124.0","1920x1080","","3167.100000023842","21.16","img/117/4.5/0.5/bw/001.png","","","appealing"
"","","","","","animation","125","1627318","0.0-125.0","1920x1080","","3191.5","10.98","img/314/4/0.66667/bw/001.png","","","appealing"
"","","","","","animation","126","1632790","0.0-126.0","1920x1080","","5471.299999952316","58.60","img/314/5.5/1.5/bw/001.png","","","appealing"
"","","","","","animation","127","1636494","0.0-127.0","1920x1080","","3702.4000000953674","72.09","img/314/4.5/1.5/bw/001.png","","","appealing"
"","","","","","animation","128","1653890","0.0-128.0","1920x1080","","17394.899999976158","83.86","img/238/3.5/2/bw/001.png","","","appealing"
"","","","","","animation","129","1664734","0.0-129.0","1920x1080","","10843.299999952316","98","img/238/5.5/1/bw/001.png","","","appealing"
"","","","","","animation","130","1669422","0.0-130.0","1920x1080","","4687","4.37","img/238/2.5/0.66667/bw/001.png","","","appealing"
"","","","","","animation","131","1674294","0.0-131.0","1920x1080","","4870.800000071526","40.87","img/117/4.5/0.66667/bw/001.png","","","appealing"
"","","","","","animation","132","1677596","0.0-132.0","1920x1080","","3303.0999999046326","46.96","img/117/5.5/0.66667/bw/001.png","","","appealing"
"","","","","","animation","133","1680396","0.0-133.0","1920x1080","","2798.7000000476837","6.75","img/117/2.5/0.5/bw/001.png","","","appealing"
"","","","","","animation","134","1688923","0.0-134.0","1920x1080","","8526.600000023842","66.93","img/314/4/2/bw/001.png","","","appealing"
"","","","","","animation","135","1697643","0.0-135.0","1920x1080","","8719.100000023842","17.99","img/238/2.5/2/bw/001.png","","","appealing"
"","","","","","animation","136","1704739","0.0-136.0","1920x1080","","7094.099999904633","64.95","img/314/4.5/0.66667/bw/001.png","","","appealing"
"","","","","","animation","137","1707489","0.0-137.0","1920x1080","","2748.5","25.79","img/117/2.5/1.5/bw/001.png","","","appealing"
"","","","","","animation","138","1723505","0.0-138.0","1920x1080","","16015.200000047684","65.21","img/314/5.5/0.5/bw/001.png","","","appealing"
"","","","","","animation","139","1739830","0.0-139.0","1920x1080","","16321.800000071526","62.96","img/117/4.5/1.5/bw/001.png","","","appealing"
"","","","","","animation","140","1749710","0.0-140.0","1920x1080","","9878.900000095367","60.45","img/314/3.5/1.5/bw/001.png","","","appealing"
"","","","","","animation","141","1753088","0.0-141.0","1920x1080","","3377.1999999284744","19.71","img/314/2.5/0.66667/bw/001.png","","","appealing"
"","","","","","animation","142","1756238","0.0-142.0","1920x1080","","3149","31.08","img/238/4.5/0.5/bw/001.png","","","appealing"
"","","","","","animation","143","1778351","0.0-143.0","1920x1080","","22111.5","45.77","img/314/3.5/0.5/bw/001.png","","","appealing"
"","","","","","animation","144","1782814","0.0-144.0","1920x1080","","4462.5","52","img/117/4.5/2/bw/001.png","","","appealing"
"","","","","","animation","145","1790942","0.0-145.0","1920x1080","","8126.5","58.73","img/117/3.5/1.5/bw/001.png","","","appealing"
"","","","","","animation","146","1793094","0.0-146.0","1920x1080","","2151.399999976158","37.70","img/238/3.5/1/bw/001.png","","","appealing"
"","","","","","animation","147","1796438","0.0-147.0","1920x1080","","3343.899999976158","64.15","img/238/5.5/0.66667/bw/001.png","","","appealing"
"","","","","","animation","148","1800806","0.0-148.0","1920x1080","","4367.5","34.79","img/314/4/0.5/bw/001.png","","","appealing"
"","","","","","animation","149","1805557","0.0-149.0","1920x1080","","4749.799999952316","47.22","img/238/4/0.66667/bw/001.png","","","appealing"
"","","","","","animation","150","1814957","0.0-150.0","1920x1080","","9398.799999952316","60.85","img/314/3.5/0.66667/bw/001.png","","","appealing"
"","","","","","animation","151","1824773","0.0-151.0","1920x1080","","9815.199999928474","81.08","img/238/4/0.5/bw/001.png","","","appealing"
"","","","","","animation","152","1830309","0.0-152.0","1920x1080","","5535","45.90","img/238/4/1.5/bw/001.png","","","appealing"
"","","","","","animation","153","1843889","0.0-153.0","1920x1080","","13578.799999952316","59.52","img/117/3.5/2/bw/001.png","","","appealing"
"","","","","","animation","154","1848954","0.0-154.0","1920x1080","","5063.399999976158","9.66","img/238/2.5/1/bw/001.png","","","appealing"
"","","","","","animation","155","1861124","0.0-155.0","1920x1080","","12170.5","85.45","img/314/5.5/0.66667/bw/001.png","","","appealing"
"","","","","","animation","156","1871380","0.0-156.0","1920x1080","","10254.699999928474","65.61","img/238/4.5/0.66667/bw/001.png","","","appealing"
"","","","","","animation","157","1884044","0.0-157.0","1920x1080","","12662.899999976158","47","img/238/4.5/2/bw/001.png","","","appealing"
"","","","","","animation","158","1887508","0.0-158.0","1920x1080","","3463","21.83","img/238/3.5/0.5/bw/001.png","","","appealing"
"","","","","","html-button-response","159","1947452","0.0-159.0","1920x1080","","59934.90000009537","","<div class=""intro"">You are about to view a new series of animations.<br><br></div><div class=""intro"">You will evaluate them based on a different descriptor.<br><br></div><div class=""intro"">Move the slider to indicate how <strong style=""text-transform:capitalize"">INTERESTING</strong> you find each animation.<br><br></div><div class=""intro"">0 = Least Interesting<br></div><div class=""intro"">1 = Most Interesting<br><br></div><div class=""intro"">Remember to use the <strong><em>entire range</em></strong> of the slider to make your ratings.<br></div><div class=""intro"">Please <strong><em>take your time</em></strong> and carefully consider each rating you make.<br><br></div>","0","",""
"","","","","","call-function","160","1947456","0.0-160.0","1920x1080","","","","","","",""
"","","","","","animation","161","1954044","0.0-161.0","1920x1080","","6586.600000023842","13.62","img/314/2.5/2/bw/001.png","","","interesting"
"","","","","","animation","162","1958490","0.0-162.0","1920x1080","","4444.799999952316","19.44","img/238/2.5/2/bw/001.png","","","interesting"
"","","","","","animation","163","1963377","0.0-163.0","1920x1080","","4884.200000047684","86.90","img/238/4/0.5/bw/001.png","","","interesting"
"","","","","","animation","164","1968068","0.0-164.0","1920x1080","","4690.099999904633","84.13","img/117/4/0.5/bw/001.png","","","interesting"
"","","","","","animation","165","1978221","0.0-165.0","1920x1080","","10158.299999952316","67.33","img/117/2.5/0.66667/bw/001.png","","","interesting"
"","","","","","animation","166","1989093","0.0-166.0","1920x1080","","10871.400000095367","61.24","img/314/3.5/0.66667/bw/001.png","","","interesting"
"","","","","","animation","167","1995037","0.0-167.0","1920x1080","","5942.700000047684","27.91","img/314/4/2/bw/001.png","","","interesting"
"","","","","","animation","168","2002198","0.0-168.0","1920x1080","","7158","50","img/117/5.5/0.66667/bw/001.png","","","interesting"
"","","","","","animation","169","2005754","0.0-169.0","1920x1080","","3555.5","31.22","img/238/5.5/1/bw/001.png","","","interesting"
"","","","","","animation","170","2014125","0.0-170.0","1920x1080","","8370.299999952316","71.30","img/238/4/0.66667/bw/001.png","","","interesting"
"","","","","","animation","171","2021125","0.0-171.0","1920x1080","","6999","83.60","img/117/4/1/bw/001.png","","","interesting"
"","","","","","animation","172","2030987","0.0-172.0","1920x1080","","9859.699999928474","52","img/314/5.5/1/bw/001.png","","","interesting"
"","","","","","animation","173","2043756","0.0-173.0","1920x1080","","12766.100000023842","54.10","img/314/4/1/bw/001.png","","","interesting"
"","","","","","animation","174","2046248","0.0-174.0","1920x1080","","2490.6999999284744","69.44","img/117/4.5/0.5/bw/001.png","","","interesting"
"","","","","","animation","175","2053356","0.0-175.0","1920x1080","","7106","24.21","img/238/2.5/1.5/bw/001.png","","","interesting"
"","","","","","animation","176","2058992","0.0-176.0","1920x1080","","5634.699999928474","64.02","img/117/4.5/0.66667/bw/001.png","","","interesting"
"","","","","","animation","177","2067123","0.0-177.0","1920x1080","","8130.200000047684","96","img/238/3.5/0.66667/bw/001.png","","","interesting"
"","","","","","animation","178","2075128","0.0-178.0","1920x1080","","8004.099999904633","15.34","img/117/5.5/1.5/bw/001.png","","","interesting"
"","","","","","animation","179","2086432","0.0-179.0","1920x1080","","11302.899999976158","73.28","img/238/4.5/0.5/bw/001.png","","","interesting"
"","","","","","animation","180","2098127","0.0-180.0","1920x1080","","11694.599999904633","7.80","img/117/2.5/2/bw/001.png","","","interesting"
"","","","","","animation","181","2108905","0.0-181.0","1920x1080","","10777","38.89","img/117/4/2/bw/001.png","","","interesting"
"","","","","","animation","182","2114991","0.0-182.0","1920x1080","","6084.299999952316","61.64","img/314/5.5/0.5/bw/001.png","","","interesting"
"","","","","","animation","183","2127888","0.0-183.0","1920x1080","","12896.399999976158","82.14","img/117/4/0.66667/bw/001.png","","","interesting"
"","","","","","animation","184","2138355","0.0-184.0","1920x1080","","10465.600000023842","27.51","img/238/5.5/1.5/bw/001.png","","","interesting"
"","","","","","animation","185","2152759","0.0-185.0","1920x1080","","14402.900000095367","12.57","img/117/3.5/2/bw/001.png","","","interesting"
"","","","","","animation","186","2162108","0.0-186.0","1920x1080","","9348.5","20.63","img/314/2.5/1.5/bw/001.png","","","interesting"
"","","","","","animation","187","2175106","0.0-187.0","1920x1080","","12992.700000047684","51.59","img/117/4/1.5/bw/001.png","","","interesting"
"","","","","","animation","188","2188326","0.0-188.0","1920x1080","","13219.699999928474","30.03","img/314/5.5/1.5/bw/001.png","","","interesting"
"","","","","","animation","189","2207122","0.0-189.0","1920x1080","","18793.700000047684","59.79","img/314/4.5/1.5/bw/001.png","","","interesting"
"","","","","","animation","190","2214958","0.0-190.0","1920x1080","","7832.600000023842","70.37","img/314/3.5/0.5/bw/001.png","","","interesting"
"","","","","","animation","191","2228407","0.0-191.0","1920x1080","","13447.5","86.38","img/314/5.5/0.66667/bw/001.png","","","interesting"
"","","","","","animation","192","2239006","0.0-192.0","1920x1080","","10597.600000023842","69.31","img/238/3.5/2/bw/001.png","","","interesting"
"","","","","","animation","193","2249449","0.0-193.0","1920x1080","","10441.899999976158","75.79","img/117/3.5/1/bw/001.png","","","interesting"
"","","","","","animation","194","2255913","0.0-194.0","1920x1080","","6463","79.89","img/117/3.5/0.5/bw/001.png","","","interesting"
"","","","","","animation","195","2264097","0.0-195.0","1920x1080","","8183.100000023842","88","img/314/4.5/1/bw/001.png","","","interesting"
"","","","","","animation","196","2268913","0.0-196.0","1920x1080","","4814.799999952316","39.68","img/117/2.5/0.5/bw/001.png","","","interesting"
"","","","","","animation","197","2279145","0.0-197.0","1920x1080","","10231","59.92","img/238/4.5/2/bw/001.png","","","interesting"
"","","","","","animation","198","2293224","0.0-198.0","1920x1080","","14078.299999952316","57","img/314/4/0.5/bw/001.png","","","interesting"
"","","","","","animation","199","2306205","0.0-199.0","1920x1080","","12980","31.48","img/238/4.5/1.5/bw/001.png","","","interesting"
"","","","","","animation","200","2317757","0.0-200.0","1920x1080","","11550.699999928474","3.84","img/314/2.5/1/bw/001.png","","","interesting"
"","","","","","animation","201","2335321","0.0-201.0","1920x1080","","17563.700000047684","32.54","img/314/3.5/1/bw/001.png","","","interesting"
"","","","","","animation","202","2341527","0.0-202.0","1920x1080","","6204.899999976158","47.88","img/238/2.5/0.5/bw/001.png","","","interesting"
"","","","","","animation","203","2349679","0.0-203.0","1920x1080","","8150.899999976158","33.60","img/238/4/2/bw/001.png","","","interesting"
"","","","","","animation","204","2356121","0.0-204.0","1920x1080","","6440.399999976158","71.56","img/117/5.5/0.5/bw/001.png","","","interesting"
"","","","","","animation","205","2382087","0.0-205.0","1920x1080","","25964.800000071526","57.94","img/238/4/1.5/bw/001.png","","","interesting"
"","","","","","animation","206","2386207","0.0-206.0","1920x1080","","4118.800000071526","27.51","img/238/3.5/1/bw/001.png","","","interesting"
"","","","","","animation","207","2392588","0.0-207.0","1920x1080","","6380.099999904633","42","img/238/5.5/2/bw/001.png","","","interesting"
"","","","","","animation","208","2407145","0.0-208.0","1920x1080","","14555.100000023842","58.60","img/314/4/0.66667/bw/001.png","","","interesting"
"","","","","","animation","209","2414479","0.0-209.0","1920x1080","","7332.400000095367","10.32","img/117/2.5/1.5/bw/001.png","","","interesting"
"","","","","","animation","210","2420943","0.0-210.0","1920x1080","","6462.699999928474","5.82","img/117/2.5/1/bw/001.png","","","interesting"
"","","","","","animation","211","2427154","0.0-211.0","1920x1080","","6208.699999928474","29.10","img/314/2.5/0.5/bw/001.png","","","interesting"
"","","","","","animation","212","2431143","0.0-212.0","1920x1080","","3988.399999976158","65.08","img/238/4/1/bw/001.png","","","interesting"
"","","","","","animation","213","2438855","0.0-213.0","1920x1080","","7710.399999976158","70.77","img/117/4.5/1/bw/001.png","","","interesting"
"","","","","","animation","214","2449089","0.0-214.0","1920x1080","","10232.400000095367","79.23","img/314/3.5/1.5/bw/001.png","","","interesting"
"","","","","","animation","215","2460314","0.0-215.0","1920x1080","","11220.699999928474","66.40","img/117/3.5/0.66667/bw/001.png","","","interesting"
"","","","","","animation","216","2474474","0.0-216.0","1920x1080","","14158.5","69.71","img/314/4.5/0.66667/bw/001.png","","","interesting"
"","","","","","animation","217","2482573","0.0-217.0","1920x1080","","8098.099999904633","88.76","img/238/5.5/0.5/bw/001.png","","","interesting"
"","","","","","animation","218","2490991","0.0-218.0","1920x1080","","8417","65.34","img/117/4.5/1.5/bw/001.png","","","interesting"
"","","","","","animation","219","2498930","0.0-219.0","1920x1080","","7937.799999952316","76.59","img/238/5.5/0.66667/bw/001.png","","","interesting"
"","","","","","animation","220","2518188","0.0-220.0","1920x1080","","19258.399999976158","86.11","img/117/5.5/1/bw/001.png","","","interesting"
"","","","","","animation","221","2525471","0.0-221.0","1920x1080","","7281.899999976158","49.87","img/314/4/1.5/bw/001.png","","","interesting"
"","","","","","animation","222","2529392","0.0-222.0","1920x1080","","3920","41.40","img/117/4.5/2/bw/001.png","","","interesting"
"","","","","","animation","223","2538896","0.0-223.0","1920x1080","","9502.899999976158","60.45","img/238/3.5/1.5/bw/001.png","","","interesting"
"","","","","","animation","224","2551072","0.0-224.0","1920x1080","","12174.200000047684","89.42","img/238/4.5/0.66667/bw/001.png","","","interesting"
"","","","","","animation","225","2570112","0.0-225.0","1920x1080","","19039.100000023842","23.28","img/314/4.5/2/bw/001.png","","","interesting"
"","","","","","animation","226","2574733","0.0-226.0","1920x1080","","4612.399999976158","12.17","img/238/2.5/1/bw/001.png","","","interesting"
"","","","","","animation","227","2579496","0.0-227.0","1920x1080","","4760.700000047684","23.94","img/238/2.5/0.66667/bw/001.png","","","interesting"
"","","","","","animation","228","2588812","0.0-228.0","1920x1080","","9314.899999976158","80","img/314/4.5/0.5/bw/001.png","","","interesting"
"","","","","","animation","229","2596695","0.0-229.0","1920x1080","","7882","48.15","img/314/2.5/0.66667/bw/001.png","","","interesting"
"","","","","","animation","230","2601545","0.0-230.0","1920x1080","","4848.899999976158","67.20","img/117/3.5/1.5/bw/001.png","","","interesting"
"","","","","","animation","231","2615568","0.0-231.0","1920x1080","","14021.799999952316","59.66","img/314/3.5/2/bw/001.png","","","interesting"
"","","","","","animation","232","2622662","0.0-232.0","1920x1080","","7093","98","img/238/3.5/0.5/bw/001.png","","","interesting"
"","","","","","animation","233","2629384","0.0-233.0","1920x1080","","6720.600000023842","40.21","img/314/5.5/2/bw/001.png","","","interesting"
"","","","","","animation","234","2638642","0.0-234.0","1920x1080","","9262.399999976158","44.97","img/117/5.5/2/bw/001.png","","","interesting"
"","","","","","animation","235","2647057","0.0-235.0","1920x1080","","8413.399999976158","72.88","img/238/4.5/1/bw/001.png","","","interesting"
"","","","","","html-button-response","236","2666459","0.0-236.0","1920x1080","","19400.5","","<div class=""intro"">You are about to view a new series of animations.<br><br></div><div class=""intro"">You will evaluate them based on a different descriptor.<br><br></div><div class=""intro"">Move the slider to indicate how <strong style=""text-transform:capitalize"">RELAXING</strong> you find each animation.<br><br></div><div class=""intro"">0 = Least Relaxing<br></div><div class=""intro"">1 = Most Relaxing<br><br></div><div class=""intro"">Remember to use the <strong><em>entire range</em></strong> of the slider to make your ratings.<br></div><div class=""intro"">Please <strong><em>take your time</em></strong> and carefully consider each rating you make.<br><br></div>","0","",""
"","","","","","call-function","237","2666460","0.0-237.0","1920x1080","","","","","","",""
"","","","","","animation","238","2671674","0.0-238.0","1920x1080","","5213.799999952316","22.22","img/117/3.5/0.5/bw/001.png","","","relaxing"
"","","","","","animation","239","2680040","0.0-239.0","1920x1080","","8364.799999952316","86.51","img/238/4.5/1.5/bw/001.png","","","relaxing"
"","","","","","animation","240","2686256","0.0-240.0","1920x1080","","6214.5","62.17","img/314/3.5/1.5/bw/001.png","","","relaxing"
"","","","","","animation","241","2692442","0.0-241.0","1920x1080","","6185","29","img/238/3.5/0.5/bw/001.png","","","relaxing"
"","","","","","animation","242","2696287","0.0-242.0","1920x1080","","3845.8000000715256","49","img/117/4.5/0.66667/bw/001.png","","","relaxing"
"","","","","","animation","243","2699480","0.0-243.0","1920x1080","","3191.9000000953674","9.13","img/117/2.5/0.5/bw/001.png","","","relaxing"
"","","","","","animation","244","2705504","0.0-244.0","1920x1080","","6022","85.05","img/314/4.5/1.5/bw/001.png","","","relaxing"
"","","","","","animation","245","2709937","0.0-245.0","1920x1080","","4432","53.97","img/238/3.5/0.66667/bw/001.png","","","relaxing"
"","","","","","animation","246","2712904","0.0-246.0","1920x1080","","2965.100000023842","56.48","img/238/4/1/bw/001.png","","","relaxing"
"","","","","","animation","247","2718504","0.0-247.0","1920x1080","","5599.299999952316","99","img/314/4.5/2/bw/001.png","","","relaxing"
"","","","","","animation","248","2724425","0.0-248.0","1920x1080","","5919.100000023842","28.97","img/314/4/0.66667/bw/001.png","","","relaxing"
"","","","","","animation","249","2733321","0.0-249.0","1920x1080","","8894.899999976158","76.98","img/238/3.5/2/bw/001.png","","","relaxing"
"","","","","","animation","250","2736977","0.0-250.0","1920x1080","","3654.7000000476837","76.72","img/117/3.5/1.5/bw/001.png","","","relaxing"
"","","","","","animation","251","2742237","0.0-251.0","1920x1080","","5259.400000095367","47.88","img/238/5.5/0.5/bw/001.png","","","relaxing"
"","","","","","animation","252","2749409","0.0-252.0","1920x1080","","7170","81.88","img/117/2.5/2/bw/001.png","","","relaxing"
"","","","","","animation","253","2755906","0.0-253.0","1920x1080","","6493.800000071526","77.78","img/314/3.5/2/bw/001.png","","","relaxing"
"","","","","","animation","254","2763173","0.0-254.0","1920x1080","","7265.200000047684","37.83","img/314/4/1/bw/001.png","","","relaxing"
"","","","","","animation","255","2769439","0.0-255.0","1920x1080","","6265.800000071526","87.17","img/117/5.5/1/bw/001.png","","","relaxing"
"","","","","","animation","256","2773756","0.0-256.0","1920x1080","","4315.600000023842","73.02","img/238/5.5/2/bw/001.png","","","relaxing"
"","","","","","animation","257","2777139","0.0-257.0","1920x1080","","3381.5","2.78","img/117/2.5/0.66667/bw/001.png","","","relaxing"
"","","","","","animation","258","2779506","0.0-258.0","1920x1080","","2365.8000000715256","2.38","img/238/2.5/0.66667/bw/001.png","","","relaxing"
"","","","","","animation","259","2784806","0.0-259.0","1920x1080","","5298.200000047684","82.28","img/314/5.5/1.5/bw/001.png","","","relaxing"
"","","","","","animation","260","2792947","0.0-260.0","1920x1080","","8139.700000047684","84.92","img/238/5.5/1/bw/001.png","","","relaxing"
"","","","","","animation","261","2802995","0.0-261.0","1920x1080","","10046.600000023842","69.18","img/117/4/1.5/bw/001.png","","","relaxing"
"","","","","","animation","262","2805858","0.0-262.0","1920x1080","","2862.2000000476837","73.28","img/238/4.5/2/bw/001.png","","","relaxing"
"","","","","","animation","263","2809039","0.0-263.0","1920x1080","","3179.8000000715256","45.11","img/238/4/1.5/bw/001.png","","","relaxing"
"","","","","","animation","264","2812156","0.0-264.0","1920x1080","","3115.100000023842","19.71","img/238/3.5/1/bw/001.png","","","relaxing"
"","","","","","animation","265","2815825","0.0-265.0","1920x1080","","3668.100000023842","69.97","img/314/4/2/bw/001.png","","","relaxing"
"","","","","","animation","266","2819488","0.0-266.0","1920x1080","","3662.399999976158","60.05","img/314/4/1.5/bw/001.png","","","relaxing"
"","","","","","animation","267","2821776","0.0-267.0","1920x1080","","2287.100000023842","25.13","img/117/3.5/1/bw/001.png","","","relaxing"
"","","","","","animation","268","2824104","0.0-268.0","1920x1080","","2326.399999976158","21.56","img/314/3.5/1/bw/001.png","","","relaxing"
"","","","","","animation","269","2829121","0.0-269.0","1920x1080","","5015.299999952316","80.29","img/117/5.5/0.5/bw/001.png","","","relaxing"
"","","","","","animation","270","2833871","0.0-270.0","1920x1080","","4748.600000023842","4.37","img/117/2.5/1/bw/001.png","","","relaxing"
"","","","","","animation","271","2838225","0.0-271.0","1920x1080","","4352.700000047684","57.80","img/238/4/2/bw/001.png","","","relaxing"
"","","","","","animation","272","2842021","0.0-272.0","1920x1080","","3794.6999999284744","0","img/238/2.5/1/bw/001.png","","","relaxing"
"","","","","","animation","273","2846761","0.0-273.0","1920x1080","","4738.899999976158","58.20","img/314/5.5/2/bw/001.png","","","relaxing"
"","","","","","animation","274","2853028","0.0-274.0","1920x1080","","6266.400000095367","88.10","img/238/5.5/0.66667/bw/001.png","","","relaxing"
"","","","","","animation","275","2857354","0.0-275.0","1920x1080","","4324.200000047684","35.58","img/238/3.5/1.5/bw/001.png","","","relaxing"
"","","","","","animation","276","2862088","0.0-276.0","1920x1080","","4732.800000071526","86.11","img/117/5.5/1.5/bw/001.png","","","relaxing"
"","","","","","animation","277","2866345","0.0-277.0","1920x1080","","4254.800000071526","86.38","img/238/5.5/1.5/bw/001.png","","","relaxing"
"","","","","","animation","278","2869145","0.0-278.0","1920x1080","","2798.5","12.57","img/117/2.5/1.5/bw/001.png","","","relaxing"
"","","","","","animation","279","2871521","0.0-279.0","1920x1080","","2374.5","8.99","img/238/2.5/1.5/bw/001.png","","","relaxing"
"","","","","","animation","280","2876034","0.0-280.0","1920x1080","","4502.900000095367","86.24","img/117/5.5/2/bw/001.png","","","relaxing"
"","","","","","animation","281","2884512","0.0-281.0","1920x1080","","8477.099999904633","78.70","img/117/4/2/bw/001.png","","","relaxing"
"","","","","","animation","282","2893769","0.0-282.0","1920x1080","","9255.5","34.66","img/238/4/0.5/bw/001.png","","","relaxing"
"","","","","","animation","283","2897379","0.0-283.0","1920x1080","","3607.600000023842","46.03","img/314/3.5/0.5/bw/001.png","","","relaxing"
"","","","","","animation","284","2901137","0.0-284.0","1920x1080","","3756.6999999284744","38.89","img/238/4.5/0.5/bw/001.png","","","relaxing"
"","","","","","animation","285","2906896","0.0-285.0","1920x1080","","5757.299999952316","11.51","img/314/2.5/1.5/bw/001.png","","","relaxing"
"","","","","","animation","286","2916103","0.0-286.0","1920x1080","","9205.800000071526","79.10","img/314/5.5/1/bw/001.png","","","relaxing"
"","","","","","animation","287","2929879","0.0-287.0","1920x1080","","13774.300000071526","67.06","img/314/4.5/1/bw/001.png","","","relaxing"
"","","","","","animation","288","2931986","0.0-288.0","1920x1080","","2105","47.35","img/117/4/0.66667/bw/001.png","","","relaxing"
"","","","","","animation","289","2934034","0.0-289.0","1920x1080","","2046.8000000715256","41.53","img/314/4.5/0.66667/bw/001.png","","","relaxing"
"","","","","","animation","290","2943993","0.0-290.0","1920x1080","","9964.899999976158","64.95","img/117/4/1/bw/001.png","","","relaxing"
"","","","","","animation","291","2949339","0.0-291.0","1920x1080","","5344.799999952316","68.65","img/314/5.5/0.66667/bw/001.png","","","relaxing"
"","","","","","animation","292","2955947","0.0-292.0","1920x1080","","6606.399999976158","76.72","img/314/4.5/0.5/bw/001.png","","","relaxing"
"","","","","","animation","293","2960627","0.0-293.0","1920x1080","","4678.600000023842","77.91","img/314/5.5/0.5/bw/001.png","","","relaxing"
"","","","","","animation","294","2980274","0.0-294.0","1920x1080","","19646.300000071526","68.65","img/238/4.5/1/bw/001.png","","","relaxing"
"","","","","","animation","295","2983725","0.0-295.0","1920x1080","","3449.100000023842","64.81","img/117/3.5/2/bw/001.png","","","relaxing"
"","","","","","animation","296","2986795","0.0-296.0","1920x1080","","3068.899999976158","23.94","img/117/4/0.5/bw/001.png","","","relaxing"
"","","","","","animation","297","2990139","0.0-297.0","1920x1080","","3342.5","3.70","img/314/2.5/1/bw/001.png","","","relaxing"
"","","","","","animation","298","2992978","0.0-298.0","1920x1080","","2838.5999999046326","8.60","img/314/2.5/2/bw/001.png","","","relaxing"
"","","","","","animation","299","2995846","0.0-299.0","1920x1080","","2858.1999999284744","26.06","img/238/4/0.66667/bw/001.png","","","relaxing"
"","","","","","animation","300","2999003","0.0-300.0","1920x1080","","3155.600000023842","4.76","img/238/2.5/2/bw/001.png","","","relaxing"
"","","","","","animation","301","3003347","0.0-301.0","1920x1080","","4342.800000071526","70.77","img/117/4.5/1/bw/001.png","","","relaxing"
"","","","","","animation","302","3006314","0.0-302.0","1920x1080","","2965.5","0.40","img/314/2.5/0.66667/bw/001.png","","","relaxing"
"","","","","","animation","303","3009330","0.0-303.0","1920x1080","","3015.2999999523163","68.65","img/117/4.5/2/bw/001.png","","","relaxing"
"","","","","","animation","304","3016138","0.0-304.0","1920x1080","","6806.299999952316","78.44","img/117/5.5/0.66667/bw/001.png","","","relaxing"
"","","","","","animation","305","3019363","0.0-305.0","1920x1080","","3223.7000000476837","9.13","img/117/3.5/0.66667/bw/001.png","","","relaxing"
"","","","","","animation","306","3023235","0.0-306.0","1920x1080","","3870.100000023842","27.51","img/117/4.5/0.5/bw/001.png","","","relaxing"
"","","","","","animation","307","3026114","0.0-307.0","1920x1080","","2877.899999976158","0.79","img/314/2.5/0.5/bw/001.png","","","relaxing"
"","","","","","animation","308","3033432","0.0-308.0","1920x1080","","7316.5","92.33","img/117/4.5/1.5/bw/001.png","","","relaxing"
"","","","","","animation","309","3041733","0.0-309.0","1920x1080","","8299.599999904633","34.39","img/314/3.5/0.66667/bw/001.png","","","relaxing"
"","","","","","animation","310","3051497","0.0-310.0","1920x1080","","9763","99","img/238/4.5/0.66667/bw/001.png","","","relaxing"
"","","","","","animation","311","3055067","0.0-311.0","1920x1080","","3568.7000000476837","43.92","img/314/4/0.5/bw/001.png","","","relaxing"
"","","","","","animation","312","3058547","0.0-312.0","1920x1080","","3478.9000000953674","3.31","img/238/2.5/0.5/bw/001.png","","","relaxing"
"","","","","","html-button-response","313","3077165","0.0-313.0","1920x1080","","18616.800000071526","","<div class=""intro"">You are about to view a new series of animations.<br><br></div><div class=""intro"">You will evaluate them based on a different descriptor.<br><br></div><div class=""intro"">Move the slider to indicate how <strong style=""text-transform:capitalize"">NATURAL</strong> you find each animation.<br><br></div><div class=""intro"">0 = Least Natural<br></div><div class=""intro"">1 = Most Natural<br><br></div><div class=""intro"">Remember to use the <strong><em>entire range</em></strong> of the slider to make your ratings.<br></div><div class=""intro"">Please <strong><em>take your time</em></strong> and carefully consider each rating you make.<br><br></div>","0","",""
"","","","","","call-function","314","3077166","0.0-314.0","1920x1080","","","","","","",""
"","","","","","animation","315","3082913","0.0-315.0","1920x1080","","5746","42.59","img/238/4.5/1.5/bw/001.png","","","natural"
"","","","","","animation","316","3087596","0.0-316.0","1920x1080","","4682","20.11","img/117/3.5/0.66667/bw/001.png","","","natural"
"","","","","","animation","317","3092467","0.0-317.0","1920x1080","","4869.299999952316","65.87","img/238/3.5/1.5/bw/001.png","","","natural"
"","","","","","animation","318","3098280","0.0-318.0","1920x1080","","5811.899999976158","54.76","img/117/4/1/bw/001.png","","","natural"
"","","","","","animation","319","3113114","0.0-319.0","1920x1080","","14832.799999952316","87.43","img/314/2.5/0.5/bw/001.png","","","natural"
"","","","","","animation","320","3117784","0.0-320.0","1920x1080","","4671.699999928474","70.50","img/117/5.5/1.5/bw/001.png","","","natural"
"","","","","","animation","321","3124364","0.0-321.0","1920x1080","","6577.799999952316","16.67","img/238/5.5/0.66667/bw/001.png","","","natural"
"","","","","","animation","322","3133984","0.0-322.0","1920x1080","","9618.800000071526","86.51","img/117/4/0.5/bw/001.png","","","natural"
"","","","","","animation","323","3136461","0.0-323.0","1920x1080","","2475.100000023842","72.35","img/117/4/1.5/bw/001.png","","","natural"
"","","","","","animation","324","3139098","0.0-324.0","1920x1080","","2636.399999976158","75.40","img/314/3.5/1/bw/001.png","","","natural"
"","","","","","animation","325","3142301","0.0-325.0","1920x1080","","3200.8000000715256","96","img/117/3.5/2/bw/001.png","","","natural"
"","","","","","animation","326","3146828","0.0-326.0","1920x1080","","4525.5","83.86","img/314/4.5/0.5/bw/001.png","","","natural"
"","","","","","animation","327","3151944","0.0-327.0","1920x1080","","5115.600000023842","7.01","img/238/4/0.66667/bw/001.png","","","natural"
"","","","","","animation","328","3155433","0.0-328.0","1920x1080","","3487.100000023842","5.82","img/238/4.5/2/bw/001.png","","","natural"
"","","","","","animation","329","3159115","0.0-329.0","1920x1080","","3680.600000023842","89.29","img/238/2.5/0.5/bw/001.png","","","natural"
"","","","","","animation","330","3164000","0.0-330.0","1920x1080","","4883.899999976158","96","img/117/4.5/0.5/bw/001.png","","","natural"
"","","","","","animation","331","3168537","0.0-331.0","1920x1080","","4535.200000047684","0.79","img/117/2.5/1.5/bw/001.png","","","natural"
"","","","","","animation","332","3171537","0.0-332.0","1920x1080","","2998.2999999523163","89.29","img/117/2.5/0.5/bw/001.png","","","natural"
"","","","","","animation","333","3176089","0.0-333.0","1920x1080","","4556","53.57","img/238/4/1.5/bw/001.png","","","natural"
"","","","","","animation","334","3179188","0.0-334.0","1920x1080","","3097.899999976158","17.33","img/238/5.5/2/bw/001.png","","","natural"
"","","","","","animation","335","3182860","0.0-335.0","1920x1080","","3670.100000023842","92.99","img/238/3.5/0.5/bw/001.png","","","natural"
"","","","","","animation","336","3196226","0.0-336.0","1920x1080","","13365.300000071526","20.90","img/238/4/2/bw/001.png","","","natural"
"","","","","","animation","337","3199828","0.0-337.0","1920x1080","","3600","64.02","img/314/5.5/0.5/bw/001.png","","","natural"
"","","","","","animation","338","3202515","0.0-338.0","1920x1080","","2685.600000023842","76.46","img/238/4.5/0.66667/bw/001.png","","","natural"
"","","","","","animation","339","3205566","0.0-339.0","1920x1080","","3049.3000000715256","3.44","img/238/5.5/0.5/bw/001.png","","","natural"
"","","","","","animation","340","3210113","0.0-340.0","1920x1080","","4546.100000023842","88.62","img/238/4.5/0.5/bw/001.png","","","natural"
"","","","","","animation","341","3213571","0.0-341.0","1920x1080","","3456.399999976158","0.93","img/314/2.5/1.5/bw/001.png","","","natural"
"","","","","","animation","342","3220938","0.0-342.0","1920x1080","","7365.399999976158","100","img/238/3.5/1/bw/001.png","","","natural"
"","","","","","animation","343","3229078","0.0-343.0","1920x1080","","8138.299999952316","97","img/314/4/1.5/bw/001.png","","","natural"
"","","","","","animation","344","3236695","0.0-344.0","1920x1080","","7613.700000047684","39","img/238/4/0.5/bw/001.png","","","natural"
"","","","","","animation","345","3239390","0.0-345.0","1920x1080","","2693.8000000715256","78.84","img/314/3.5/0.66667/bw/001.png","","","natural"
"","","","","","animation","346","3242768","0.0-346.0","1920x1080","","3376.399999976158","98","img/238/3.5/2/bw/001.png","","","natural"
"","","","","","animation","347","3246860","0.0-347.0","1920x1080","","4090.2999999523163","29.37","img/238/4/1/bw/001.png","","","natural"
"","","","","","animation","348","3250449","0.0-348.0","1920x1080","","3588","12.57","img/314/4.5/1.5/bw/001.png","","","natural"
"","","","","","animation","349","3256473","0.0-349.0","1920x1080","","6021.899999976158","21.43","img/314/5.5/0.66667/bw/001.png","","","natural"
"","","","","","animation","350","3263229","0.0-350.0","1920x1080","","6754.700000047684","77.51","img/238/3.5/0.66667/bw/001.png","","","natural"
"","","","","","animation","351","3266876","0.0-351.0","1920x1080","","3645.7000000476837","89.95","img/117/3.5/1.5/bw/001.png","","","natural"
"","","","","","animation","352","3275983","0.0-352.0","1920x1080","","9105.399999976158","27","img/238/5.5/1/bw/001.png","","","natural"
"","","","","","animation","353","3283006","0.0-353.0","1920x1080","","7021.600000023842","48.94","img/238/4.5/1/bw/001.png","","","natural"
"","","","","","animation","354","3287482","0.0-354.0","1920x1080","","4475.300000071526","30.42","img/117/4.5/2/bw/001.png","","","natural"
"","","","","","animation","355","3297338","0.0-355.0","1920x1080","","9846.100000023842","64.29","img/117/4.5/1.5/bw/001.png","","","natural"
"","","","","","animation","356","3299952","0.0-356.0","1920x1080","","2612","23.28","img/314/5.5/2/bw/001.png","","","natural"
"","","","","","animation","357","3303238","0.0-357.0","1920x1080","","3284.899999976158","1.72","img/238/2.5/1.5/bw/001.png","","","natural"
"","","","","","animation","358","3307597","0.0-358.0","1920x1080","","4357.899999976158","81.75","img/314/4.5/1/bw/001.png","","","natural"
"","","","","","animation","359","3310472","0.0-359.0","1920x1080","","2872.899999976158","6.88","img/314/2.5/2/bw/001.png","","","natural"
"","","","","","animation","360","3313255","0.0-360.0","1920x1080","","2781.5","96","img/117/4/2/bw/001.png","","","natural"
"","","","","","animation","361","3317548","0.0-361.0","1920x1080","","4292.399999976158","11.11","img/238/2.5/2/bw/001.png","","","natural"
"","","","","","animation","362","3324333","0.0-362.0","1920x1080","","6782.700000047684","12.96","img/314/5.5/1/bw/001.png","","","natural"
"","","","","","animation","363","3327869","0.0-363.0","1920x1080","","3535.100000023842","49.21","img/117/5.5/0.66667/bw/001.png","","","natural"
"","","","","","animation","364","3341755","0.0-364.0","1920x1080","","13884.799999952316","86.90","img/314/4/2/bw/001.png","","","natural"
"","","","","","animation","365","3345621","0.0-365.0","1920x1080","","3863.2000000476837","28.17","img/314/4/0.5/bw/001.png","","","natural"
"","","","","","animation","366","3350072","0.0-366.0","1920x1080","","4448.5","73.68","img/117/2.5/1/bw/001.png","","","natural"
"","","","","","animation","367","3353384","0.0-367.0","1920x1080","","3310.3000000715256","76.72","img/314/2.5/1/bw/001.png","","","natural"
"","","","","","animation","368","3357155","0.0-368.0","1920x1080","","3770.7999999523163","31.75","img/117/4/0.66667/bw/001.png","","","natural"
"","","","","","animation","369","3364765","0.0-369.0","1920x1080","","7607.399999976158","5.03","img/238/2.5/0.66667/bw/001.png","","","natural"
"","","","","","animation","370","3368147","0.0-370.0","1920x1080","","3381.100000023842","57.41","img/117/4.5/1/bw/001.png","","","natural"
"","","","","","animation","371","3377264","0.0-371.0","1920x1080","","9115.300000071526","4.37","img/117/5.5/1/bw/001.png","","","natural"
"","","","","","animation","372","3384731","0.0-372.0","1920x1080","","7464.600000023842","6.88","img/238/2.5/1/bw/001.png","","","natural"
"","","","","","animation","373","3391589","0.0-373.0","1920x1080","","6857.100000023842","59.92","img/314/2.5/0.66667/bw/001.png","","","natural"
"","","","","","animation","374","3395184","0.0-374.0","1920x1080","","3593.399999976158","70.63","img/117/4.5/0.66667/bw/001.png","","","natural"
"","","","","","animation","375","3405232","0.0-375.0","1920x1080","","10046.299999952316","12.43","img/314/4.5/2/bw/001.png","","","natural"
"","","","","","animation","376","3412597","0.0-376.0","1920x1080","","7363.600000023842","25.93","img/117/5.5/0.5/bw/001.png","","","natural"
"","","","","","animation","377","3416817","0.0-377.0","1920x1080","","4217.899999976158","52.78","img/117/3.5/1/bw/001.png","","","natural"
"","","","","","animation","378","3420382","0.0-378.0","1920x1080","","3563.600000023842","20.63","img/117/3.5/0.5/bw/001.png","","","natural"
"","","","","","animation","379","3426002","0.0-379.0","1920x1080","","5617.5","66.27","img/314/3.5/0.5/bw/001.png","","","natural"
"","","","","","animation","380","3431269","0.0-380.0","1920x1080","","5265.699999928474","90.61","img/314/3.5/1.5/bw/001.png","","","natural"
"","","","","","animation","381","3436653","0.0-381.0","1920x1080","","5382.099999904633","4.23","img/117/2.5/2/bw/001.png","","","natural"
"","","","","","animation","382","3442550","0.0-382.0","1920x1080","","5895.799999952316","3.57","img/238/5.5/1.5/bw/001.png","","","natural"
"","","","","","animation","383","3447136","0.0-383.0","1920x1080","","4584.200000047684","63.89","img/314/4/0.66667/bw/001.png","","","natural"
"","","","","","animation","384","3456825","0.0-384.0","1920x1080","","9684.899999976158","73.81","img/314/4.5/0.66667/bw/001.png","","","natural"
"","","","","","animation","385","3465058","0.0-385.0","1920x1080","","8231.299999952316","79.23","img/314/3.5/2/bw/001.png","","","natural"
"","","","","","animation","386","3469806","0.0-386.0","1920x1080","","4746.799999952316","17.59","img/314/5.5/1.5/bw/001.png","","","natural"
"","","","","","animation","387","3475046","0.0-387.0","1920x1080","","5248.699999928474","9","img/117/5.5/2/bw/001.png","","","natural"
"","","","","","animation","388","3483563","0.0-388.0","1920x1080","","8514.599999904633","67.59","img/117/2.5/0.66667/bw/001.png","","","natural"
"","","","","","animation","389","3490241","0.0-389.0","1920x1080","","6676.5","87.57","img/314/4/1/bw/001.png","","","natural"
"","","","","","html-button-response","390","3551558","0.0-390.0","1920x1080","","61306","","<strong>Study Debriefing</strong><br><p class=""debrief""><strong>Background:</strong> The patterns you rated are called <em>fractals</em>. The term fractal describes a class of irregular curves or shapes for which any suitably chosen part is similar in shape to a given larger or smaller part when magnified or reduced to the same size. Fractal properties are found throughout the natural and manmade world. The series of animations you saw today displayed animated fractal patterns of a varying complexity.</p><p class=""debrief""><strong>Purpose of this study:</strong> We hope to better understand how the perception of static fractals differs from the perception of animated fractals, and how the speed of the animated patterns influences people&apos;s perception of them. Fractals allow us to study the perception of aesthetic properties (e.g. the perceived level of beauty in an image) without using recognizable content, which makes them an excellent tool for studying abstract aesthetic judgement.</p><p class=""debrief""><strong>Your part:</strong> Your participation has helped us to further understand how humans perceive these patterns across different levels of speed and complexity. This research with allow us to better understand how the visual system and brain process our ever-changing visual environments.<p class=""debrief""><strong>Feedback and Further information:</strong> If you have additional questions about this study, please feel free to ask the researcher, Nathan Gonzales-Hess at nhess @ uoregon.edu. If you have any questions concerning your rights as a research participant, please contact Research Compliance Services, 5237 University of Oregon, Eugene, OR 97403, 541-346-2510, or email researchCompliance @ uoregon.edu. You can also email the Human Subjects Coordinator for psychology and linguistics research at hscoord @ uoregon.edu. ","0","",""
"","","","","","html-button-response","391","3555448","0.0-391.0","1920x1080","","3885.5","","Thank you for participating in this study. <br>Please click below to finish the experiment and submit your responses.<br><br>","0","",""
"true","","","","","fullscreen","392","3556456","0.0-392.0","1920x1080","10:9 12/10/2022","","","","","",""
