"success","timeout","failed_images","failed_audio","failed_video","trial_type","trial_index","time_elapsed","internal_node_id","resolution","timeStamp","rt","response","stimulus","button_pressed","value","descriptor"
"true","false","[]","[]","[]","preload","0","5847","0.0-0.0","1920x1080","","","","","","",""
"true","false","[]","[]","[]","preload","1","11846","0.0-1.0","1920x1080","","","","","","",""
"true","false","[]","[]","[]","preload","2","17659","0.0-2.0","1920x1080","","","","","","",""
"true","","","","","fullscreen","3","264837","0.0-3.0","1920x1080","9:57 5/10/2022","","","","","",""
"","","","","","survey-html-form","4","276749","0.0-4.0","1920x1080","","11908.59999999404","{""age"":""21"",""gender"":""Female""}","","","",""
"","","","","","html-button-response","5","332181","0.0-5.0","1920x1080","","55430.79999999702","","<div class=""complex"">You are going to see a series of animations.<br><br></div><div class=""complex"">Move the slider to indicate how <strong style=""text-transform:capitalize"">COMPLEX</strong> you find each animation.<br><br></div><div class=""complex"">0 = Least Complex<br></div><div class=""complex"">1 = Most Complex<br><br></div><div class=""complex"">Remember to use the <strong><em>entire range</em></strong> of the slider to make your ratings.<br></div><div class=""complex"">Please <strong><em>take your time</em></strong> and carefully consider each rating you make.<br><br></div><div class=""complex"">The study has five sections and will take about 45 minutes to complete.<br><br></div>","0","",""
"","","","","","call-function","6","332181","0.0-6.0","1920x1080","","","","","","",""
"","","","","","animation","7","359989","0.0-7.0","1920x1080","","27806.29999999702","27.51","img/238/5.5/1/bw/001.png","","","complex"
"","","","","","animation","8","366556","0.0-8.0","1920x1080","","6566.9000000059605","31.48","img/117/4/0.66667/bw/001.png","","","complex"
"","","","","","animation","9","370916","0.0-9.0","1920x1080","","4359.300000011921","60.71","img/314/3.5/0.5/bw/001.png","","","complex"
"","","","","","animation","10","377141","0.0-10.0","1920x1080","","6223.4000000059605","23.94","img/117/4.5/1/bw/001.png","","","complex"
"","","","","","animation","11","383700","0.0-11.0","1920x1080","","6557.300000011921","20.63","img/117/5.5/2/bw/001.png","","","complex"
"","","","","","animation","12","387948","0.0-12.0","1920x1080","","4247.300000011921","85.32","img/314/2.5/2/bw/001.png","","","complex"
"","","","","","animation","13","391509","0.0-13.0","1920x1080","","3559.9000000059605","97","img/238/2.5/0.66667/bw/001.png","","","complex"
"","","","","","animation","14","399316","0.0-14.0","1920x1080","","7806.5","33.33","img/117/4.5/2/bw/001.png","","","complex"
"","","","","","animation","15","406140","0.0-15.0","1920x1080","","6823.4000000059605","96","img/314/2.5/1.5/bw/001.png","","","complex"
"","","","","","animation","16","409724","0.0-16.0","1920x1080","","3583.3999999910593","71.69","img/238/3.5/0.66667/bw/001.png","","","complex"
"","","","","","animation","17","415684","0.0-17.0","1920x1080","","5958.5999999940395","60.32","img/314/3.5/1.5/bw/001.png","","","complex"
"","","","","","animation","18","418709","0.0-18.0","1920x1080","","3024.7000000029802","88.89","img/117/2.5/0.66667/bw/001.png","","","complex"
"","","","","","animation","19","422412","0.0-19.0","1920x1080","","3702.1000000089407","57","img/314/3.5/0.66667/bw/001.png","","","complex"
"","","","","","animation","20","425388","0.0-20.0","1920x1080","","2975.5999999940395","41.93","img/117/4/1/bw/001.png","","","complex"
"","","","","","animation","21","435852","0.0-21.0","1920x1080","","10462.59999999404","23","img/238/4.5/1.5/bw/001.png","","","complex"
"","","","","","animation","22","438852","0.0-22.0","1920x1080","","2999.699999988079","2.25","img/238/5.5/1.5/bw/001.png","","","complex"
"","","","","","animation","23","442052","0.0-23.0","1920x1080","","3199.199999988079","71.30","img/117/3.5/2/bw/001.png","","","complex"
"","","","","","animation","24","448668","0.0-24.0","1920x1080","","6614.899999991059","63.36","img/238/3.5/2/bw/001.png","","","complex"
"","","","","","animation","25","457084","0.0-25.0","1920x1080","","8415.5","44","img/238/4.5/0.66667/bw/001.png","","","complex"
"","","","","","animation","26","461148","0.0-26.0","1920x1080","","4062.9000000059605","19","img/238/5.5/0.5/bw/001.png","","","complex"
"","","","","","animation","27","464196","0.0-27.0","1920x1080","","3047.2999999970198","97","img/238/2.5/0.5/bw/001.png","","","complex"
"","","","","","animation","28","467012","0.0-28.0","1920x1080","","2815.0999999940395","86.51","img/238/3.5/0.5/bw/001.png","","","complex"
"","","","","","animation","29","470444","0.0-29.0","1920x1080","","3431.6000000089407","98","img/117/2.5/0.5/bw/001.png","","","complex"
"","","","","","animation","30","475356","0.0-30.0","1920x1080","","4911.20000000298","2","img/314/5.5/0.66667/bw/001.png","","","complex"
"","","","","","animation","31","478812","0.0-31.0","1920x1080","","3455.0999999940395","13.76","img/314/4.5/0.5/bw/001.png","","","complex"
"","","","","","animation","32","482180","0.0-32.0","1920x1080","","3367.2000000029802","66.67","img/117/3.5/1/bw/001.png","","","complex"
"","","","","","animation","33","494028","0.0-33.0","1920x1080","","11847","51.85","img/238/4/1.5/bw/001.png","","","complex"
"","","","","","animation","34","498052","0.0-34.0","1920x1080","","4023.5","33","img/238/4.5/2/bw/001.png","","","complex"
"","","","","","animation","35","500716","0.0-35.0","1920x1080","","2663.1000000089407","32.28","img/238/4/1/bw/001.png","","","complex"
"","","","","","animation","36","503764","0.0-36.0","1920x1080","","3047.5","56.08","img/238/4/0.66667/bw/001.png","","","complex"
"","","","","","animation","37","505796","0.0-37.0","1920x1080","","2031","63.49","img/238/3.5/1/bw/001.png","","","complex"
"","","","","","animation","38","511017","0.0-38.0","1920x1080","","5223.79999999702","42","img/238/4.5/0.5/bw/001.png","","","complex"
"","","","","","animation","39","513624","0.0-39.0","1920x1080","","2606.7999999970198","11.24","img/117/5.5/1.5/bw/001.png","","","complex"
"","","","","","animation","40","517417","0.0-40.0","1920x1080","","3791.7999999970198","54.89","img/238/3.5/1.5/bw/001.png","","","complex"
"","","","","","animation","41","521592","0.0-41.0","1920x1080","","4172","82.54","img/238/2.5/1/bw/001.png","","","complex"
"","","","","","animation","42","528409","0.0-42.0","1920x1080","","6815.79999999702","26.59","img/117/4.5/0.66667/bw/001.png","","","complex"
"","","","","","animation","43","532056","0.0-43.0","1920x1080","","3646.2999999970198","8.99","img/314/4.5/2/bw/001.png","","","complex"
"","","","","","animation","44","556456","0.0-44.0","1920x1080","","24399.29999999702","57.41","img/314/3.5/2/bw/001.png","","","complex"
"","","","","","animation","45","588532","0.0-45.0","1920x1080","","32071.5","82.67","img/117/2.5/1.5/bw/001.png","","","complex"
"","","","","","animation","46","593556","0.0-46.0","1920x1080","","5023.5999999940395","48.54","img/117/3.5/0.66667/bw/001.png","","","complex"
"","","","","","animation","47","596628","0.0-47.0","1920x1080","","3070.6000000089407","42.20","img/314/3.5/1/bw/001.png","","","complex"
"","","","","","animation","48","601268","0.0-48.0","1920x1080","","4639.300000011921","31","img/314/4/0.5/bw/001.png","","","complex"
"","","","","","animation","49","603796","0.0-49.0","1920x1080","","2525.1000000089407","48.81","img/117/3.5/0.5/bw/001.png","","","complex"
"","","","","","animation","50","606660","0.0-50.0","1920x1080","","2862.9000000059605","84.79","img/117/2.5/2/bw/001.png","","","complex"
"","","","","","animation","51","610212","0.0-51.0","1920x1080","","3551.5","51.72","img/117/3.5/1.5/bw/001.png","","","complex"
"","","","","","animation","52","613932","0.0-52.0","1920x1080","","3719.4000000059605","29.50","img/238/4/2/bw/001.png","","","complex"
"","","","","","animation","53","617004","0.0-53.0","1920x1080","","3068.8999999910593","38.23","img/314/4/1/bw/001.png","","","complex"
"","","","","","animation","54","619532","0.0-54.0","1920x1080","","2526.5","88.10","img/314/2.5/1/bw/001.png","","","complex"
"","","","","","animation","55","622572","0.0-55.0","1920x1080","","3039.5999999940395","71.03","img/314/4/0.66667/bw/001.png","","","complex"
"","","","","","animation","56","626172","0.0-56.0","1920x1080","","3598.9000000059605","48.02","img/117/4/2/bw/001.png","","","complex"
"","","","","","animation","57","630396","0.0-57.0","1920x1080","","4222.79999999702","40.34","img/314/4/2/bw/001.png","","","complex"
"","","","","","animation","58","632960","0.0-58.0","1920x1080","","2562","70.50","img/238/2.5/2/bw/001.png","","","complex"
"","","","","","animation","59","639486","0.0-59.0","1920x1080","","6525.0999999940395","24.21","img/238/4.5/1/bw/001.png","","","complex"
"","","","","","animation","60","645127","0.0-60.0","1920x1080","","5640.100000008941","80","img/238/2.5/1.5/bw/001.png","","","complex"
"","","","","","animation","61","648190","0.0-61.0","1920x1080","","3062","0","img/314/5.5/2/bw/001.png","","","complex"
"","","","","","animation","62","657445","0.0-62.0","1920x1080","","9254.79999999702","64","img/117/4/0.5/bw/001.png","","","complex"
"","","","","","animation","63","660182","0.0-63.0","1920x1080","","2734.800000011921","96","img/314/2.5/0.5/bw/001.png","","","complex"
"","","","","","animation","64","663761","0.0-64.0","1920x1080","","3578.4000000059605","99","img/314/2.5/0.66667/bw/001.png","","","complex"
"","","","","","animation","65","666361","0.0-65.0","1920x1080","","2599.0999999940395","21.69","img/314/5.5/0.5/bw/001.png","","","complex"
"","","","","","animation","66","669263","0.0-66.0","1920x1080","","2900.9000000059605","3.04","img/238/5.5/2/bw/001.png","","","complex"
"","","","","","animation","67","672318","0.0-67.0","1920x1080","","3054.1000000089407","14.15","img/117/5.5/0.66667/bw/001.png","","","complex"
"","","","","","animation","68","678127","0.0-68.0","1920x1080","","5808.9000000059605","12.57","img/238/5.5/0.66667/bw/001.png","","","complex"
"","","","","","animation","69","680270","0.0-69.0","1920x1080","","2141.7999999970198","30.56","img/117/4.5/1.5/bw/001.png","","","complex"
"","","","","","animation","70","682949","0.0-70.0","1920x1080","","2678.7000000029802","43.12","img/238/4/0.5/bw/001.png","","","complex"
"","","","","","animation","71","685534","0.0-71.0","1920x1080","","2583.5","30.03","img/117/5.5/0.5/bw/001.png","","","complex"
"","","","","","animation","72","690566","0.0-72.0","1920x1080","","5031","38","img/314/4.5/0.66667/bw/001.png","","","complex"
"","","","","","animation","73","692651","0.0-73.0","1920x1080","","2087.2999999970198","40.48","img/314/4.5/1/bw/001.png","","","complex"
"","","","","","animation","74","696459","0.0-74.0","1920x1080","","3806.5999999940395","81","img/117/2.5/1/bw/001.png","","","complex"
"","","","","","animation","75","698725","0.0-75.0","1920x1080","","2265.5","60.05","img/117/4.5/0.5/bw/001.png","","","complex"
"","","","","","animation","76","701667","0.0-76.0","1920x1080","","2940.9000000059605","77.91","img/117/4/1.5/bw/001.png","","","complex"
"","","","","","animation","77","705051","0.0-77.0","1920x1080","","3383.3999999910593","3.97","img/314/5.5/1.5/bw/001.png","","","complex"
"","","","","","animation","78","710267","0.0-78.0","1920x1080","","5214.9000000059605","30.03","img/314/4.5/1.5/bw/001.png","","","complex"
"","","","","","animation","79","714347","0.0-79.0","1920x1080","","4079.2000000029802","17","img/314/5.5/1/bw/001.png","","","complex"
"","","","","","animation","80","716709","0.0-80.0","1920x1080","","2361.199999988079","42.86","img/314/4/1.5/bw/001.png","","","complex"
"","","","","","animation","81","726427","0.0-81.0","1920x1080","","9716.70000000298","12.70","img/117/5.5/1/bw/001.png","","","complex"
"","","","","","html-button-response","82","749492","0.0-82.0","1920x1080","","23064","","<div class=""intro"">You are about to view a new series of animations.<br><br></div><div class=""intro"">You will evaluate them based on a different descriptor.<br><br></div><div class=""intro"">Move the slider to indicate how <strong style=""text-transform:capitalize"">NATURAL</strong> you find each animation.<br><br></div><div class=""intro"">0 = Least Natural<br></div><div class=""intro"">1 = Most Natural<br><br></div><div class=""intro"">Remember to use the <strong><em>entire range</em></strong> of the slider to make your ratings.<br></div><div class=""intro"">Please <strong><em>take your time</em></strong> and carefully consider each rating you make.<br><br></div>","0","",""
"","","","","","call-function","83","749494","0.0-83.0","1920x1080","","","","","","",""
"","","","","","animation","84","784638","0.0-84.0","1920x1080","","35140.70000000298","78","img/238/2.5/2/bw/001.png","","","natural"
"","","","","","animation","85","790846","0.0-85.0","1920x1080","","6205.70000000298","9","img/238/2.5/0.66667/bw/001.png","","","natural"
"","","","","","animation","86","798398","0.0-86.0","1920x1080","","7551.100000008941","20.63","img/314/4.5/0.5/bw/001.png","","","natural"
"","","","","","animation","87","806661","0.0-87.0","1920x1080","","8262.79999999702","22.09","img/117/2.5/0.66667/bw/001.png","","","natural"
"","","","","","animation","88","810560","0.0-88.0","1920x1080","","3898.199999988079","41.67","img/117/4.5/0.66667/bw/001.png","","","natural"
"","","","","","animation","89","814329","0.0-89.0","1920x1080","","3772.5","26.72","img/238/3.5/0.5/bw/001.png","","","natural"
"","","","","","animation","90","818560","0.0-90.0","1920x1080","","4230.600000008941","44.18","img/117/3.5/0.66667/bw/001.png","","","natural"
"","","","","","animation","91","821322","0.0-91.0","1920x1080","","2760.5","67.46","img/238/3.5/1.5/bw/001.png","","","natural"
"","","","","","animation","92","825528","0.0-92.0","1920x1080","","4205.9000000059605","7.01","img/314/2.5/0.5/bw/001.png","","","natural"
"","","","","","animation","93","829788","0.0-93.0","1920x1080","","4258.5","70.77","img/238/5.5/0.5/bw/001.png","","","natural"
"","","","","","animation","94","834401","0.0-94.0","1920x1080","","4612.0999999940395","71.43","img/117/3.5/1.5/bw/001.png","","","natural"
"","","","","","animation","95","837788","0.0-95.0","1920x1080","","3386.7000000029802","42.20","img/314/4.5/0.66667/bw/001.png","","","natural"
"","","","","","animation","96","841313","0.0-96.0","1920x1080","","3523.0999999940395","89.42","img/117/5.5/1/bw/001.png","","","natural"
"","","","","","animation","97","844555","0.0-97.0","1920x1080","","3240.9000000059605","72.88","img/238/3.5/2/bw/001.png","","","natural"
"","","","","","animation","98","848760","0.0-98.0","1920x1080","","4205","43.65","img/314/2.5/1/bw/001.png","","","natural"
"","","","","","animation","99","852972","0.0-99.0","1920x1080","","4211.0999999940395","81.88","img/238/4/2/bw/001.png","","","natural"
"","","","","","animation","100","856360","0.0-100.0","1920x1080","","3386.8999999910593","89.15","img/238/4.5/2/bw/001.png","","","natural"
"","","","","","animation","101","859449","0.0-101.0","1920x1080","","3087.2000000029802","66.14","img/238/2.5/1.5/bw/001.png","","","natural"
"","","","","","animation","102","862788","0.0-102.0","1920x1080","","3338.0999999940395","78.70","img/314/4/1.5/bw/001.png","","","natural"
"","","","","","animation","103","866697","0.0-103.0","1920x1080","","3907.2999999970198","43.52","img/314/3.5/0.66667/bw/001.png","","","natural"
"","","","","","animation","104","869544","0.0-104.0","1920x1080","","2846.7000000029802","61.11","img/314/2.5/2/bw/001.png","","","natural"
"","","","","","animation","105","872289","0.0-105.0","1920x1080","","2744.2999999970198","71.96","img/117/2.5/1.5/bw/001.png","","","natural"
"","","","","","animation","106","875423","0.0-106.0","1920x1080","","3133.3999999910593","78.04","img/314/4.5/2/bw/001.png","","","natural"
"","","","","","animation","107","877588","0.0-107.0","1920x1080","","2163.2999999970198","35.85","img/314/3.5/0.5/bw/001.png","","","natural"
"","","","","","animation","108","880544","0.0-108.0","1920x1080","","2955.5","91.27","img/314/5.5/1.5/bw/001.png","","","natural"
"","","","","","animation","109","882921","0.0-109.0","1920x1080","","2375.6000000089407","70.24","img/238/4.5/0.66667/bw/001.png","","","natural"
"","","","","","animation","110","888096","0.0-110.0","1920x1080","","5173.899999991059","39.42","img/238/3.5/0.66667/bw/001.png","","","natural"
"","","","","","animation","111","890296","0.0-111.0","1920x1080","","2199.2999999970198","49.34","img/238/4.5/0.5/bw/001.png","","","natural"
"","","","","","animation","112","892239","0.0-112.0","1920x1080","","1942.5","59.26","img/314/4.5/1.5/bw/001.png","","","natural"
"","","","","","animation","113","894328","0.0-113.0","1920x1080","","2087.5","63.10","img/238/4.5/1/bw/001.png","","","natural"
"","","","","","animation","114","897016","0.0-114.0","1920x1080","","2687.2000000029802","64.95","img/117/4.5/0.5/bw/001.png","","","natural"
"","","","","","animation","115","901000","0.0-115.0","1920x1080","","3983.1000000089407","75.79","img/117/4.5/2/bw/001.png","","","natural"
"","","","","","animation","116","903007","0.0-116.0","1920x1080","","2006.5","36.38","img/314/4/0.5/bw/001.png","","","natural"
"","","","","","animation","117","905264","0.0-117.0","1920x1080","","2255.7999999970198","16.80","img/238/2.5/0.5/bw/001.png","","","natural"
"","","","","","animation","118","908223","0.0-118.0","1920x1080","","2958.5","87.96","img/117/5.5/2/bw/001.png","","","natural"
"","","","","","animation","119","911896","0.0-119.0","1920x1080","","3671.0999999940395","61.38","img/314/2.5/1.5/bw/001.png","","","natural"
"","","","","","animation","120","914521","0.0-120.0","1920x1080","","2624.1000000089407","67.59","img/238/3.5/1/bw/001.png","","","natural"
"","","","","","animation","121","918816","0.0-121.0","1920x1080","","4294.5","63.10","img/117/2.5/2/bw/001.png","","","natural"
"","","","","","animation","122","921560","0.0-122.0","1920x1080","","2743.0999999940395","96","img/238/5.5/1/bw/001.png","","","natural"
"","","","","","animation","123","924264","0.0-123.0","1920x1080","","2703.0999999940395","97","img/117/5.5/1.5/bw/001.png","","","natural"
"","","","","","animation","124","931411","0.0-124.0","1920x1080","","7142.79999999702","88.10","img/314/4/2/bw/001.png","","","natural"
"","","","","","animation","125","948683","0.0-125.0","1920x1080","","17271.39999999106","68","img/238/4/1.5/bw/001.png","","","natural"
"","","","","","animation","126","951276","0.0-126.0","1920x1080","","2592.2000000029802","74.74","img/314/4.5/1/bw/001.png","","","natural"
"","","","","","animation","127","953707","0.0-127.0","1920x1080","","2429.7000000029802","54.89","img/238/4/0.5/bw/001.png","","","natural"
"","","","","","animation","128","955540","0.0-128.0","1920x1080","","1832.4000000059605","89.55","img/314/5.5/1/bw/001.png","","","natural"
"","","","","","animation","129","961211","0.0-129.0","1920x1080","","5670","91.93","img/314/5.5/2/bw/001.png","","","natural"
"","","","","","animation","130","978524","0.0-130.0","1920x1080","","17311.89999999106","78.84","img/117/4/2/bw/001.png","","","natural"
"","","","","","animation","131","983843","0.0-131.0","1920x1080","","5318","59.79","img/117/2.5/1/bw/001.png","","","natural"
"","","","","","animation","132","986267","0.0-132.0","1920x1080","","2423.2999999970198","99","img/238/5.5/2/bw/001.png","","","natural"
"","","","","","animation","133","989011","0.0-133.0","1920x1080","","2742.5999999940395","87.70","img/117/5.5/0.5/bw/001.png","","","natural"
"","","","","","animation","134","991098","0.0-134.0","1920x1080","","2087.5","64.29","img/117/4/0.66667/bw/001.png","","","natural"
"","","","","","animation","135","993489","0.0-135.0","1920x1080","","2390.6000000089407","69.05","img/314/3.5/2/bw/001.png","","","natural"
"","","","","","animation","136","996939","0.0-136.0","1920x1080","","3448.7999999970198","50","img/117/4/0.5/bw/001.png","","","natural"
"","","","","","animation","137","998929","0.0-137.0","1920x1080","","1989.5999999940395","55.42","img/314/4/0.66667/bw/001.png","","","natural"
"","","","","","animation","138","1002659","0.0-138.0","1920x1080","","3727.9000000059605","47","img/238/4/0.66667/bw/001.png","","","natural"
"","","","","","animation","139","1005098","0.0-139.0","1920x1080","","2438.0999999940395","28.84","img/314/2.5/0.66667/bw/001.png","","","natural"
"","","","","","animation","140","1006991","0.0-140.0","1920x1080","","1892","20.24","img/117/3.5/1/bw/001.png","","","natural"
"","","","","","animation","141","1009993","0.0-141.0","1920x1080","","3001.8999999910593","9.13","img/117/2.5/0.5/bw/001.png","","","natural"
"","","","","","animation","142","1015206","0.0-142.0","1920x1080","","5211.600000008941","47.75","img/238/4/1/bw/001.png","","","natural"
"","","","","","animation","143","1019273","0.0-143.0","1920x1080","","4066.2999999970198","47.62","img/117/4/1/bw/001.png","","","natural"
"","","","","","animation","144","1027657","0.0-144.0","1920x1080","","8383.09999999404","83.20","img/314/5.5/0.5/bw/001.png","","","natural"
"","","","","","animation","145","1034939","0.0-145.0","1920x1080","","7280.70000000298","61.64","img/314/3.5/1/bw/001.png","","","natural"
"","","","","","animation","146","1043282","0.0-146.0","1920x1080","","8342.10000000894","67.20","img/117/5.5/0.66667/bw/001.png","","","natural"
"","","","","","animation","147","1060960","0.0-147.0","1920x1080","","17678.69999998808","49.07","img/314/4/1/bw/001.png","","","natural"
"","","","","","animation","148","1065224","0.0-148.0","1920x1080","","4262.20000000298","75","img/117/4.5/1.5/bw/001.png","","","natural"
"","","","","","animation","149","1068696","0.0-149.0","1920x1080","","3471.3999999910593","71.30","img/314/3.5/1.5/bw/001.png","","","natural"
"","","","","","animation","150","1072170","0.0-150.0","1920x1080","","3473.5","96","img/238/4.5/1.5/bw/001.png","","","natural"
"","","","","","animation","151","1076537","0.0-151.0","1920x1080","","4365.5","15.48","img/238/2.5/1/bw/001.png","","","natural"
"","","","","","animation","152","1080480","0.0-152.0","1920x1080","","3942","90.87","img/117/4.5/1/bw/001.png","","","natural"
"","","","","","animation","153","1083496","0.0-153.0","1920x1080","","3014.5","98","img/314/5.5/0.66667/bw/001.png","","","natural"
"","","","","","animation","154","1087112","0.0-154.0","1920x1080","","3614.7999999970198","71.30","img/117/4/1.5/bw/001.png","","","natural"
"","","","","","animation","155","1091121","0.0-155.0","1920x1080","","4007.5999999940395","97","img/238/5.5/0.66667/bw/001.png","","","natural"
"","","","","","animation","156","1095344","0.0-156.0","1920x1080","","4221.699999988079","20.90","img/117/3.5/0.5/bw/001.png","","","natural"
"","","","","","animation","157","1098440","0.0-157.0","1920x1080","","3094.2999999970198","17.46","img/117/3.5/2/bw/001.png","","","natural"
"","","","","","animation","158","1101176","0.0-158.0","1920x1080","","2735.2999999970198","96","img/238/5.5/1.5/bw/001.png","","","natural"
"","","","","","html-button-response","159","1125513","0.0-159.0","1920x1080","","24329.29999999702","","<div class=""intro"">You are about to view a new series of animations.<br><br></div><div class=""intro"">You will evaluate them based on a different descriptor.<br><br></div><div class=""intro"">Move the slider to indicate how <strong style=""text-transform:capitalize"">APPEALING</strong> you find each animation.<br><br></div><div class=""intro"">0 = Least Appealing<br></div><div class=""intro"">1 = Most Appealing<br><br></div><div class=""intro"">Remember to use the <strong><em>entire range</em></strong> of the slider to make your ratings.<br></div><div class=""intro"">Please <strong><em>take your time</em></strong> and carefully consider each rating you make.<br><br></div>","0","",""
"","","","","","call-function","160","1125515","0.0-160.0","1920x1080","","","","","","",""
"","","","","","animation","161","1132827","0.0-161.0","1920x1080","","7311","2.65","img/238/2.5/1.5/bw/001.png","","","appealing"
"","","","","","animation","162","1135566","0.0-162.0","1920x1080","","2738.2999999970198","50.93","img/117/4.5/0.66667/bw/001.png","","","appealing"
"","","","","","animation","163","1138262","0.0-163.0","1920x1080","","2694.5999999940395","59.26","img/238/3.5/2/bw/001.png","","","appealing"
"","","","","","animation","164","1140377","0.0-164.0","1920x1080","","2113.5999999940395","72.49","img/314/4.5/1.5/bw/001.png","","","appealing"
"","","","","","animation","165","1142054","0.0-165.0","1920x1080","","1677","32.67","img/117/3.5/1/bw/001.png","","","appealing"
"","","","","","animation","166","1144686","0.0-166.0","1920x1080","","2630.7999999970198","36.90","img/117/3.5/2/bw/001.png","","","appealing"
"","","","","","animation","167","1148627","0.0-167.0","1920x1080","","3939.4000000059605","21.69","img/117/2.5/2/bw/001.png","","","appealing"
"","","","","","animation","168","1151414","0.0-168.0","1920x1080","","2786.5","12.17","img/238/3.5/0.5/bw/001.png","","","appealing"
"","","","","","animation","169","1153798","0.0-169.0","1920x1080","","2383","8.60","img/238/2.5/1/bw/001.png","","","appealing"
"","","","","","animation","170","1156160","0.0-170.0","1920x1080","","2359.1000000089407","98","img/238/5.5/1.5/bw/001.png","","","appealing"
"","","","","","animation","171","1159870","0.0-171.0","1920x1080","","3709.2999999970198","29.37","img/314/3.5/0.5/bw/001.png","","","appealing"
"","","","","","animation","172","1162798","0.0-172.0","1920x1080","","2926.7999999970198","99","img/117/5.5/2/bw/001.png","","","appealing"
"","","","","","animation","173","1204689","0.0-173.0","1920x1080","","41895","98","img/314/5.5/0.66667/bw/001.png","","","appealing"
"","","","","","animation","174","1233770","0.0-174.0","1920x1080","","29076.89999999106","62.17","img/117/4/1.5/bw/001.png","","","appealing"
"","","","","","animation","175","1235728","0.0-175.0","1920x1080","","1956.699999988079","48.81","img/314/3.5/1.5/bw/001.png","","","appealing"
"","","","","","animation","176","1240008","0.0-176.0","1920x1080","","4279","82.80","img/314/5.5/0.5/bw/001.png","","","appealing"
"","","","","","animation","177","1243864","0.0-177.0","1920x1080","","3855.4000000059605","68.39","img/314/4/1.5/bw/001.png","","","appealing"
"","","","","","animation","178","1248737","0.0-178.0","1920x1080","","4871","69.18","img/238/4/2/bw/001.png","","","appealing"
"","","","","","animation","179","1261160","0.0-179.0","1920x1080","","12421.90000000596","62.70","img/238/4.5/0.66667/bw/001.png","","","appealing"
"","","","","","animation","180","1272503","0.0-180.0","1920x1080","","11342.60000000894","84.79","img/314/5.5/1/bw/001.png","","","appealing"
"","","","","","animation","181","1281655","0.0-181.0","1920x1080","","9147.79999999702","43.25","img/238/4/1/bw/001.png","","","appealing"
"","","","","","animation","182","1284208","0.0-182.0","1920x1080","","2551.2999999970198","28.04","img/238/3.5/1.5/bw/001.png","","","appealing"
"","","","","","animation","183","1287639","0.0-183.0","1920x1080","","3430.4000000059605","7.01","img/117/2.5/1/bw/001.png","","","appealing"
"","","","","","animation","184","1305146","0.0-184.0","1920x1080","","17503.20000000298","65.08","img/314/4/2/bw/001.png","","","appealing"
"","","","","","animation","185","1308419","0.0-185.0","1920x1080","","3271.5999999940395","64.68","img/238/3.5/1/bw/001.png","","","appealing"
"","","","","","animation","186","1311114","0.0-186.0","1920x1080","","2692.7999999970198","2.51","img/238/2.5/2/bw/001.png","","","appealing"
"","","","","","animation","187","1315206","0.0-187.0","1920x1080","","4090.300000011921","96","img/238/5.5/2/bw/001.png","","","appealing"
"","","","","","animation","188","1317626","0.0-188.0","1920x1080","","2419.4000000059605","78.44","img/238/4.5/1.5/bw/001.png","","","appealing"
"","","","","","animation","189","1321222","0.0-189.0","1920x1080","","3594.7999999970198","2","img/238/2.5/0.5/bw/001.png","","","appealing"
"","","","","","animation","190","1326373","0.0-190.0","1920x1080","","5149.699999988079","30.03","img/238/4/0.66667/bw/001.png","","","appealing"
"","","","","","animation","191","1328957","0.0-191.0","1920x1080","","2582.699999988079","41.53","img/117/4.5/1/bw/001.png","","","appealing"
"","","","","","animation","192","1333362","0.0-192.0","1920x1080","","4404.399999991059","88","img/117/5.5/1.5/bw/001.png","","","appealing"
"","","","","","animation","193","1347605","0.0-193.0","1920x1080","","14242","71.30","img/314/4.5/1/bw/001.png","","","appealing"
"","","","","","animation","194","1350256","0.0-194.0","1920x1080","","2649.2000000029802","20.77","img/314/4/0.66667/bw/001.png","","","appealing"
"","","","","","animation","195","1371620","0.0-195.0","1920x1080","","21365.5","33.20","img/238/4.5/0.5/bw/001.png","","","appealing"
"","","","","","animation","196","1374755","0.0-196.0","1920x1080","","3132.2999999970198","41.93","img/117/3.5/1.5/bw/001.png","","","appealing"
"","","","","","animation","197","1400737","0.0-197.0","1920x1080","","25980.29999999702","39.68","img/314/4.5/0.5/bw/001.png","","","appealing"
"","","","","","animation","198","1413470","0.0-198.0","1920x1080","","12729.699999988079","81.61","img/238/5.5/1/bw/001.png","","","appealing"
"","","","","","animation","199","1416653","0.0-199.0","1920x1080","","3179.699999988079","58.07","img/117/4/2/bw/001.png","","","appealing"
"","","","","","animation","200","1421792","0.0-200.0","1920x1080","","5138.0999999940395","93.25","img/238/5.5/0.66667/bw/001.png","","","appealing"
"","","","","","animation","201","1435021","0.0-201.0","1920x1080","","13226.70000000298","28.84","img/314/3.5/0.66667/bw/001.png","","","appealing"
"","","","","","animation","202","1440856","0.0-202.0","1920x1080","","5834.100000008941","80.42","img/117/5.5/1/bw/001.png","","","appealing"
"","","","","","animation","203","1455712","0.0-203.0","1920x1080","","14855.20000000298","39.55","img/238/4/0.5/bw/001.png","","","appealing"
"","","","","","animation","204","1458187","0.0-204.0","1920x1080","","2472.6000000089407","59.13","img/314/4.5/2/bw/001.png","","","appealing"
"","","","","","animation","205","1460853","0.0-205.0","1920x1080","","2665.2999999970198","27.38","img/238/3.5/0.66667/bw/001.png","","","appealing"
"","","","","","animation","206","1464187","0.0-206.0","1920x1080","","3333.0999999940395","2.38","img/314/2.5/0.5/bw/001.png","","","appealing"
"","","","","","animation","207","1466944","0.0-207.0","1920x1080","","2756.2000000029802","0","img/117/2.5/0.66667/bw/001.png","","","appealing"
"","","","","","animation","208","1470370","0.0-208.0","1920x1080","","3424.2000000029802","43.92","img/314/3.5/2/bw/001.png","","","appealing"
"","","","","","animation","209","1472705","0.0-209.0","1920x1080","","2334.9000000059605","11.51","img/117/3.5/0.5/bw/001.png","","","appealing"
"","","","","","animation","210","1475136","0.0-210.0","1920x1080","","2430.6000000089407","1.98","img/117/2.5/0.5/bw/001.png","","","appealing"
"","","","","","animation","211","1479944","0.0-211.0","1920x1080","","4805.79999999702","23","img/117/2.5/1.5/bw/001.png","","","appealing"
"","","","","","animation","212","1481808","0.0-212.0","1920x1080","","1862.7000000029802","71.03","img/117/4.5/2/bw/001.png","","","appealing"
"","","","","","animation","213","1484852","0.0-213.0","1920x1080","","3043.7000000029802","45.63","img/238/4.5/1/bw/001.png","","","appealing"
"","","","","","animation","214","1488392","0.0-214.0","1920x1080","","3538.0999999940395","34.66","img/314/2.5/2/bw/001.png","","","appealing"
"","","","","","animation","215","1491344","0.0-215.0","1920x1080","","2950.8999999910593","29.50","img/117/4/0.66667/bw/001.png","","","appealing"
"","","","","","animation","216","1493219","0.0-216.0","1920x1080","","1873.5999999940395","4.89","img/314/2.5/0.66667/bw/001.png","","","appealing"
"","","","","","animation","217","1495852","0.0-217.0","1920x1080","","2632.7999999970198","84.26","img/238/5.5/0.5/bw/001.png","","","appealing"
"","","","","","animation","218","1498570","0.0-218.0","1920x1080","","2716.4000000059605","33","img/314/4/0.5/bw/001.png","","","appealing"
"","","","","","animation","219","1501219","0.0-219.0","1920x1080","","2648","66.14","img/117/5.5/0.5/bw/001.png","","","appealing"
"","","","","","animation","220","1504023","0.0-220.0","1920x1080","","2803","58.20","img/238/4.5/2/bw/001.png","","","appealing"
"","","","","","animation","221","1506252","0.0-221.0","1920x1080","","2226.8999999910593","26.85","img/117/3.5/0.66667/bw/001.png","","","appealing"
"","","","","","animation","222","1508853","0.0-222.0","1920x1080","","2599.5","18.92","img/314/3.5/1/bw/001.png","","","appealing"
"","","","","","animation","223","1511503","0.0-223.0","1920x1080","","2649.4000000059605","72.75","img/117/5.5/0.66667/bw/001.png","","","appealing"
"","","","","","animation","224","1513535","0.0-224.0","1920x1080","","2030.6000000089407","52.78","img/117/4.5/1.5/bw/001.png","","","appealing"
"","","","","","animation","225","1515386","0.0-225.0","1920x1080","","1849.5","70.63","img/314/5.5/1.5/bw/001.png","","","appealing"
"","","","","","animation","226","1517487","0.0-226.0","1920x1080","","2100.4000000059605","7.14","img/314/2.5/1.5/bw/001.png","","","appealing"
"","","","","","animation","227","1520419","0.0-227.0","1920x1080","","2930.4000000059605","41.27","img/314/4/1/bw/001.png","","","appealing"
"","","","","","animation","228","1522503","0.0-228.0","1920x1080","","2083.2999999970198","44.58","img/314/4.5/0.66667/bw/001.png","","","appealing"
"","","","","","animation","229","1525640","0.0-229.0","1920x1080","","3135.3999999910593","88.76","img/314/5.5/2/bw/001.png","","","appealing"
"","","","","","animation","230","1528086","0.0-230.0","1920x1080","","2445","10.98","img/314/2.5/1/bw/001.png","","","appealing"
"","","","","","animation","231","1530374","0.0-231.0","1920x1080","","2286.7000000029802","67.46","img/238/4/1.5/bw/001.png","","","appealing"
"","","","","","animation","232","1533053","0.0-232.0","1920x1080","","2677.5","49.87","img/117/4/1/bw/001.png","","","appealing"
"","","","","","animation","233","1535312","0.0-233.0","1920x1080","","2257.7999999970198","35.19","img/117/4/0.5/bw/001.png","","","appealing"
"","","","","","animation","234","1537669","0.0-234.0","1920x1080","","2356.5","38.10","img/117/4.5/0.5/bw/001.png","","","appealing"
"","","","","","animation","235","1541886","0.0-235.0","1920x1080","","4216.20000000298","2.51","img/238/2.5/0.66667/bw/001.png","","","appealing"
"","","","","","html-button-response","236","1561112","0.0-236.0","1920x1080","","19224.70000000298","","<div class=""intro"">You are about to view a new series of animations.<br><br></div><div class=""intro"">You will evaluate them based on a different descriptor.<br><br></div><div class=""intro"">Move the slider to indicate how <strong style=""text-transform:capitalize"">INTERESTING</strong> you find each animation.<br><br></div><div class=""intro"">0 = Least Interesting<br></div><div class=""intro"">1 = Most Interesting<br><br></div><div class=""intro"">Remember to use the <strong><em>entire range</em></strong> of the slider to make your ratings.<br></div><div class=""intro"">Please <strong><em>take your time</em></strong> and carefully consider each rating you make.<br><br></div>","0","",""
"","","","","","call-function","237","1561113","0.0-237.0","1920x1080","","","","","","",""
"","","","","","animation","238","1565436","0.0-238.0","1920x1080","","4322.4000000059605","89.68","img/117/4.5/0.5/bw/001.png","","","interesting"
"","","","","","animation","239","1574703","0.0-239.0","1920x1080","","9266.10000000894","33.86","img/117/5.5/0.5/bw/001.png","","","interesting"
"","","","","","animation","240","1581302","0.0-240.0","1920x1080","","6598","78.57","img/117/3.5/0.66667/bw/001.png","","","interesting"
"","","","","","animation","241","1584252","0.0-241.0","1920x1080","","2946.0999999940395","92.59","img/117/4.5/2/bw/001.png","","","interesting"
"","","","","","animation","242","1591421","0.0-242.0","1920x1080","","7165.79999999702","21.69","img/238/5.5/1/bw/001.png","","","interesting"
"","","","","","animation","243","1595058","0.0-243.0","1920x1080","","3635.2000000029802","77.51","img/238/4/0.66667/bw/001.png","","","interesting"
"","","","","","animation","244","1598490","0.0-244.0","1920x1080","","3430.5999999940395","89.29","img/314/5.5/1/bw/001.png","","","interesting"
"","","","","","animation","245","1600638","0.0-245.0","1920x1080","","2147.300000011921","3.70","img/238/2.5/0.5/bw/001.png","","","interesting"
"","","","","","animation","246","1604122","0.0-246.0","1920x1080","","3482.2000000029802","100","img/117/5.5/1.5/bw/001.png","","","interesting"
"","","","","","animation","247","1608337","0.0-247.0","1920x1080","","4214.600000008941","80.69","img/117/4.5/0.66667/bw/001.png","","","interesting"
"","","","","","animation","248","1615737","0.0-248.0","1920x1080","","7398.79999999702","88.10","img/238/4/2/bw/001.png","","","interesting"
"","","","","","animation","249","1633058","0.0-249.0","1920x1080","","17318.79999999702","59.13","img/117/3.5/1/bw/001.png","","","interesting"
"","","","","","animation","250","1636194","0.0-250.0","1920x1080","","3135.2999999970198","61.90","img/117/3.5/0.5/bw/001.png","","","interesting"
"","","","","","animation","251","1640088","0.0-251.0","1920x1080","","3892.4000000059605","80.42","img/238/5.5/1.5/bw/001.png","","","interesting"
"","","","","","animation","252","1642690","0.0-252.0","1920x1080","","2600.7000000029802","85.58","img/238/5.5/0.66667/bw/001.png","","","interesting"
"","","","","","animation","253","1652519","0.0-253.0","1920x1080","","9830.20000000298","91.80","img/117/4.5/1.5/bw/001.png","","","interesting"
"","","","","","animation","254","1656871","0.0-254.0","1920x1080","","4348.29999999702","30.82","img/314/5.5/0.66667/bw/001.png","","","interesting"
"","","","","","animation","255","1663269","0.0-255.0","1920x1080","","6396.20000000298","69.31","img/238/4.5/1.5/bw/001.png","","","interesting"
"","","","","","animation","256","1667055","0.0-256.0","1920x1080","","3785.3999999910593","51.72","img/314/3.5/0.5/bw/001.png","","","interesting"
"","","","","","animation","257","1673719","0.0-257.0","1920x1080","","6662.70000000298","47.75","img/238/4/1/bw/001.png","","","interesting"
"","","","","","animation","258","1680208","0.0-258.0","1920x1080","","6487.5","69.58","img/117/5.5/0.66667/bw/001.png","","","interesting"
"","","","","","animation","259","1686007","0.0-259.0","1920x1080","","5798.5","8.86","img/314/5.5/2/bw/001.png","","","interesting"
"","","","","","animation","260","1690202","0.0-260.0","1920x1080","","4193.0999999940395","76.72","img/314/4/0.66667/bw/001.png","","","interesting"
"","","","","","animation","261","1693423","0.0-261.0","1920x1080","","3220.4000000059605","0.93","img/314/2.5/1.5/bw/001.png","","","interesting"
"","","","","","animation","262","1696687","0.0-262.0","1920x1080","","3262.3999999910593","94","img/117/5.5/1/bw/001.png","","","interesting"
"","","","","","animation","263","1726671","0.0-263.0","1920x1080","","29982.70000000298","64.95","img/238/3.5/1/bw/001.png","","","interesting"
"","","","","","animation","264","1730302","0.0-264.0","1920x1080","","3629.300000011921","2.38","img/117/2.5/0.66667/bw/001.png","","","interesting"
"","","","","","animation","265","1734503","0.0-265.0","1920x1080","","4199.399999991059","83.33","img/314/3.5/1.5/bw/001.png","","","interesting"
"","","","","","animation","266","1738802","0.0-266.0","1920x1080","","4297.100000008941","14.55","img/117/2.5/1/bw/001.png","","","interesting"
"","","","","","animation","267","1745852","0.0-267.0","1920x1080","","7048.600000008941","86.90","img/314/5.5/0.5/bw/001.png","","","interesting"
"","","","","","animation","268","1755719","0.0-268.0","1920x1080","","9866.29999999702","4.76","img/314/2.5/0.5/bw/001.png","","","interesting"
"","","","","","animation","269","1768568","0.0-269.0","1920x1080","","12847.20000000298","42","img/238/3.5/2/bw/001.png","","","interesting"
"","","","","","animation","270","1771871","0.0-270.0","1920x1080","","3301.7000000029802","63.23","img/314/4.5/1.5/bw/001.png","","","interesting"
"","","","","","animation","271","1784085","0.0-271.0","1920x1080","","12212.40000000596","39","img/238/3.5/1.5/bw/001.png","","","interesting"
"","","","","","animation","272","1806935","0.0-272.0","1920x1080","","22849.20000000298","71.83","img/117/4.5/1/bw/001.png","","","interesting"
"","","","","","animation","273","1812368","0.0-273.0","1920x1080","","5431","60.05","img/314/4.5/1/bw/001.png","","","interesting"
"","","","","","animation","274","1822268","0.0-274.0","1920x1080","","9897.29999999702","66.27","img/314/4.5/2/bw/001.png","","","interesting"
"","","","","","animation","275","1833937","0.0-275.0","1920x1080","","11665.60000000894","54.63","img/238/4.5/0.66667/bw/001.png","","","interesting"
"","","","","","animation","276","1837826","0.0-276.0","1920x1080","","3887.5","91.14","img/238/5.5/0.5/bw/001.png","","","interesting"
"","","","","","animation","277","1841858","0.0-277.0","1920x1080","","4030.6000000089407","90","img/314/5.5/1.5/bw/001.png","","","interesting"
"","","","","","animation","278","1845642","0.0-278.0","1920x1080","","3782.7999999970198","81.08","img/314/3.5/1/bw/001.png","","","interesting"
"","","","","","animation","279","1848089","0.0-279.0","1920x1080","","2446.300000011921","86.77","img/238/4/1.5/bw/001.png","","","interesting"
"","","","","","animation","280","1852970","0.0-280.0","1920x1080","","4879.5","73.81","img/117/3.5/1.5/bw/001.png","","","interesting"
"","","","","","animation","281","1856737","0.0-281.0","1920x1080","","3765.5999999940395","51.59","img/314/4/0.5/bw/001.png","","","interesting"
"","","","","","animation","282","1859289","0.0-282.0","1920x1080","","2551.2000000029802","3.17","img/314/2.5/2/bw/001.png","","","interesting"
"","","","","","animation","283","1863386","0.0-283.0","1920x1080","","4095.6000000089407","69","img/314/4/2/bw/001.png","","","interesting"
"","","","","","animation","284","1865994","0.0-284.0","1920x1080","","2606.1000000089407","7.01","img/238/2.5/1.5/bw/001.png","","","interesting"
"","","","","","animation","285","1868628","0.0-285.0","1920x1080","","2632.9000000059605","1.72","img/117/2.5/0.5/bw/001.png","","","interesting"
"","","","","","animation","286","1871820","0.0-286.0","1920x1080","","3188.3999999910593","3.70","img/314/2.5/0.66667/bw/001.png","","","interesting"
"","","","","","animation","287","1875858","0.0-287.0","1920x1080","","4036.2000000029802","52","img/238/4.5/0.5/bw/001.png","","","interesting"
"","","","","","animation","288","1879753","0.0-288.0","1920x1080","","3894.5","69.71","img/314/3.5/0.66667/bw/001.png","","","interesting"
"","","","","","animation","289","1882442","0.0-289.0","1920x1080","","2686.5999999940395","85.45","img/238/4/0.5/bw/001.png","","","interesting"
"","","","","","animation","290","1884721","0.0-290.0","1920x1080","","2278.3999999910593","4.37","img/314/2.5/1/bw/001.png","","","interesting"
"","","","","","animation","291","1920753","0.0-291.0","1920x1080","","36030.90000000596","48.81","img/117/4/1/bw/001.png","","","interesting"
"","","","","","animation","292","1923689","0.0-292.0","1920x1080","","2934.6000000089407","64.15","img/117/4/0.66667/bw/001.png","","","interesting"
"","","","","","animation","293","1926853","0.0-293.0","1920x1080","","3162.800000011921","41.40","img/117/4/0.5/bw/001.png","","","interesting"
"","","","","","animation","294","1929521","0.0-294.0","1920x1080","","2666.800000011921","81.75","img/314/3.5/2/bw/001.png","","","interesting"
"","","","","","animation","295","1932393","0.0-295.0","1920x1080","","2871","12.96","img/238/2.5/1/bw/001.png","","","interesting"
"","","","","","animation","296","1935225","0.0-296.0","1920x1080","","2830.2999999970198","31.75","img/238/3.5/0.66667/bw/001.png","","","interesting"
"","","","","","animation","297","1940546","0.0-297.0","1920x1080","","5319.699999988079","82.80","img/238/4.5/1/bw/001.png","","","interesting"
"","","","","","animation","298","1942713","0.0-298.0","1920x1080","","2165.2000000029802","72.62","img/314/4.5/0.5/bw/001.png","","","interesting"
"","","","","","animation","299","1948420","0.0-299.0","1920x1080","","5705.29999999702","7","img/117/2.5/2/bw/001.png","","","interesting"
"","","","","","animation","300","1954001","0.0-300.0","1920x1080","","5580.70000000298","33.47","img/314/4/1/bw/001.png","","","interesting"
"","","","","","animation","301","1960872","0.0-301.0","1920x1080","","6869.5","31","img/314/4/1.5/bw/001.png","","","interesting"
"","","","","","animation","302","1970752","0.0-302.0","1920x1080","","9878.39999999106","36","img/117/5.5/2/bw/001.png","","","interesting"
"","","","","","animation","303","1974302","0.0-303.0","1920x1080","","3548.5","22.22","img/238/4.5/2/bw/001.png","","","interesting"
"","","","","","animation","304","1980856","0.0-304.0","1920x1080","","6552.800000011921","7","img/238/2.5/0.66667/bw/001.png","","","interesting"
"","","","","","animation","305","1983985","0.0-305.0","1920x1080","","3125.7999999970198","3.57","img/117/2.5/1.5/bw/001.png","","","interesting"
"","","","","","animation","306","1987824","0.0-306.0","1920x1080","","3838.5","35.45","img/238/5.5/2/bw/001.png","","","interesting"
"","","","","","animation","307","2003569","0.0-307.0","1920x1080","","15743","37","img/117/3.5/2/bw/001.png","","","interesting"
"","","","","","animation","308","2011700","0.0-308.0","1920x1080","","8131.5999999940395","42.46","img/238/3.5/0.5/bw/001.png","","","interesting"
"","","","","","animation","309","2017000","0.0-309.0","1920x1080","","5297.699999988079","3.04","img/238/2.5/2/bw/001.png","","","interesting"
"","","","","","animation","310","2020321","0.0-310.0","1920x1080","","3319.5","70.77","img/117/4/1.5/bw/001.png","","","interesting"
"","","","","","animation","311","2022333","0.0-311.0","1920x1080","","2010.8999999910593","72.75","img/117/4/2/bw/001.png","","","interesting"
"","","","","","animation","312","2033918","0.0-312.0","1920x1080","","11583.10000000894","64.15","img/314/4.5/0.66667/bw/001.png","","","interesting"
"","","","","","html-button-response","313","2059170","0.0-313.0","1920x1080","","25249.90000000596","","<div class=""intro"">You are about to view a new series of animations.<br><br></div><div class=""intro"">You will evaluate them based on a different descriptor.<br><br></div><div class=""intro"">Move the slider to indicate how <strong style=""text-transform:capitalize"">RELAXING</strong> you find each animation.<br><br></div><div class=""intro"">0 = Least Relaxing<br></div><div class=""intro"">1 = Most Relaxing<br><br></div><div class=""intro"">Remember to use the <strong><em>entire range</em></strong> of the slider to make your ratings.<br></div><div class=""intro"">Please <strong><em>take your time</em></strong> and carefully consider each rating you make.<br><br></div>","0","",""
"","","","","","call-function","314","2059174","0.0-314.0","1920x1080","","","","","","",""
"","","","","","animation","315","2073292","0.0-315.0","1920x1080","","14113.79999999702","25","img/314/4/0.5/bw/001.png","","","relaxing"
"","","","","","animation","316","2076594","0.0-316.0","1920x1080","","3300.2000000029802","94.58","img/238/2.5/2/bw/001.png","","","relaxing"
"","","","","","animation","317","2079870","0.0-317.0","1920x1080","","3274.7000000029802","83.20","img/238/3.5/1.5/bw/001.png","","","relaxing"
"","","","","","animation","318","2083754","0.0-318.0","1920x1080","","3881.7999999970198","56.61","img/117/5.5/0.5/bw/001.png","","","relaxing"
"","","","","","animation","319","2086620","0.0-319.0","1920x1080","","2865.2000000029802","9.66","img/238/3.5/0.66667/bw/001.png","","","relaxing"
"","","","","","animation","320","2094287","0.0-320.0","1920x1080","","7665.29999999702","61","img/314/2.5/1.5/bw/001.png","","","relaxing"
"","","","","","animation","321","2096853","0.0-321.0","1920x1080","","2565.4000000059605","69.84","img/238/3.5/2/bw/001.png","","","relaxing"
"","","","","","animation","322","2099220","0.0-322.0","1920x1080","","2365.4000000059605","88.36","img/117/4.5/2/bw/001.png","","","relaxing"
"","","","","","animation","323","2102142","0.0-323.0","1920x1080","","2920.3999999910593","1.72","img/238/2.5/0.66667/bw/001.png","","","relaxing"
"","","","","","animation","324","2105997","0.0-324.0","1920x1080","","3854.0999999940395","9.52","img/117/4/0.5/bw/001.png","","","relaxing"
"","","","","","animation","325","2108420","0.0-325.0","1920x1080","","2421.2999999970198","74.74","img/117/3.5/2/bw/001.png","","","relaxing"
"","","","","","animation","326","2110987","0.0-326.0","1920x1080","","2565.2999999970198","22.88","img/238/4/0.66667/bw/001.png","","","relaxing"
"","","","","","animation","327","2123043","0.0-327.0","1920x1080","","12054.79999999702","44.71","img/238/4.5/1/bw/001.png","","","relaxing"
"","","","","","animation","328","2134852","0.0-328.0","1920x1080","","11814.40000000596","30.95","img/117/3.5/1/bw/001.png","","","relaxing"
"","","","","","animation","329","2137299","0.0-329.0","1920x1080","","2445.0999999940395","32.80","img/238/4.5/0.66667/bw/001.png","","","relaxing"
"","","","","","animation","330","2142180","0.0-330.0","1920x1080","","4879.5999999940395","61.51","img/238/5.5/0.5/bw/001.png","","","relaxing"
"","","","","","animation","331","2146206","0.0-331.0","1920x1080","","4025","33.47","img/238/4.5/1.5/bw/001.png","","","relaxing"
"","","","","","animation","332","2154531","0.0-332.0","1920x1080","","8323.300000011921","59.79","img/238/2.5/1/bw/001.png","","","relaxing"
"","","","","","animation","333","2157013","0.0-333.0","1920x1080","","2480.9000000059605","23.68","img/238/4.5/0.5/bw/001.png","","","relaxing"
"","","","","","animation","334","2160036","0.0-334.0","1920x1080","","3021.0999999940395","40.48","img/238/3.5/1/bw/001.png","","","relaxing"
"","","","","","animation","335","2169020","0.0-335.0","1920x1080","","8982","41.53","img/314/4.5/0.5/bw/001.png","","","relaxing"
"","","","","","animation","336","2172268","0.0-336.0","1920x1080","","3246","56.35","img/117/2.5/1/bw/001.png","","","relaxing"
"","","","","","animation","337","2179867","0.0-337.0","1920x1080","","7598.5999999940395","54.10","img/117/4/0.66667/bw/001.png","","","relaxing"
"","","","","","animation","338","2183207","0.0-338.0","1920x1080","","3337.7000000029802","77.91","img/238/4/2/bw/001.png","","","relaxing"
"","","","","","animation","339","2187687","0.0-339.0","1920x1080","","4477.899999991059","91.53","img/117/5.5/1.5/bw/001.png","","","relaxing"
"","","","","","animation","340","2216228","0.0-340.0","1920x1080","","28539.5","65.48","img/117/4/2/bw/001.png","","","relaxing"
"","","","","","animation","341","2218946","0.0-341.0","1920x1080","","2715.7999999970198","73.94","img/117/5.5/1/bw/001.png","","","relaxing"
"","","","","","animation","342","2227514","0.0-342.0","1920x1080","","8566.60000000894","56.35","img/314/2.5/2/bw/001.png","","","relaxing"
"","","","","","animation","343","2231195","0.0-343.0","1920x1080","","3679.3999999910593","6.22","img/314/2.5/0.66667/bw/001.png","","","relaxing"
"","","","","","animation","344","2247214","0.0-344.0","1920x1080","","16016.60000000894","97","img/117/5.5/2/bw/001.png","","","relaxing"
"","","","","","animation","345","2251882","0.0-345.0","1920x1080","","4659.70000000298","57.14","img/238/2.5/1.5/bw/001.png","","","relaxing"
"","","","","","animation","346","2257913","0.0-346.0","1920x1080","","6030.5","69","img/314/4.5/2/bw/001.png","","","relaxing"
"","","","","","animation","347","2260333","0.0-347.0","1920x1080","","2417.2999999970198","39.15","img/117/4.5/0.66667/bw/001.png","","","relaxing"
"","","","","","animation","348","2263831","0.0-348.0","1920x1080","","3496.7000000029802","12","img/238/4/0.5/bw/001.png","","","relaxing"
"","","","","","animation","349","2266471","0.0-349.0","1920x1080","","2638.2999999970198","16.80","img/314/3.5/0.66667/bw/001.png","","","relaxing"
"","","","","","animation","350","2273215","0.0-350.0","1920x1080","","6742","90.08","img/238/5.5/1/bw/001.png","","","relaxing"
"","","","","","animation","351","2277104","0.0-351.0","1920x1080","","3887","32.67","img/117/4.5/0.5/bw/001.png","","","relaxing"
"","","","","","animation","352","2279822","0.0-352.0","1920x1080","","2716.2999999970198","18.78","img/117/3.5/0.5/bw/001.png","","","relaxing"
"","","","","","animation","353","2288120","0.0-353.0","1920x1080","","8297.199999988079","77","img/238/5.5/0.66667/bw/001.png","","","relaxing"
"","","","","","animation","354","2293031","0.0-354.0","1920x1080","","4908.9000000059605","29.23","img/314/3.5/1/bw/001.png","","","relaxing"
"","","","","","animation","355","2297431","0.0-355.0","1920x1080","","4398.0999999940395","62.57","img/314/4.5/1.5/bw/001.png","","","relaxing"
"","","","","","animation","356","2311810","0.0-356.0","1920x1080","","14365.79999999702","30.95","img/314/4/1/bw/001.png","","","relaxing"
"","","","","","animation","357","2320643","0.0-357.0","1920x1080","","8830.20000000298","83.47","img/314/5.5/0.66667/bw/001.png","","","relaxing"
"","","","","","animation","358","2324877","0.0-358.0","1920x1080","","4232","43.78","img/117/4.5/1.5/bw/001.png","","","relaxing"
"","","","","","animation","359","2332627","0.0-359.0","1920x1080","","7748.600000008941","35.85","img/238/4/1.5/bw/001.png","","","relaxing"
"","","","","","animation","360","2336260","0.0-360.0","1920x1080","","3631.2999999970198","44.31","img/117/4/1/bw/001.png","","","relaxing"
"","","","","","animation","361","2338666","0.0-361.0","1920x1080","","2402.1000000089407","53.31","img/117/5.5/0.66667/bw/001.png","","","relaxing"
"","","","","","animation","362","2345113","0.0-362.0","1920x1080","","6446.0999999940395","27.25","img/314/5.5/2/bw/001.png","","","relaxing"
"","","","","","animation","363","2348954","0.0-363.0","1920x1080","","3837.800000011921","28.84","img/117/2.5/1.5/bw/001.png","","","relaxing"
"","","","","","animation","364","2352462","0.0-364.0","1920x1080","","3505.5999999940395","54.10","img/314/4/2/bw/001.png","","","relaxing"
"","","","","","animation","365","2359110","0.0-365.0","1920x1080","","6646.70000000298","14.95","img/314/4.5/0.66667/bw/001.png","","","relaxing"
"","","","","","animation","366","2362164","0.0-366.0","1920x1080","","3051.8999999910593","50.66","img/314/4/1.5/bw/001.png","","","relaxing"
"","","","","","animation","367","2364810","0.0-367.0","1920x1080","","2643.1000000089407","16.40","img/238/3.5/0.5/bw/001.png","","","relaxing"
"","","","","","animation","368","2367244","0.0-368.0","1920x1080","","2432.0999999940395","21.30","img/117/3.5/1.5/bw/001.png","","","relaxing"
"","","","","","animation","369","2379025","0.0-369.0","1920x1080","","11789.59999999404","61.64","img/314/5.5/0.5/bw/001.png","","","relaxing"
"","","","","","animation","370","2384600","0.0-370.0","1920x1080","","5573.70000000298","58","img/117/4/1.5/bw/001.png","","","relaxing"
"","","","","","animation","371","2386985","0.0-371.0","1920x1080","","2383.699999988079","47.75","img/238/4/1/bw/001.png","","","relaxing"
"","","","","","animation","372","2391196","0.0-372.0","1920x1080","","4208.79999999702","59","img/314/3.5/1.5/bw/001.png","","","relaxing"
"","","","","","animation","373","2398950","0.0-373.0","1920x1080","","7752.9000000059605","95","img/238/5.5/2/bw/001.png","","","relaxing"
"","","","","","animation","374","2403088","0.0-374.0","1920x1080","","4134.79999999702","97","img/314/5.5/1/bw/001.png","","","relaxing"
"","","","","","animation","375","2405621","0.0-375.0","1920x1080","","2530.7999999970198","2.65","img/238/2.5/0.5/bw/001.png","","","relaxing"
"","","","","","animation","376","2408717","0.0-376.0","1920x1080","","3094.2999999970198","0","img/117/2.5/0.5/bw/001.png","","","relaxing"
"","","","","","animation","377","2415784","0.0-377.0","1920x1080","","7065.4000000059605","60","img/117/4.5/1/bw/001.png","","","relaxing"
"","","","","","animation","378","2420538","0.0-378.0","1920x1080","","4752.600000008941","56.08","img/314/3.5/0.5/bw/001.png","","","relaxing"
"","","","","","animation","379","2424926","0.0-379.0","1920x1080","","4384.699999988079","61.77","img/314/4.5/1/bw/001.png","","","relaxing"
"","","","","","animation","380","2427754","0.0-380.0","1920x1080","","2823.9000000059605","35.19","img/117/2.5/2/bw/001.png","","","relaxing"
"","","","","","animation","381","2433654","0.0-381.0","1920x1080","","5901","40.87","img/238/4.5/2/bw/001.png","","","relaxing"
"","","","","","animation","382","2438320","0.0-382.0","1920x1080","","4664.899999991059","44.97","img/314/4/0.66667/bw/001.png","","","relaxing"
"","","","","","animation","383","2442382","0.0-383.0","1920x1080","","4059.2999999970198","73.54","img/314/5.5/1.5/bw/001.png","","","relaxing"
"","","","","","animation","384","2445381","0.0-384.0","1920x1080","","2996.1000000089407","57.54","img/314/3.5/2/bw/001.png","","","relaxing"
"","","","","","animation","385","2448782","0.0-385.0","1920x1080","","3398.7000000029802","15.08","img/314/2.5/0.5/bw/001.png","","","relaxing"
"","","","","","animation","386","2451456","0.0-386.0","1920x1080","","2673","6.88","img/117/3.5/0.66667/bw/001.png","","","relaxing"
"","","","","","animation","387","2454065","0.0-387.0","1920x1080","","2607","1.19","img/314/2.5/1/bw/001.png","","","relaxing"
"","","","","","animation","388","2458126","0.0-388.0","1920x1080","","4059.7999999970198","79.37","img/238/5.5/1.5/bw/001.png","","","relaxing"
"","","","","","animation","389","2470323","0.0-389.0","1920x1080","","12195.60000000894","2.38","img/117/2.5/0.66667/bw/001.png","","","relaxing"
"","","","","","html-button-response","390","2497483","0.0-390.0","1920x1080","","27145.09999999404","","<strong>Study Debriefing</strong><br><p class=""debrief""><strong>Background:</strong> The patterns you rated are called <em>fractals</em>. The term fractal describes a class of irregular curves or shapes for which any suitably chosen part is similar in shape to a given larger or smaller part when magnified or reduced to the same size. Fractal properties are found throughout the natural and manmade world. The series of animations you saw today displayed animated fractal patterns of a varying complexity.</p><p class=""debrief""><strong>Purpose of this study:</strong> We hope to better understand how the perception of static fractals differs from the perception of animated fractals, and how the speed of the animated patterns influences people&apos;s perception of them. Fractals allow us to study the perception of aesthetic properties (e.g. the perceived level of beauty in an image) without using recognizable content, which makes them an excellent tool for studying abstract aesthetic judgement.</p><p class=""debrief""><strong>Your part:</strong> Your participation has helped us to further understand how humans perceive these patterns across different levels of speed and complexity. This research with allow us to better understand how the visual system and brain process our ever-changing visual environments.<p class=""debrief""><strong>Feedback and Further information:</strong> If you have additional questions about this study, please feel free to ask the researcher, Nathan Gonzales-Hess at nhess @ uoregon.edu. If you have any questions concerning your rights as a research participant, please contact Research Compliance Services, 5237 University of Oregon, Eugene, OR 97403, 541-346-2510, or email researchCompliance @ uoregon.edu. You can also email the Human Subjects Coordinator for psychology and linguistics research at hscoord @ uoregon.edu. ","0","",""
"","","","","","html-button-response","391","2500883","0.0-391.0","1920x1080","","3395.5","","Thank you for participating in this study. <br>Please click below to finish the experiment and submit your responses.<br><br>","0","",""
"true","","","","","fullscreen","392","2501890","0.0-392.0","1920x1080","10:38 5/10/2022","","","","","",""
