"success","timeout","failed_images","failed_audio","failed_video","trial_type","trial_index","time_elapsed","internal_node_id","resolution","timeStamp","rt","response","stimulus","button_pressed","value","descriptor"
"true","false","[]","[]","[]","preload","0","6044","0.0-0.0","1920x1080","","","","","","",""
"true","false","[]","[]","[]","preload","1","12192","0.0-1.0","1920x1080","","","","","","",""
"true","false","[]","[]","[]","preload","2","18207","0.0-2.0","1920x1080","","","","","","",""
"true","","","","","fullscreen","3","192692","0.0-3.0","1920x1080","13:28 27/10/2022","","","","","",""
"","","","","","survey-html-form","4","201950","0.0-4.0","1920x1080","","9254.900000000373","{""age"":""19"",""gender"":""Female""}","","","",""
"","","","","","html-button-response","5","275304","0.0-5.0","1920x1080","","73350.79999999981","","<div class=""complex"">You are going to see a series of animations.<br><br></div><div class=""complex"">Move the slider to indicate how <strong style=""text-transform:capitalize"">COMPLEX</strong> you find each animation.<br><br></div><div class=""complex"">0 = Least Complex<br></div><div class=""complex"">1 = Most Complex<br><br></div><div class=""complex"">Remember to use the <strong><em>entire range</em></strong> of the slider to make your ratings.<br></div><div class=""complex"">Please <strong><em>take your time</em></strong> and carefully consider each rating you make.<br><br></div><div class=""complex"">The study has five sections and will take about 45 minutes to complete.<br><br></div>","0","",""
"","","","","","call-function","6","275305","0.0-6.0","1920x1080","","","","","","",""
"","","","","","animation","7","284248","0.0-7.0","1920x1080","","8942.299999999814","71","img/117/4.5/0.5/bw/001.png","","","complex"
"","","","","","animation","8","311832","0.0-8.0","1920x1080","","27583.200000000186","33.20","img/238/4/2/bw/001.png","","","complex"
"","","","","","animation","9","314664","0.0-9.0","1920x1080","","2831.0999999996275","23.15","img/238/5.5/0.66667/bw/001.png","","","complex"
"","","","","","animation","10","317024","0.0-10.0","1920x1080","","2359","6.75","img/238/5.5/1/bw/001.png","","","complex"
"","","","","","animation","11","320208","0.0-11.0","1920x1080","","3183.2999999998137","78.70","img/238/4/0.66667/bw/001.png","","","complex"
"","","","","","animation","12","324624","0.0-12.0","1920x1080","","4415.200000000186","14","img/314/5.5/2/bw/001.png","","","complex"
"","","","","","animation","13","326784","0.0-13.0","1920x1080","","2159.5","96","img/117/3.5/0.66667/bw/001.png","","","complex"
"","","","","","animation","14","329072","0.0-14.0","1920x1080","","2287.2999999998137","79","img/238/3.5/0.5/bw/001.png","","","complex"
"","","","","","animation","15","331712","0.0-15.0","1920x1080","","2639.399999999441","100","img/314/2.5/1/bw/001.png","","","complex"
"","","","","","animation","16","333792","0.0-16.0","1920x1080","","2079.2999999998137","73.81","img/117/4/2/bw/001.png","","","complex"
"","","","","","animation","17","337688","0.0-17.0","1920x1080","","3895","84","img/117/4/0.5/bw/001.png","","","complex"
"","","","","","animation","18","341608","0.0-18.0","1920x1080","","3919.600000000559","32","img/314/5.5/0.5/bw/001.png","","","complex"
"","","","","","animation","19","345018","0.0-19.0","1920x1080","","3408.0999999996275","99","img/314/2.5/0.5/bw/001.png","","","complex"
"","","","","","animation","20","348129","0.0-20.0","1920x1080","","3110.2999999998137","100","img/117/2.5/1.5/bw/001.png","","","complex"
"","","","","","animation","21","352137","0.0-21.0","1920x1080","","4007.0999999996275","96","img/314/3.5/0.66667/bw/001.png","","","complex"
"","","","","","animation","22","354961","0.0-22.0","1920x1080","","2822.5999999996275","96","img/117/2.5/0.66667/bw/001.png","","","complex"
"","","","","","animation","23","357649","0.0-23.0","1920x1080","","2687.5","89.42","img/238/2.5/0.5/bw/001.png","","","complex"
"","","","","","animation","24","362097","0.0-24.0","1920x1080","","4446.700000000186","76","img/238/3.5/1.5/bw/001.png","","","complex"
"","","","","","animation","25","366041","0.0-25.0","1920x1080","","3943.5","80.82","img/238/4/0.5/bw/001.png","","","complex"
"","","","","","animation","26","368425","0.0-26.0","1920x1080","","2383.2999999998137","85.71","img/314/3.5/0.5/bw/001.png","","","complex"
"","","","","","animation","27","372457","0.0-27.0","1920x1080","","4031","100","img/117/2.5/0.5/bw/001.png","","","complex"
"","","","","","animation","28","376145","0.0-28.0","1920x1080","","3687.399999999441","46.69","img/314/4/0.66667/bw/001.png","","","complex"
"","","","","","animation","29","378945","0.0-29.0","1920x1080","","2799","67","img/314/3.5/2/bw/001.png","","","complex"
"","","","","","animation","30","381802","0.0-30.0","1920x1080","","2856.600000000559","95","img/314/2.5/0.66667/bw/001.png","","","complex"
"","","","","","animation","31","387757","0.0-31.0","1920x1080","","5953.9000000003725","12","img/238/5.5/2/bw/001.png","","","complex"
"","","","","","animation","32","391025","0.0-32.0","1920x1080","","3267.2999999998137","17.59","img/238/5.5/1.5/bw/001.png","","","complex"
"","","","","","animation","33","395641","0.0-33.0","1920x1080","","4615.199999999255","55.29","img/238/3.5/0.66667/bw/001.png","","","complex"
"","","","","","animation","34","400977","0.0-34.0","1920x1080","","5334.5999999996275","31.61","img/238/5.5/0.5/bw/001.png","","","complex"
"","","","","","animation","35","438544","0.0-35.0","1920x1080","","37567.700000000186","89.68","img/238/3.5/2/bw/001.png","","","complex"
"","","","","","animation","36","442433","0.0-36.0","1920x1080","","3888.7000000001863","41.01","img/117/5.5/2/bw/001.png","","","complex"
"","","","","","animation","37","445496","0.0-37.0","1920x1080","","3062","38.23","img/117/5.5/0.66667/bw/001.png","","","complex"
"","","","","","animation","38","447834","0.0-38.0","1920x1080","","2337.2999999998137","32.94","img/314/5.5/0.66667/bw/001.png","","","complex"
"","","","","","animation","39","450392","0.0-39.0","1920x1080","","2557.2999999998137","30.03","img/314/4.5/0.5/bw/001.png","","","complex"
"","","","","","animation","40","452072","0.0-40.0","1920x1080","","1679.1000000005588","62.30","img/238/4.5/2/bw/001.png","","","complex"
"","","","","","animation","41","454217","0.0-41.0","1920x1080","","2144.600000000559","74.07","img/314/4/1/bw/001.png","","","complex"
"","","","","","animation","42","457033","0.0-42.0","1920x1080","","2815.7000000001863","98","img/117/2.5/2/bw/001.png","","","complex"
"","","","","","animation","43","459183","0.0-43.0","1920x1080","","2149.399999999441","99","img/314/2.5/1.5/bw/001.png","","","complex"
"","","","","","animation","44","462039","0.0-44.0","1920x1080","","2855.5","35.32","img/117/5.5/0.5/bw/001.png","","","complex"
"","","","","","animation","45","467575","0.0-45.0","1920x1080","","5535.200000000186","64.81","img/314/3.5/1/bw/001.png","","","complex"
"","","","","","animation","46","470775","0.0-46.0","1920x1080","","3199.4000000003725","47.22","img/314/4.5/1/bw/001.png","","","complex"
"","","","","","animation","47","478759","0.0-47.0","1920x1080","","7983.0999999996275","40","img/238/4.5/1.5/bw/001.png","","","complex"
"","","","","","animation","48","482079","0.0-48.0","1920x1080","","3319.100000000559","98","img/238/2.5/1.5/bw/001.png","","","complex"
"","","","","","animation","49","485063","0.0-49.0","1920x1080","","2983.2999999998137","60.32","img/117/4.5/1/bw/001.png","","","complex"
"","","","","","animation","50","489055","0.0-50.0","1920x1080","","3990.9000000003725","32.54","img/314/4.5/1.5/bw/001.png","","","complex"
"","","","","","animation","51","492087","0.0-51.0","1920x1080","","3030.7999999998137","64.68","img/238/4/1/bw/001.png","","","complex"
"","","","","","animation","52","495455","0.0-52.0","1920x1080","","3365.2000000001863","100","img/238/2.5/2/bw/001.png","","","complex"
"","","","","","animation","53","498695","0.0-53.0","1920x1080","","3239.2000000001863","27.78","img/117/5.5/1.5/bw/001.png","","","complex"
"","","","","","animation","54","503287","0.0-54.0","1920x1080","","4590.5999999996275","98","img/314/2.5/2/bw/001.png","","","complex"
"","","","","","animation","55","507407","0.0-55.0","1920x1080","","4119.5","95","img/117/3.5/0.5/bw/001.png","","","complex"
"","","","","","animation","56","511111","0.0-56.0","1920x1080","","3702.9000000003725","88.49","img/117/3.5/1.5/bw/001.png","","","complex"
"","","","","","animation","57","514584","0.0-57.0","1920x1080","","3472.100000000559","82.80","img/314/4/2/bw/001.png","","","complex"
"","","","","","animation","58","518503","0.0-58.0","1920x1080","","3917.899999999441","96","img/238/2.5/0.66667/bw/001.png","","","complex"
"","","","","","animation","59","521503","0.0-59.0","1920x1080","","2998.9000000003725","51.98","img/117/4.5/0.66667/bw/001.png","","","complex"
"","","","","","animation","60","524491","0.0-60.0","1920x1080","","2983.399999999441","29.89","img/238/4.5/1/bw/001.png","","","complex"
"","","","","","animation","61","526506","0.0-61.0","1920x1080","","2015","43.12","img/117/4/1/bw/001.png","","","complex"
"","","","","","animation","62","530627","0.0-62.0","1920x1080","","4119.300000000745","59.26","img/314/4/1.5/bw/001.png","","","complex"
"","","","","","animation","63","535642","0.0-63.0","1920x1080","","5014.9000000003725","69.71","img/238/3.5/1/bw/001.png","","","complex"
"","","","","","animation","64","538675","0.0-64.0","1920x1080","","3030.9000000003725","72.49","img/117/4.5/1.5/bw/001.png","","","complex"
"","","","","","animation","65","541395","0.0-65.0","1920x1080","","2719.100000000559","73.81","img/238/4.5/0.5/bw/001.png","","","complex"
"","","","","","animation","66","544627","0.0-66.0","1920x1080","","3231.2000000001863","70.24","img/314/4.5/2/bw/001.png","","","complex"
"","","","","","animation","67","547315","0.0-67.0","1920x1080","","2687.300000000745","25.79","img/314/5.5/1.5/bw/001.png","","","complex"
"","","","","","animation","68","550242","0.0-68.0","1920x1080","","2926.0999999996275","97","img/117/2.5/1/bw/001.png","","","complex"
"","","","","","animation","69","553603","0.0-69.0","1920x1080","","3360","88.10","img/117/3.5/2/bw/001.png","","","complex"
"","","","","","animation","70","556474","0.0-70.0","1920x1080","","2870.0999999996275","55.56","img/117/4/1.5/bw/001.png","","","complex"
"","","","","","animation","71","558275","0.0-71.0","1920x1080","","1799.0999999996275","68.92","img/117/3.5/1/bw/001.png","","","complex"
"","","","","","animation","72","560259","0.0-72.0","1920x1080","","1983.0999999996275","79.89","img/117/4.5/2/bw/001.png","","","complex"
"","","","","","animation","73","562595","0.0-73.0","1920x1080","","2335.2999999998137","21.83","img/117/5.5/1/bw/001.png","","","complex"
"","","","","","animation","74","564555","0.0-74.0","1920x1080","","1959.0999999996275","34.52","img/238/4/1.5/bw/001.png","","","complex"
"","","","","","animation","75","566506","0.0-75.0","1920x1080","","1950.5999999996275","13.23","img/314/5.5/1/bw/001.png","","","complex"
"","","","","","animation","76","568827","0.0-76.0","1920x1080","","2319.199999999255","20.90","img/314/4/0.5/bw/001.png","","","complex"
"","","","","","animation","77","572538","0.0-77.0","1920x1080","","3710.800000000745","84.39","img/238/2.5/1/bw/001.png","","","complex"
"","","","","","animation","78","575331","0.0-78.0","1920x1080","","2791.7000000001863","50.79","img/314/4.5/0.66667/bw/001.png","","","complex"
"","","","","","animation","79","581995","0.0-79.0","1920x1080","","6663.0999999996275","71.96","img/238/4.5/0.66667/bw/001.png","","","complex"
"","","","","","animation","80","584474","0.0-80.0","1920x1080","","2479.0999999996275","79.23","img/117/4/0.66667/bw/001.png","","","complex"
"","","","","","animation","81","586653","0.0-81.0","1920x1080","","2178.5","87.83","img/314/3.5/1.5/bw/001.png","","","complex"
"","","","","","html-button-response","82","607883","0.0-82.0","1920x1080","","21227.800000000745","","<div class=""intro"">You are about to view a new series of animations.<br><br></div><div class=""intro"">You will evaluate them based on a different descriptor.<br><br></div><div class=""intro"">Move the slider to indicate how <strong style=""text-transform:capitalize"">INTERESTING</strong> you find each animation.<br><br></div><div class=""intro"">0 = Least Interesting<br></div><div class=""intro"">1 = Most Interesting<br><br></div><div class=""intro"">Remember to use the <strong><em>entire range</em></strong> of the slider to make your ratings.<br></div><div class=""intro"">Please <strong><em>take your time</em></strong> and carefully consider each rating you make.<br><br></div>","0","",""
"","","","","","call-function","83","607884","0.0-83.0","1920x1080","","","","","","",""
"","","","","","animation","84","617506","0.0-84.0","1920x1080","","9620.900000000373","85.32","img/238/3.5/1.5/bw/001.png","","","interesting"
"","","","","","animation","85","620194","0.0-85.0","1920x1080","","2686.0999999996275","63.62","img/314/4/1.5/bw/001.png","","","interesting"
"","","","","","animation","86","622354","0.0-86.0","1920x1080","","2159.100000000559","23.68","img/314/2.5/0.5/bw/001.png","","","interesting"
"","","","","","animation","87","625026","0.0-87.0","1920x1080","","2671.100000000559","70.63","img/117/4/1/bw/001.png","","","interesting"
"","","","","","animation","88","628570","0.0-88.0","1920x1080","","3542.899999999441","84.92","img/238/4.5/0.66667/bw/001.png","","","interesting"
"","","","","","animation","89","631171","0.0-89.0","1920x1080","","2600.0999999996275","7.54","img/117/2.5/0.66667/bw/001.png","","","interesting"
"","","","","","animation","90","633722","0.0-90.0","1920x1080","","2550.4000000003725","9","img/238/2.5/0.66667/bw/001.png","","","interesting"
"","","","","","animation","91","636186","0.0-91.0","1920x1080","","2463.9000000003725","77.65","img/314/4.5/1/bw/001.png","","","interesting"
"","","","","","animation","92","639098","0.0-92.0","1920x1080","","2910.800000000745","94","img/314/5.5/0.66667/bw/001.png","","","interesting"
"","","","","","animation","93","641826","0.0-93.0","1920x1080","","2726.5","87.04","img/238/4/2/bw/001.png","","","interesting"
"","","","","","animation","94","644169","0.0-94.0","1920x1080","","2343.7999999998137","57.01","img/314/4.5/0.5/bw/001.png","","","interesting"
"","","","","","animation","95","646409","0.0-95.0","1920x1080","","2238.5","65.48","img/314/4/1/bw/001.png","","","interesting"
"","","","","","animation","96","649297","0.0-96.0","1920x1080","","2887.0999999996275","70.24","img/238/4/0.66667/bw/001.png","","","interesting"
"","","","","","animation","97","653737","0.0-97.0","1920x1080","","4438.899999999441","77.25","img/117/5.5/2/bw/001.png","","","interesting"
"","","","","","animation","98","656961","0.0-98.0","1920x1080","","3223.100000000559","19.18","img/238/2.5/1.5/bw/001.png","","","interesting"
"","","","","","animation","99","660721","0.0-99.0","1920x1080","","3758.7000000001863","42.72","img/238/4/1/bw/001.png","","","interesting"
"","","","","","animation","100","664570","0.0-100.0","1920x1080","","3848.2999999998137","67.06","img/238/5.5/0.66667/bw/001.png","","","interesting"
"","","","","","animation","101","667993","0.0-101.0","1920x1080","","3421.5","55.95","img/238/4/1.5/bw/001.png","","","interesting"
"","","","","","animation","102","671297","0.0-102.0","1920x1080","","3303.7999999998137","13.89","img/238/2.5/0.5/bw/001.png","","","interesting"
"","","","","","animation","103","676169","0.0-103.0","1920x1080","","4870.700000000186","35.71","img/314/4/0.5/bw/001.png","","","interesting"
"","","","","","animation","104","678313","0.0-104.0","1920x1080","","2143","40.34","img/238/3.5/0.5/bw/001.png","","","interesting"
"","","","","","animation","105","681513","0.0-105.0","1920x1080","","3199.100000000559","71.43","img/238/5.5/1.5/bw/001.png","","","interesting"
"","","","","","animation","106","684218","0.0-106.0","1920x1080","","2703.800000000745","62.17","img/117/4.5/1.5/bw/001.png","","","interesting"
"","","","","","animation","107","685853","0.0-107.0","1920x1080","","1633.7999999998137","58.99","img/117/4.5/1/bw/001.png","","","interesting"
"","","","","","animation","108","687393","0.0-108.0","1920x1080","","1539.5","53.44","img/238/4.5/1/bw/001.png","","","interesting"
"","","","","","animation","109","689818","0.0-109.0","1920x1080","","2424.300000000745","65.87","img/238/5.5/2/bw/001.png","","","interesting"
"","","","","","animation","110","693469","0.0-110.0","1920x1080","","3650.7000000001863","15","img/117/2.5/1/bw/001.png","","","interesting"
"","","","","","animation","111","697097","0.0-111.0","1920x1080","","3626.199999999255","11.11","img/117/2.5/2/bw/001.png","","","interesting"
"","","","","","animation","112","699257","0.0-112.0","1920x1080","","2158.7999999998137","19.71","img/238/2.5/2/bw/001.png","","","interesting"
"","","","","","animation","113","701729","0.0-113.0","1920x1080","","2471.100000000559","30.95","img/314/2.5/0.66667/bw/001.png","","","interesting"
"","","","","","animation","114","705503","0.0-114.0","1920x1080","","3774.2000000001863","34.39","img/117/2.5/0.5/bw/001.png","","","interesting"
"","","","","","animation","115","707887","0.0-115.0","1920x1080","","2382.7999999998137","39.02","img/314/3.5/0.5/bw/001.png","","","interesting"
"","","","","","animation","116","710511","0.0-116.0","1920x1080","","2622.899999999441","42.72","img/238/3.5/0.66667/bw/001.png","","","interesting"
"","","","","","animation","117","714207","0.0-117.0","1920x1080","","3695.0999999996275","54.23","img/117/4.5/0.5/bw/001.png","","","interesting"
"","","","","","animation","118","716527","0.0-118.0","1920x1080","","2318.9000000003725","23.02","img/314/2.5/1.5/bw/001.png","","","interesting"
"","","","","","animation","119","721351","0.0-119.0","1920x1080","","4822.9000000003725","51","img/117/4/1.5/bw/001.png","","","interesting"
"","","","","","animation","120","723495","0.0-120.0","1920x1080","","2143.7000000001863","59","img/314/4.5/0.66667/bw/001.png","","","interesting"
"","","","","","animation","121","725967","0.0-121.0","1920x1080","","2470.5","69.44","img/117/5.5/1.5/bw/001.png","","","interesting"
"","","","","","animation","122","728135","0.0-122.0","1920x1080","","2167","47.09","img/117/3.5/2/bw/001.png","","","interesting"
"","","","","","animation","123","731655","0.0-123.0","1920x1080","","3519.5999999996275","25.00","img/238/2.5/1/bw/001.png","","","interesting"
"","","","","","animation","124","737655","0.0-124.0","1920x1080","","5999","66","img/314/3.5/0.66667/bw/001.png","","","interesting"
"","","","","","animation","125","740559","0.0-125.0","1920x1080","","2903.0999999996275","71","img/314/4.5/1.5/bw/001.png","","","interesting"
"","","","","","animation","126","743343","0.0-126.0","1920x1080","","2782.5999999996275","50.79","img/238/3.5/2/bw/001.png","","","interesting"
"","","","","","animation","127","748400","0.0-127.0","1920x1080","","5056","64.29","img/238/4.5/1.5/bw/001.png","","","interesting"
"","","","","","animation","128","750068","0.0-128.0","1920x1080","","1666.9000000003725","62.57","img/314/5.5/1/bw/001.png","","","interesting"
"","","","","","animation","129","752600","0.0-129.0","1920x1080","","2531.2999999998137","69.71","img/238/4.5/2/bw/001.png","","","interesting"
"","","","","","animation","130","754719","0.0-130.0","1920x1080","","2117.9000000003725","80.03","img/117/5.5/0.66667/bw/001.png","","","interesting"
"","","","","","animation","131","756807","0.0-131.0","1920x1080","","2087.399999999441","81.61","img/117/3.5/1/bw/001.png","","","interesting"
"","","","","","animation","132","760671","0.0-132.0","1920x1080","","3862.7000000001863","64.29","img/117/4/0.5/bw/001.png","","","interesting"
"","","","","","animation","133","763018","0.0-133.0","1920x1080","","2345.5","19.84","img/314/2.5/1/bw/001.png","","","interesting"
"","","","","","animation","134","766317","0.0-134.0","1920x1080","","3300.2999999998137","86.77","img/117/5.5/0.5/bw/001.png","","","interesting"
"","","","","","animation","135","768501","0.0-135.0","1920x1080","","2183.0999999996275","62.70","img/314/4.5/2/bw/001.png","","","interesting"
"","","","","","animation","136","770790","0.0-136.0","1920x1080","","2287.5","73.41","img/238/5.5/1/bw/001.png","","","interesting"
"","","","","","animation","137","774110","0.0-137.0","1920x1080","","3318.899999999441","33.73","img/314/4/2/bw/001.png","","","interesting"
"","","","","","animation","138","775558","0.0-138.0","1920x1080","","1447.7000000001863","48.28","img/238/4/0.5/bw/001.png","","","interesting"
"","","","","","animation","139","778438","0.0-139.0","1920x1080","","2878.800000000745","82","img/314/5.5/0.5/bw/001.png","","","interesting"
"","","","","","animation","140","781333","0.0-140.0","1920x1080","","2894.699999999255","63.23","img/314/3.5/1/bw/001.png","","","interesting"
"","","","","","animation","141","783250","0.0-141.0","1920x1080","","1916","44.31","img/117/3.5/1.5/bw/001.png","","","interesting"
"","","","","","animation","142","786882","0.0-142.0","1920x1080","","3631.100000000559","11.77","img/314/2.5/2/bw/001.png","","","interesting"
"","","","","","animation","143","789917","0.0-143.0","1920x1080","","3034.199999999255","17.06","img/117/2.5/1.5/bw/001.png","","","interesting"
"","","","","","animation","144","794086","0.0-144.0","1920x1080","","4167.100000000559","50.66","img/238/4.5/0.5/bw/001.png","","","interesting"
"","","","","","animation","145","796622","0.0-145.0","1920x1080","","2535.0999999996275","64.81","img/314/5.5/1.5/bw/001.png","","","interesting"
"","","","","","animation","146","800933","0.0-146.0","1920x1080","","4310.5999999996275","47.22","img/117/3.5/0.5/bw/001.png","","","interesting"
"","","","","","animation","147","803166","0.0-147.0","1920x1080","","2231","37.57","img/314/3.5/2/bw/001.png","","","interesting"
"","","","","","animation","148","805510","0.0-148.0","1920x1080","","2343.5","73.68","img/117/4.5/0.66667/bw/001.png","","","interesting"
"","","","","","animation","149","810670","0.0-149.0","1920x1080","","5158.800000000745","60.45","img/117/4/2/bw/001.png","","","interesting"
"","","","","","animation","150","814885","0.0-150.0","1920x1080","","4214.899999999441","47.75","img/117/3.5/0.66667/bw/001.png","","","interesting"
"","","","","","animation","151","818517","0.0-151.0","1920x1080","","3630.7000000001863","38.49","img/117/4/0.66667/bw/001.png","","","interesting"
"","","","","","animation","152","820174","0.0-152.0","1920x1080","","1655.4000000003725","56.75","img/117/4.5/2/bw/001.png","","","interesting"
"","","","","","animation","153","823049","0.0-153.0","1920x1080","","2874.0999999996275","47.62","img/314/3.5/1.5/bw/001.png","","","interesting"
"","","","","","animation","154","826521","0.0-154.0","1920x1080","","3467.5999999996275","67.33","img/238/5.5/0.5/bw/001.png","","","interesting"
"","","","","","animation","155","829737","0.0-155.0","1920x1080","","3214.9000000003725","64.42","img/314/5.5/2/bw/001.png","","","interesting"
"","","","","","animation","156","831902","0.0-156.0","1920x1080","","2164.2999999998137","74.74","img/117/5.5/1/bw/001.png","","","interesting"
"","","","","","animation","157","834273","0.0-157.0","1920x1080","","2370","60.85","img/314/4/0.66667/bw/001.png","","","interesting"
"","","","","","animation","158","836769","0.0-158.0","1920x1080","","2494.7000000001863","64.81","img/238/3.5/1/bw/001.png","","","interesting"
"","","","","","html-button-response","159","856802","0.0-159.0","1920x1080","","20032.099999999627","","<div class=""intro"">You are about to view a new series of animations.<br><br></div><div class=""intro"">You will evaluate them based on a different descriptor.<br><br></div><div class=""intro"">Move the slider to indicate how <strong style=""text-transform:capitalize"">APPEALING</strong> you find each animation.<br><br></div><div class=""intro"">0 = Least Appealing<br></div><div class=""intro"">1 = Most Appealing<br><br></div><div class=""intro"">Remember to use the <strong><em>entire range</em></strong> of the slider to make your ratings.<br></div><div class=""intro"">Please <strong><em>take your time</em></strong> and carefully consider each rating you make.<br><br></div>","0","",""
"","","","","","call-function","160","856803","0.0-160.0","1920x1080","","","","","","",""
"","","","","","animation","161","859905","0.0-161.0","1920x1080","","3101.7000000001863","8.20","img/238/2.5/0.66667/bw/001.png","","","appealing"
"","","","","","animation","162","862169","0.0-162.0","1920x1080","","2262.5","25.26","img/314/3.5/0.5/bw/001.png","","","appealing"
"","","","","","animation","163","865025","0.0-163.0","1920x1080","","2855.5","21.16","img/238/4/2/bw/001.png","","","appealing"
"","","","","","animation","164","867121","0.0-164.0","1920x1080","","2094.7000000001863","32.67","img/238/3.5/1.5/bw/001.png","","","appealing"
"","","","","","animation","165","869937","0.0-165.0","1920x1080","","2815.0999999996275","22","img/314/2.5/1.5/bw/001.png","","","appealing"
"","","","","","animation","166","874702","0.0-166.0","1920x1080","","4764.700000000186","61.51","img/238/4.5/0.5/bw/001.png","","","appealing"
"","","","","","animation","167","878089","0.0-167.0","1920x1080","","3385.5999999996275","55","img/314/4/0.66667/bw/001.png","","","appealing"
"","","","","","animation","168","880102","0.0-168.0","1920x1080","","2012.300000000745","25.26","img/238/2.5/1.5/bw/001.png","","","appealing"
"","","","","","animation","169","882802","0.0-169.0","1920x1080","","2699","79.89","img/314/5.5/1.5/bw/001.png","","","appealing"
"","","","","","animation","170","885968","0.0-170.0","1920x1080","","3165.7000000001863","74","img/314/4.5/1/bw/001.png","","","appealing"
"","","","","","animation","171","888146","0.0-171.0","1920x1080","","2176.9000000003725","48.28","img/117/3.5/1.5/bw/001.png","","","appealing"
"","","","","","animation","172","890888","0.0-172.0","1920x1080","","2740.699999999255","62.43","img/238/5.5/1/bw/001.png","","","appealing"
"","","","","","animation","173","893801","0.0-173.0","1920x1080","","2912.2000000001863","54.63","img/117/3.5/0.66667/bw/001.png","","","appealing"
"","","","","","animation","174","895885","0.0-174.0","1920x1080","","2082.800000000745","22.09","img/117/2.5/0.5/bw/001.png","","","appealing"
"","","","","","animation","175","898641","0.0-175.0","1920x1080","","2754.5999999996275","87","img/314/5.5/0.66667/bw/001.png","","","appealing"
"","","","","","animation","176","903519","0.0-176.0","1920x1080","","4877.0999999996275","43.39","img/314/3.5/1/bw/001.png","","","appealing"
"","","","","","animation","177","907720","0.0-177.0","1920x1080","","4200.5999999996275","54.37","img/314/4.5/0.66667/bw/001.png","","","appealing"
"","","","","","animation","178","909736","0.0-178.0","1920x1080","","2014.9000000003725","19.31","img/238/2.5/2/bw/001.png","","","appealing"
"","","","","","animation","179","912488","0.0-179.0","1920x1080","","2751.100000000559","9.79","img/314/2.5/1/bw/001.png","","","appealing"
"","","","","","animation","180","915702","0.0-180.0","1920x1080","","3212.5999999996275","80.56","img/314/5.5/1/bw/001.png","","","appealing"
"","","","","","animation","181","920302","0.0-181.0","1920x1080","","4598.700000000186","29","img/314/3.5/0.66667/bw/001.png","","","appealing"
"","","","","","animation","182","922025","0.0-182.0","1920x1080","","1722.2000000001863","33.33","img/314/4/0.5/bw/001.png","","","appealing"
"","","","","","animation","183","924009","0.0-183.0","1920x1080","","1983","56.88","img/314/5.5/2/bw/001.png","","","appealing"
"","","","","","animation","184","926635","0.0-184.0","1920x1080","","2625","39.55","img/117/4/1/bw/001.png","","","appealing"
"","","","","","animation","185","928961","0.0-185.0","1920x1080","","2325.2000000001863","32.54","img/117/3.5/1/bw/001.png","","","appealing"
"","","","","","animation","186","934320","0.0-186.0","1920x1080","","5358.4000000003725","55.16","img/117/4.5/0.5/bw/001.png","","","appealing"
"","","","","","animation","187","937104","0.0-187.0","1920x1080","","2782.899999999441","79.76","img/314/5.5/0.5/bw/001.png","","","appealing"
"","","","","","animation","188","940769","0.0-188.0","1920x1080","","3662.2000000001863","42.86","img/238/4/0.5/bw/001.png","","","appealing"
"","","","","","animation","189","943472","0.0-189.0","1920x1080","","2703","65.08","img/238/4.5/0.66667/bw/001.png","","","appealing"
"","","","","","animation","190","946407","0.0-190.0","1920x1080","","2935","43.92","img/117/4/2/bw/001.png","","","appealing"
"","","","","","animation","191","948817","0.0-191.0","1920x1080","","2409","12.70","img/117/2.5/0.66667/bw/001.png","","","appealing"
"","","","","","animation","192","952001","0.0-192.0","1920x1080","","3183","28.70","img/117/3.5/2/bw/001.png","","","appealing"
"","","","","","animation","193","955639","0.0-193.0","1920x1080","","3637","70.50","img/117/5.5/0.5/bw/001.png","","","appealing"
"","","","","","animation","194","957487","0.0-194.0","1920x1080","","1846.8999999994412","75.00","img/238/4.5/2/bw/001.png","","","appealing"
"","","","","","animation","195","960807","0.0-195.0","1920x1080","","3319.0999999996275","85.58","img/117/5.5/1/bw/001.png","","","appealing"
"","","","","","animation","196","963391","0.0-196.0","1920x1080","","2582.899999999441","2.51","img/117/2.5/1.5/bw/001.png","","","appealing"
"","","","","","animation","197","968791","0.0-197.0","1920x1080","","5398.799999999814","42.99","img/314/4/2/bw/001.png","","","appealing"
"","","","","","animation","198","970834","0.0-198.0","1920x1080","","2040.2000000001863","73.15","img/238/5.5/1.5/bw/001.png","","","appealing"
"","","","","","animation","199","974319","0.0-199.0","1920x1080","","3482.2000000001863","55.56","img/314/4.5/1.5/bw/001.png","","","appealing"
"","","","","","animation","200","978517","0.0-200.0","1920x1080","","4197.600000000559","30.95","img/238/4.5/1/bw/001.png","","","appealing"
"","","","","","animation","201","980935","0.0-201.0","1920x1080","","2416.300000000745","50.40","img/238/4.5/1.5/bw/001.png","","","appealing"
"","","","","","animation","202","985623","0.0-202.0","1920x1080","","4687.4000000003725","14","img/238/2.5/1/bw/001.png","","","appealing"
"","","","","","animation","203","988267","0.0-203.0","1920x1080","","2642.5999999996275","18","img/314/2.5/0.5/bw/001.png","","","appealing"
"","","","","","animation","204","992071","0.0-204.0","1920x1080","","3802.9000000003725","27","img/117/2.5/1/bw/001.png","","","appealing"
"","","","","","animation","205","995207","0.0-205.0","1920x1080","","3134.9000000003725","20.90","img/117/2.5/2/bw/001.png","","","appealing"
"","","","","","animation","206","997053","0.0-206.0","1920x1080","","1844.699999999255","27.25","img/314/2.5/2/bw/001.png","","","appealing"
"","","","","","animation","207","1002382","0.0-207.0","1920x1080","","5328.299999999814","52.51","img/314/4.5/0.5/bw/001.png","","","appealing"
"","","","","","animation","208","1005345","0.0-208.0","1920x1080","","2959.399999999441","73.54","img/117/4.5/2/bw/001.png","","","appealing"
"","","","","","animation","209","1007437","0.0-209.0","1920x1080","","2090.399999999441","68.25","img/314/4/1.5/bw/001.png","","","appealing"
"","","","","","animation","210","1010669","0.0-210.0","1920x1080","","3231.4000000003725","78.17","img/117/4.5/1.5/bw/001.png","","","appealing"
"","","","","","animation","211","1013519","0.0-211.0","1920x1080","","2849","54.37","img/238/4/1.5/bw/001.png","","","appealing"
"","","","","","animation","212","1017337","0.0-212.0","1920x1080","","3816.800000000745","88.10","img/117/5.5/1.5/bw/001.png","","","appealing"
"","","","","","animation","213","1021537","0.0-213.0","1920x1080","","4198.600000000559","34","img/238/3.5/0.66667/bw/001.png","","","appealing"
"","","","","","animation","214","1024977","0.0-214.0","1920x1080","","3439","41.80","img/117/4/1.5/bw/001.png","","","appealing"
"","","","","","animation","215","1028269","0.0-215.0","1920x1080","","3290.7999999998137","70.37","img/117/5.5/0.66667/bw/001.png","","","appealing"
"","","","","","animation","216","1031793","0.0-216.0","1920x1080","","3522.7999999998137","62.83","img/314/4.5/2/bw/001.png","","","appealing"
"","","","","","animation","217","1033953","0.0-217.0","1920x1080","","2158.600000000559","34.39","img/238/3.5/0.5/bw/001.png","","","appealing"
"","","","","","animation","218","1035536","0.0-218.0","1920x1080","","1581.9000000003725","42.99","img/117/3.5/0.5/bw/001.png","","","appealing"
"","","","","","animation","219","1038438","0.0-219.0","1920x1080","","2901.7999999998137","59","img/117/4.5/1/bw/001.png","","","appealing"
"","","","","","animation","220","1041553","0.0-220.0","1920x1080","","3112.5","34.66","img/117/4/0.5/bw/001.png","","","appealing"
"","","","","","animation","221","1043552","0.0-221.0","1920x1080","","1998","40.74","img/314/3.5/2/bw/001.png","","","appealing"
"","","","","","animation","222","1050952","0.0-222.0","1920x1080","","7399.700000000186","31","img/238/5.5/0.66667/bw/001.png","","","appealing"
"","","","","","animation","223","1056219","0.0-223.0","1920x1080","","5266","25","img/117/4/0.66667/bw/001.png","","","appealing"
"","","","","","animation","224","1059252","0.0-224.0","1920x1080","","3031.600000000559","18.25","img/238/3.5/2/bw/001.png","","","appealing"
"","","","","","animation","225","1062069","0.0-225.0","1920x1080","","2815.9000000003725","13","img/314/2.5/0.66667/bw/001.png","","","appealing"
"","","","","","animation","226","1064890","0.0-226.0","1920x1080","","2819.4000000003725","11.90","img/314/3.5/1.5/bw/001.png","","","appealing"
"","","","","","animation","227","1070962","0.0-227.0","1920x1080","","6066.5999999996275","27.38","img/238/4/0.66667/bw/001.png","","","appealing"
"","","","","","animation","228","1073762","0.0-228.0","1920x1080","","2799","17.06","img/238/2.5/0.5/bw/001.png","","","appealing"
"","","","","","animation","229","1077458","0.0-229.0","1920x1080","","3694.7000000001863","54.37","img/117/4.5/0.66667/bw/001.png","","","appealing"
"","","","","","animation","230","1081186","0.0-230.0","1920x1080","","3727.399999999441","73.28","img/238/5.5/0.5/bw/001.png","","","appealing"
"","","","","","animation","231","1088409","0.0-231.0","1920x1080","","7222.200000001118","43","img/238/3.5/1/bw/001.png","","","appealing"
"","","","","","animation","232","1092042","0.0-232.0","1920x1080","","3630","85.71","img/117/5.5/2/bw/001.png","","","appealing"
"","","","","","animation","233","1095519","0.0-233.0","1920x1080","","3476.5","76.06","img/238/5.5/2/bw/001.png","","","appealing"
"","","","","","animation","234","1098203","0.0-234.0","1920x1080","","2682.199999999255","62.04","img/238/4/1/bw/001.png","","","appealing"
"","","","","","animation","235","1099786","0.0-235.0","1920x1080","","1582.5","56.08","img/314/4/1/bw/001.png","","","appealing"
"","","","","","html-button-response","236","1118219","0.0-236.0","1920x1080","","18431.900000000373","","<div class=""intro"">You are about to view a new series of animations.<br><br></div><div class=""intro"">You will evaluate them based on a different descriptor.<br><br></div><div class=""intro"">Move the slider to indicate how <strong style=""text-transform:capitalize"">NATURAL</strong> you find each animation.<br><br></div><div class=""intro"">0 = Least Natural<br></div><div class=""intro"">1 = Most Natural<br><br></div><div class=""intro"">Remember to use the <strong><em>entire range</em></strong> of the slider to make your ratings.<br></div><div class=""intro"">Please <strong><em>take your time</em></strong> and carefully consider each rating you make.<br><br></div>","0","",""
"","","","","","call-function","237","1118221","0.0-237.0","1920x1080","","","","","","",""
"","","","","","animation","238","1127352","0.0-238.0","1920x1080","","9131.599999999627","48","img/238/4.5/0.5/bw/001.png","","","natural"
"","","","","","animation","239","1129305","0.0-239.0","1920x1080","","1952.0999999996275","65.74","img/238/4.5/2/bw/001.png","","","natural"
"","","","","","animation","240","1131168","0.0-240.0","1920x1080","","1861","82.54","img/238/5.5/1/bw/001.png","","","natural"
"","","","","","animation","241","1133135","0.0-241.0","1920x1080","","1965.699999999255","31.08","img/314/3.5/0.5/bw/001.png","","","natural"
"","","","","","animation","242","1135824","0.0-242.0","1920x1080","","2688.4000000003725","99","img/238/5.5/2/bw/001.png","","","natural"
"","","","","","animation","243","1139256","0.0-243.0","1920x1080","","3430.5999999996275","94","img/238/5.5/1.5/bw/001.png","","","natural"
"","","","","","animation","244","1144688","0.0-244.0","1920x1080","","5430.800000000745","83.99","img/238/5.5/0.66667/bw/001.png","","","natural"
"","","","","","animation","245","1146992","0.0-245.0","1920x1080","","2303","64.15","img/314/4.5/0.66667/bw/001.png","","","natural"
"","","","","","animation","246","1149672","0.0-246.0","1920x1080","","2678.5","43.12","img/117/3.5/2/bw/001.png","","","natural"
"","","","","","animation","247","1151320","0.0-247.0","1920x1080","","1646.7999999988824","35.45","img/314/3.5/1/bw/001.png","","","natural"
"","","","","","animation","248","1153951","0.0-248.0","1920x1080","","2630.5","11.77","img/314/2.5/2/bw/001.png","","","natural"
"","","","","","animation","249","1156720","0.0-249.0","1920x1080","","2766.7999999988824","88.10","img/314/5.5/1.5/bw/001.png","","","natural"
"","","","","","animation","250","1159456","0.0-250.0","1920x1080","","2735.5","55.82","img/314/4.5/0.5/bw/001.png","","","natural"
"","","","","","animation","251","1163121","0.0-251.0","1920x1080","","3663.4000000003725","17.46","img/117/2.5/2/bw/001.png","","","natural"
"","","","","","animation","252","1165635","0.0-252.0","1920x1080","","2513.4000000003725","40.74","img/117/4.5/1.5/bw/001.png","","","natural"
"","","","","","animation","253","1168704","0.0-253.0","1920x1080","","3067.5999999996275","44","img/117/4.5/2/bw/001.png","","","natural"
"","","","","","animation","254","1172904","0.0-254.0","1920x1080","","4199","34","img/238/3.5/1.5/bw/001.png","","","natural"
"","","","","","animation","255","1174485","0.0-255.0","1920x1080","","1579.5999999996275","26.46","img/238/3.5/2/bw/001.png","","","natural"
"","","","","","animation","256","1176152","0.0-256.0","1920x1080","","1666.0999999996275","20.77","img/238/2.5/0.5/bw/001.png","","","natural"
"","","","","","animation","257","1178285","0.0-257.0","1920x1080","","2131.800000000745","78.17","img/117/5.5/2/bw/001.png","","","natural"
"","","","","","animation","258","1181551","0.0-258.0","1920x1080","","3265.699999999255","37.30","img/117/4/0.66667/bw/001.png","","","natural"
"","","","","","animation","259","1184977","0.0-259.0","1920x1080","","3424","31.35","img/238/4/0.66667/bw/001.png","","","natural"
"","","","","","animation","260","1187536","0.0-260.0","1920x1080","","2558.0999999996275","27","img/314/4/2/bw/001.png","","","natural"
"","","","","","animation","261","1189019","0.0-261.0","1920x1080","","1481.4000000003725","32.14","img/314/4.5/2/bw/001.png","","","natural"
"","","","","","animation","262","1192118","0.0-262.0","1920x1080","","3099","82.28","img/117/5.5/1/bw/001.png","","","natural"
"","","","","","animation","263","1194472","0.0-263.0","1920x1080","","2352.7000000011176","40.61","img/117/4/2/bw/001.png","","","natural"
"","","","","","animation","264","1198673","0.0-264.0","1920x1080","","4199.199999999255","2.38","img/314/2.5/0.5/bw/001.png","","","natural"
"","","","","","animation","265","1205168","0.0-265.0","1920x1080","","6494.700000001118","36","img/238/4/1/bw/001.png","","","natural"
"","","","","","animation","266","1207193","0.0-266.0","1920x1080","","2023","63.23","img/314/4.5/1/bw/001.png","","","natural"
"","","","","","animation","267","1208777","0.0-267.0","1920x1080","","1583","50.79","img/314/4/1/bw/001.png","","","natural"
"","","","","","animation","268","1210872","0.0-268.0","1920x1080","","2094.60000000149","42.86","img/238/4/2/bw/001.png","","","natural"
"","","","","","animation","269","1213168","0.0-269.0","1920x1080","","2294.2999999988824","87.83","img/314/5.5/0.5/bw/001.png","","","natural"
"","","","","","animation","270","1218472","0.0-270.0","1920x1080","","5302.699999999255","40.21","img/314/3.5/2/bw/001.png","","","natural"
"","","","","","animation","271","1222814","0.0-271.0","1920x1080","","4340.5","92.59","img/117/5.5/0.66667/bw/001.png","","","natural"
"","","","","","animation","272","1225885","0.0-272.0","1920x1080","","3069.699999999255","99","img/314/5.5/2/bw/001.png","","","natural"
"","","","","","animation","273","1228952","0.0-273.0","1920x1080","","3065.9000000003725","48.15","img/117/4.5/0.66667/bw/001.png","","","natural"
"","","","","","animation","274","1231568","0.0-274.0","1920x1080","","2615","35.58","img/238/4/1.5/bw/001.png","","","natural"
"","","","","","animation","275","1235304","0.0-275.0","1920x1080","","3734.7999999988824","80.56","img/238/5.5/0.5/bw/001.png","","","natural"
"","","","","","animation","276","1238352","0.0-276.0","1920x1080","","3046.39999999851","35.58","img/314/4/0.5/bw/001.png","","","natural"
"","","","","","animation","277","1240185","0.0-277.0","1920x1080","","1832.2999999988824","16.14","img/117/2.5/1/bw/001.png","","","natural"
"","","","","","animation","278","1245161","0.0-278.0","1920x1080","","4965.800000000745","28.84","img/314/4/0.66667/bw/001.png","","","natural"
"","","","","","animation","279","1247978","0.0-279.0","1920x1080","","2814.800000000745","35.85","img/238/4.5/0.66667/bw/001.png","","","natural"
"","","","","","animation","280","1250028","0.0-280.0","1920x1080","","2049","15.34","img/238/2.5/1/bw/001.png","","","natural"
"","","","","","animation","281","1252861","0.0-281.0","1920x1080","","2832.2000000011176","44.31","img/314/4.5/1.5/bw/001.png","","","natural"
"","","","","","animation","282","1255882","0.0-282.0","1920x1080","","3019.60000000149","39.29","img/117/4/0.5/bw/001.png","","","natural"
"","","","","","animation","283","1257450","0.0-283.0","1920x1080","","1567","41.80","img/314/4/1.5/bw/001.png","","","natural"
"","","","","","animation","284","1264461","0.0-284.0","1920x1080","","7010.5999999996275","36.90","img/117/4/1/bw/001.png","","","natural"
"","","","","","animation","285","1266866","0.0-285.0","1920x1080","","2403.0999999996275","20.90","img/314/2.5/0.66667/bw/001.png","","","natural"
"","","","","","animation","286","1269618","0.0-286.0","1920x1080","","2750.9000000003725","20.11","img/238/2.5/0.66667/bw/001.png","","","natural"
"","","","","","animation","287","1271661","0.0-287.0","1920x1080","","2042.2000000011176","29.37","img/314/3.5/1.5/bw/001.png","","","natural"
"","","","","","animation","288","1273929","0.0-288.0","1920x1080","","2267","30.29","img/117/3.5/1/bw/001.png","","","natural"
"","","","","","animation","289","1277961","0.0-289.0","1920x1080","","4030.7000000011176","31","img/238/3.5/0.5/bw/001.png","","","natural"
"","","","","","animation","290","1281113","0.0-290.0","1920x1080","","3151","72.88","img/314/5.5/1/bw/001.png","","","natural"
"","","","","","animation","291","1284078","0.0-291.0","1920x1080","","2963.2999999988824","5.82","img/314/2.5/1/bw/001.png","","","natural"
"","","","","","animation","292","1286633","0.0-292.0","1920x1080","","2554.0999999996275","4.23","img/238/2.5/2/bw/001.png","","","natural"
"","","","","","animation","293","1288378","0.0-293.0","1920x1080","","1743.300000000745","15","img/238/3.5/0.66667/bw/001.png","","","natural"
"","","","","","animation","294","1291594","0.0-294.0","1920x1080","","3215.4000000003725","42.72","img/238/4/0.5/bw/001.png","","","natural"
"","","","","","animation","295","1296132","0.0-295.0","1920x1080","","4536.5999999996275","57.94","img/117/4.5/0.5/bw/001.png","","","natural"
"","","","","","animation","296","1300082","0.0-296.0","1920x1080","","3946.7999999988824","17.72","img/117/2.5/1.5/bw/001.png","","","natural"
"","","","","","animation","297","1302439","0.0-297.0","1920x1080","","2355.7000000011176","88.23","img/117/5.5/1.5/bw/001.png","","","natural"
"","","","","","animation","298","1304322","0.0-298.0","1920x1080","","1889.4000000003725","56.08","img/117/4/1.5/bw/001.png","","","natural"
"","","","","","animation","299","1306538","0.0-299.0","1920x1080","","2215","92.46","img/117/5.5/0.5/bw/001.png","","","natural"
"","","","","","animation","300","1309338","0.0-300.0","1920x1080","","2798.300000000745","51.19","img/314/3.5/0.66667/bw/001.png","","","natural"
"","","","","","animation","301","1311637","0.0-301.0","1920x1080","","2298.0999999996275","26.06","img/117/2.5/0.5/bw/001.png","","","natural"
"","","","","","animation","302","1314771","0.0-302.0","1920x1080","","3132.5999999996275","54.23","img/238/4.5/1.5/bw/001.png","","","natural"
"","","","","","animation","303","1319120","0.0-303.0","1920x1080","","4348.0999999996275","63.76","img/238/4.5/1/bw/001.png","","","natural"
"","","","","","animation","304","1322526","0.0-304.0","1920x1080","","3405.0999999996275","43.39","img/117/3.5/0.66667/bw/001.png","","","natural"
"","","","","","animation","305","1326220","0.0-305.0","1920x1080","","3692.2000000011176","64.81","img/117/4.5/1/bw/001.png","","","natural"
"","","","","","animation","306","1328987","0.0-306.0","1920x1080","","2763.7999999988824","20.63","img/238/2.5/1.5/bw/001.png","","","natural"
"","","","","","animation","307","1331363","0.0-307.0","1920x1080","","2374.9000000003725","24.07","img/314/2.5/1.5/bw/001.png","","","natural"
"","","","","","animation","308","1336353","0.0-308.0","1920x1080","","4989.199999999255","37.57","img/238/3.5/1/bw/001.png","","","natural"
"","","","","","animation","309","1339426","0.0-309.0","1920x1080","","3070.7000000011176","11","img/117/2.5/0.66667/bw/001.png","","","natural"
"","","","","","animation","310","1341554","0.0-310.0","1920x1080","","2126.60000000149","88.89","img/314/5.5/0.66667/bw/001.png","","","natural"
"","","","","","animation","311","1344528","0.0-311.0","1920x1080","","2973.199999999255","55.16","img/117/3.5/1.5/bw/001.png","","","natural"
"","","","","","animation","312","1347387","0.0-312.0","1920x1080","","2857.4000000003725","37.57","img/117/3.5/0.5/bw/001.png","","","natural"
"","","","","","html-button-response","313","1366762","0.0-313.0","1920x1080","","19365.200000001118","","<div class=""intro"">You are about to view a new series of animations.<br><br></div><div class=""intro"">You will evaluate them based on a different descriptor.<br><br></div><div class=""intro"">Move the slider to indicate how <strong style=""text-transform:capitalize"">RELAXING</strong> you find each animation.<br><br></div><div class=""intro"">0 = Least Relaxing<br></div><div class=""intro"">1 = Most Relaxing<br><br></div><div class=""intro"">Remember to use the <strong><em>entire range</em></strong> of the slider to make your ratings.<br></div><div class=""intro"">Please <strong><em>take your time</em></strong> and carefully consider each rating you make.<br><br></div>","0","",""
"","","","","","call-function","314","1366763","0.0-314.0","1920x1080","","","","","","",""
"","","","","","animation","315","1371130","0.0-315.0","1920x1080","","4366.4000000003725","2.91","img/314/2.5/1.5/bw/001.png","","","relaxing"
"","","","","","animation","316","1375440","0.0-316.0","1920x1080","","4307.800000000745","7.14","img/238/2.5/2/bw/001.png","","","relaxing"
"","","","","","animation","317","1377529","0.0-317.0","1920x1080","","2087.300000000745","3.04","img/314/2.5/1/bw/001.png","","","relaxing"
"","","","","","animation","318","1382385","0.0-318.0","1920x1080","","4854.89999999851","69","img/238/4.5/1.5/bw/001.png","","","relaxing"
"","","","","","animation","319","1384612","0.0-319.0","1920x1080","","2225.5","40.34","img/314/4.5/0.5/bw/001.png","","","relaxing"
"","","","","","animation","320","1386395","0.0-320.0","1920x1080","","1782.2000000011176","77.65","img/117/4.5/2/bw/001.png","","","relaxing"
"","","","","","animation","321","1389211","0.0-321.0","1920x1080","","2815.5999999996275","58.33","img/238/5.5/0.5/bw/001.png","","","relaxing"
"","","","","","animation","322","1392819","0.0-322.0","1920x1080","","3605.89999999851","84.39","img/238/5.5/1.5/bw/001.png","","","relaxing"
"","","","","","animation","323","1396805","0.0-323.0","1920x1080","","3985","28.84","img/117/3.5/0.66667/bw/001.png","","","relaxing"
"","","","","","animation","324","1400100","0.0-324.0","1920x1080","","3292.9000000003725","91.93","img/314/5.5/0.5/bw/001.png","","","relaxing"
"","","","","","animation","325","1404723","0.0-325.0","1920x1080","","4620.4000000003725","23.81","img/117/3.5/1/bw/001.png","","","relaxing"
"","","","","","animation","326","1407812","0.0-326.0","1920x1080","","3087.2000000011176","31.61","img/314/4.5/0.66667/bw/001.png","","","relaxing"
"","","","","","animation","327","1410520","0.0-327.0","1920x1080","","2707.5999999996275","41.80","img/314/4/0.66667/bw/001.png","","","relaxing"
"","","","","","animation","328","1412406","0.0-328.0","1920x1080","","1884","51.72","img/117/4.5/1.5/bw/001.png","","","relaxing"
"","","","","","animation","329","1414141","0.0-329.0","1920x1080","","1733.699999999255","37.17","img/314/4.5/1/bw/001.png","","","relaxing"
"","","","","","animation","330","1417466","0.0-330.0","1920x1080","","3324.800000000745","7.14","img/117/2.5/2/bw/001.png","","","relaxing"
"","","","","","animation","331","1419762","0.0-331.0","1920x1080","","2293.5","30.16","img/314/3.5/1.5/bw/001.png","","","relaxing"
"","","","","","animation","332","1422882","0.0-332.0","1920x1080","","3119.60000000149","42.46","img/238/4.5/0.66667/bw/001.png","","","relaxing"
"","","","","","animation","333","1425270","0.0-333.0","1920x1080","","2385.2999999988824","66.53","img/314/4.5/1.5/bw/001.png","","","relaxing"
"","","","","","animation","334","1428990","0.0-334.0","1920x1080","","3718","44.44","img/314/3.5/1/bw/001.png","","","relaxing"
"","","","","","animation","335","1431445","0.0-335.0","1920x1080","","2453.699999999255","85.85","img/117/5.5/1.5/bw/001.png","","","relaxing"
"","","","","","animation","336","1433495","0.0-336.0","1920x1080","","2048.89999999851","87.96","img/117/5.5/1/bw/001.png","","","relaxing"
"","","","","","animation","337","1435903","0.0-337.0","1920x1080","","2407.199999999255","43.65","img/117/4/1.5/bw/001.png","","","relaxing"
"","","","","","animation","338","1438920","0.0-338.0","1920x1080","","3015.699999999255","37.30","img/117/4/0.66667/bw/001.png","","","relaxing"
"","","","","","animation","339","1442985","0.0-339.0","1920x1080","","4063.5999999996275","97","img/314/5.5/1.5/bw/001.png","","","relaxing"
"","","","","","animation","340","1446529","0.0-340.0","1920x1080","","3541.7000000011176","43.39","img/117/4/1/bw/001.png","","","relaxing"
"","","","","","animation","341","1449265","0.0-341.0","1920x1080","","2734.800000000745","2.12","img/117/2.5/1.5/bw/001.png","","","relaxing"
"","","","","","animation","342","1453120","0.0-342.0","1920x1080","","3854.5999999996275","0.53","img/117/2.5/1/bw/001.png","","","relaxing"
"","","","","","animation","343","1457797","0.0-343.0","1920x1080","","4675.5999999996275","78.17","img/314/5.5/0.66667/bw/001.png","","","relaxing"
"","","","","","animation","344","1460882","0.0-344.0","1920x1080","","3083.2999999988824","1.19","img/238/2.5/1/bw/001.png","","","relaxing"
"","","","","","animation","345","1463562","0.0-345.0","1920x1080","","2678.5","27.51","img/238/4/0.66667/bw/001.png","","","relaxing"
"","","","","","animation","346","1465811","0.0-346.0","1920x1080","","2248","38","img/238/4/2/bw/001.png","","","relaxing"
"","","","","","animation","347","1469729","0.0-347.0","1920x1080","","3916.10000000149","0.13","img/117/2.5/0.5/bw/001.png","","","relaxing"
"","","","","","animation","348","1471866","0.0-348.0","1920x1080","","2136.300000000745","23.94","img/238/4.5/0.5/bw/001.png","","","relaxing"
"","","","","","animation","349","1474434","0.0-349.0","1920x1080","","2566.9000000003725","69.97","img/117/5.5/2/bw/001.png","","","relaxing"
"","","","","","animation","350","1476070","0.0-350.0","1920x1080","","1634.4000000003725","45.24","img/117/4.5/0.66667/bw/001.png","","","relaxing"
"","","","","","animation","351","1478721","0.0-351.0","1920x1080","","2649.5999999996275","63.23","img/314/4.5/2/bw/001.png","","","relaxing"
"","","","","","animation","352","1480339","0.0-352.0","1920x1080","","1616.800000000745","25.26","img/238/3.5/1/bw/001.png","","","relaxing"
"","","","","","animation","353","1482195","0.0-353.0","1920x1080","","1853.699999999255","28.31","img/238/3.5/2/bw/001.png","","","relaxing"
"","","","","","animation","354","1485587","0.0-354.0","1920x1080","","3400","39.81","img/314/3.5/2/bw/001.png","","","relaxing"
"","","","","","animation","355","1487653","0.0-355.0","1920x1080","","2064.5","45.37","img/117/4/2/bw/001.png","","","relaxing"
"","","","","","animation","356","1491394","0.0-356.0","1920x1080","","3739.199999999255","77.91","img/314/5.5/1/bw/001.png","","","relaxing"
"","","","","","animation","357","1494386","0.0-357.0","1920x1080","","2991.5","9.92","img/238/2.5/1.5/bw/001.png","","","relaxing"
"","","","","","animation","358","1497890","0.0-358.0","1920x1080","","3501.89999999851","6.22","img/117/4/0.5/bw/001.png","","","relaxing"
"","","","","","animation","359","1500970","0.0-359.0","1920x1080","","3078.800000000745","49.47","img/314/4/1.5/bw/001.png","","","relaxing"
"","","","","","animation","360","1504274","0.0-360.0","1920x1080","","3302.5","31.08","img/117/3.5/1.5/bw/001.png","","","relaxing"
"","","","","","animation","361","1513175","0.0-361.0","1920x1080","","8900.400000000373","34.13","img/117/4.5/1/bw/001.png","","","relaxing"
"","","","","","animation","362","1515362","0.0-362.0","1920x1080","","2185.0999999996275","22.09","img/117/3.5/2/bw/001.png","","","relaxing"
"","","","","","animation","363","1517525","0.0-363.0","1920x1080","","2162.0999999996275","26.46","img/238/3.5/1.5/bw/001.png","","","relaxing"
"","","","","","animation","364","1520154","0.0-364.0","1920x1080","","2626.9000000003725","27.91","img/314/3.5/0.66667/bw/001.png","","","relaxing"
"","","","","","animation","365","1522637","0.0-365.0","1920x1080","","2482.199999999255","13.10","img/238/4/0.5/bw/001.png","","","relaxing"
"","","","","","animation","366","1525803","0.0-366.0","1920x1080","","3165","73.15","img/117/5.5/0.66667/bw/001.png","","","relaxing"
"","","","","","animation","367","1528161","0.0-367.0","1920x1080","","2356.9000000003725","58.60","img/238/4.5/1/bw/001.png","","","relaxing"
"","","","","","animation","368","1531187","0.0-368.0","1920x1080","","3024.199999999255","1.19","img/314/2.5/0.66667/bw/001.png","","","relaxing"
"","","","","","animation","369","1533797","0.0-369.0","1920x1080","","2609","99","img/238/5.5/2/bw/001.png","","","relaxing"
"","","","","","animation","370","1536242","0.0-370.0","1920x1080","","2443","19.05","img/117/3.5/0.5/bw/001.png","","","relaxing"
"","","","","","animation","371","1538642","0.0-371.0","1920x1080","","2398.5","2.12","img/314/2.5/0.5/bw/001.png","","","relaxing"
"","","","","","animation","372","1540442","0.0-372.0","1920x1080","","1799","12.83","img/314/3.5/0.5/bw/001.png","","","relaxing"
"","","","","","animation","373","1543737","0.0-373.0","1920x1080","","3293.5","73.81","img/117/5.5/0.5/bw/001.png","","","relaxing"
"","","","","","animation","374","1547131","0.0-374.0","1920x1080","","3399","6.75","img/238/2.5/0.66667/bw/001.png","","","relaxing"
"","","","","","animation","375","1549248","0.0-375.0","1920x1080","","2114.89999999851","8.99","img/238/2.5/0.5/bw/001.png","","","relaxing"
"","","","","","animation","376","1552022","0.0-376.0","1920x1080","","2772.800000000745","18.25","img/238/3.5/0.66667/bw/001.png","","","relaxing"
"","","","","","animation","377","1555068","0.0-377.0","1920x1080","","3044.199999999255","37.70","img/117/4.5/0.5/bw/001.png","","","relaxing"
"","","","","","animation","378","1558299","0.0-378.0","1920x1080","","3229","35.85","img/314/4/0.5/bw/001.png","","","relaxing"
"","","","","","animation","379","1561061","0.0-379.0","1920x1080","","2760.9000000003725","40.74","img/314/4/1/bw/001.png","","","relaxing"
"","","","","","animation","380","1568300","0.0-380.0","1920x1080","","7237.5999999996275","21","img/314/2.5/2/bw/001.png","","","relaxing"
"","","","","","animation","381","1571916","0.0-381.0","1920x1080","","3615","39","img/314/4/2/bw/001.png","","","relaxing"
"","","","","","animation","382","1574368","0.0-382.0","1920x1080","","2450.0999999996275","53","img/238/4.5/2/bw/001.png","","","relaxing"
"","","","","","animation","383","1576716","0.0-383.0","1920x1080","","2346.300000000745","74.47","img/314/5.5/2/bw/001.png","","","relaxing"
"","","","","","animation","384","1578831","0.0-384.0","1920x1080","","2113.699999999255","80.82","img/238/5.5/0.66667/bw/001.png","","","relaxing"
"","","","","","animation","385","1582472","0.0-385.0","1920x1080","","3640.199999999255","30.95","img/238/4/1.5/bw/001.png","","","relaxing"
"","","","","","animation","386","1586116","0.0-386.0","1920x1080","","3642.199999999255","26.32","img/238/4/1/bw/001.png","","","relaxing"
"","","","","","animation","387","1588155","0.0-387.0","1920x1080","","2037.800000000745","15.34","img/238/3.5/0.5/bw/001.png","","","relaxing"
"","","","","","animation","388","1591248","0.0-388.0","1920x1080","","3091.9000000003725","87.70","img/238/5.5/1/bw/001.png","","","relaxing"
"","","","","","animation","389","1594865","0.0-389.0","1920x1080","","3615.4000000003725","2.91","img/117/2.5/0.66667/bw/001.png","","","relaxing"
"","","","","","html-button-response","390","1598087","0.0-390.0","1920x1080","","3220.5","","<strong>Study Debriefing</strong><br><p class=""debrief""><strong>Background:</strong> The patterns you rated are called <em>fractals</em>. The term fractal describes a class of irregular curves or shapes for which any suitably chosen part is similar in shape to a given larger or smaller part when magnified or reduced to the same size. Fractal properties are found throughout the natural and manmade world. The series of animations you saw today displayed animated fractal patterns of a varying complexity.</p><p class=""debrief""><strong>Purpose of this study:</strong> We hope to better understand how the perception of static fractals differs from the perception of animated fractals, and how the speed of the animated patterns influences people&apos;s perception of them. Fractals allow us to study the perception of aesthetic properties (e.g. the perceived level of beauty in an image) without using recognizable content, which makes them an excellent tool for studying abstract aesthetic judgement.</p><p class=""debrief""><strong>Your part:</strong> Your participation has helped us to further understand how humans perceive these patterns across different levels of speed and complexity. This research with allow us to better understand how the visual system and brain process our ever-changing visual environments.<p class=""debrief""><strong>Feedback and Further information:</strong> If you have additional questions about this study, please feel free to ask the researcher, Nathan Gonzales-Hess at nhess @ uoregon.edu. If you have any questions concerning your rights as a research participant, please contact Research Compliance Services, 5237 University of Oregon, Eugene, OR 97403, 541-346-2510, or email researchCompliance @ uoregon.edu. You can also email the Human Subjects Coordinator for psychology and linguistics research at hscoord @ uoregon.edu. ","0","",""
"","","","","","html-button-response","391","1606072","0.0-391.0","1920x1080","","7967.5","","Thank you for participating in this study. <br>Please click below to finish the experiment and submit your responses.<br><br>","0","",""
"true","","","","","fullscreen","392","1607079","0.0-392.0","1920x1080","13:54 27/10/2022","","","","","",""
