"success","timeout","failed_images","failed_audio","failed_video","trial_type","trial_index","time_elapsed","internal_node_id","resolution","timeStamp","rt","response","stimulus","button_pressed","value","descriptor"
"true","false","[]","[]","[]","preload","0","43551","0.0-0.0","1920x1080","","","","","","",""
"true","false","[]","[]","[]","preload","1","83744","0.0-1.0","1920x1080","","","","","","",""
"true","false","[]","[]","[]","preload","2","128039","0.0-2.0","1920x1080","","","","","","",""
"true","","","","","fullscreen","3","244711","0.0-3.0","1920x1080","10:40 28/10/2022","","","","","",""
"","","","","","survey-html-form","4","258413","0.0-4.0","1920x1080","","13698.899999999965","{""age"":""23"",""gender"":""female""}","","","",""
"","","","","","html-button-response","5","327835","0.0-5.0","1920x1080","","69471.20000000001","","<div class=""complex"">You are going to see a series of animations.<br><br></div><div class=""complex"">Move the slider to indicate how <strong style=""text-transform:capitalize"">COMPLEX</strong> you find each animation.<br><br></div><div class=""complex"">0 = Least Complex<br></div><div class=""complex"">1 = Most Complex<br><br></div><div class=""complex"">Remember to use the <strong><em>entire range</em></strong> of the slider to make your ratings.<br></div><div class=""complex"">Please <strong><em>take your time</em></strong> and carefully consider each rating you make.<br><br></div><div class=""complex"">The study has five sections and will take about 45 minutes to complete.<br><br></div>","0","",""
"","","","","","call-function","6","327836","0.0-6.0","1920x1080","","","","","","",""
"","","","","","animation","7","344858","0.0-7.0","1920x1080","","17019.900000000023","6.61","img/117/4.5/1/bw/001.png","","","complex"
"","","","","","animation","8","355299","0.0-8.0","1920x1080","","10439.200000000012","24.60","img/117/2.5/0.66667/bw/001.png","","","complex"
"","","","","","animation","9","362714","0.0-9.0","1920x1080","","7414.400000000023","23.15","img/314/3.5/2/bw/001.png","","","complex"
"","","","","","animation","10","372946","0.0-10.0","1920x1080","","10231.399999999965","17.72","img/117/3.5/2/bw/001.png","","","complex"
"","","","","","animation","11","387112","0.0-11.0","1920x1080","","14278.600000000035","33.20","img/238/5.5/1/bw/001.png","","","complex"
"","","","","","animation","12","395144","0.0-12.0","1920x1080","","8030.899999999965","34.66","img/117/4/1/bw/001.png","","","complex"
"","","","","","animation","13","406984","0.0-13.0","1920x1080","","11839.699999999953","41","img/314/2.5/1.5/bw/001.png","","","complex"
"","","","","","animation","14","414872","0.0-14.0","1920x1080","","7887.099999999977","31.08","img/117/3.5/0.66667/bw/001.png","","","complex"
"","","","","","animation","15","422384","0.0-15.0","1920x1080","","7511","40.21","img/117/4/0.66667/bw/001.png","","","complex"
"","","","","","animation","16","437224","0.0-16.0","1920x1080","","14839.099999999977","37.04","img/314/4.5/1.5/bw/001.png","","","complex"
"","","","","","animation","17","448668","0.0-17.0","1920x1080","","11558.899999999965","47.22","img/238/4.5/0.5/bw/001.png","","","complex"
"","","","","","animation","18","460979","0.0-18.0","1920x1080","","12310.799999999988","38.10","img/238/4/0.5/bw/001.png","","","complex"
"","","","","","animation","19","476051","0.0-19.0","1920x1080","","15071","49.74","img/314/3.5/1/bw/001.png","","","complex"
"","","","","","animation","20","482500","0.0-20.0","1920x1080","","6447.799999999988","52.25","img/314/2.5/0.66667/bw/001.png","","","complex"
"","","","","","animation","21","497620","0.0-21.0","1920x1080","","15119.099999999977","46.30","img/238/4/2/bw/001.png","","","complex"
"","","","","","animation","22","508055","0.0-22.0","1920x1080","","10551.29999999993","53.44","img/314/4.5/2/bw/001.png","","","complex"
"","","","","","animation","23","526415","0.0-23.0","1920x1080","","18358.599999999977","49.60","img/314/4/1/bw/001.png","","","complex"
"","","","","","animation","24","536839","0.0-24.0","1920x1080","","10423.400000000023","48.54","img/238/4.5/1.5/bw/001.png","","","complex"
"","","","","","animation","25","540455","0.0-25.0","1920x1080","","3615.29999999993","51.98","img/238/3.5/1/bw/001.png","","","complex"
"","","","","","animation","26","546671","0.0-26.0","1920x1080","","6215.099999999977","50.66","img/238/3.5/1.5/bw/001.png","","","complex"
"","","","","","animation","27","549455","0.0-27.0","1920x1080","","2782.9000000000233","55.42","img/117/3.5/1/bw/001.png","","","complex"
"","","","","","animation","28","557063","0.0-28.0","1920x1080","","7607.199999999953","55.42","img/314/4/0.66667/bw/001.png","","","complex"
"","","","","","animation","29","568352","0.0-29.0","1920x1080","","11407.300000000047","55.82","img/238/5.5/2/bw/001.png","","","complex"
"","","","","","animation","30","585160","0.0-30.0","1920x1080","","16806.699999999953","52.65","img/238/4.5/0.66667/bw/001.png","","","complex"
"","","","","","animation","31","599936","0.0-31.0","1920x1080","","14775.400000000023","50.40","img/314/5.5/2/bw/001.png","","","complex"
"","","","","","animation","32","605152","0.0-32.0","1920x1080","","5214.699999999953","53.97","img/314/2.5/0.5/bw/001.png","","","complex"
"","","","","","animation","33","613240","0.0-33.0","1920x1080","","8087.300000000047","49.07","img/314/5.5/0.66667/bw/001.png","","","complex"
"","","","","","animation","34","619264","0.0-34.0","1920x1080","","6023.5","53.84","img/117/5.5/1.5/bw/001.png","","","complex"
"","","","","","animation","35","626235","0.0-35.0","1920x1080","","7031.20000000007","53.31","img/238/4/0.66667/bw/001.png","","","complex"
"","","","","","animation","36","639571","0.0-36.0","1920x1080","","13335.20000000007","55.29","img/117/2.5/0.5/bw/001.png","","","complex"
"","","","","","animation","37","645507","0.0-37.0","1920x1080","","5934.900000000023","51","img/117/5.5/1/bw/001.png","","","complex"
"","","","","","animation","38","653803","0.0-38.0","1920x1080","","8294.599999999977","59.39","img/117/2.5/2/bw/001.png","","","complex"
"","","","","","animation","39","670171","0.0-39.0","1920x1080","","16367.099999999977","53.17","img/314/5.5/1.5/bw/001.png","","","complex"
"","","","","","animation","40","678043","0.0-40.0","1920x1080","","7871.300000000047","52.12","img/117/3.5/1.5/bw/001.png","","","complex"
"","","","","","animation","41","688509","0.0-41.0","1920x1080","","10470.400000000023","58","img/117/5.5/0.5/bw/001.png","","","complex"
"","","","","","animation","42","694758","0.0-42.0","1920x1080","","6248.099999999977","53.84","img/238/2.5/1.5/bw/001.png","","","complex"
"","","","","","animation","43","705485","0.0-43.0","1920x1080","","10725.70000000007","51.06","img/238/3.5/0.66667/bw/001.png","","","complex"
"","","","","","animation","44","720407","0.0-44.0","1920x1080","","14920.600000000093","51.85","img/238/3.5/0.5/bw/001.png","","","complex"
"","","","","","animation","45","726486","0.0-45.0","1920x1080","","6077.70000000007","55.95","img/117/4.5/2/bw/001.png","","","complex"
"","","","","","animation","46","731845","0.0-46.0","1920x1080","","5358.899999999907","49.47","img/238/4.5/1/bw/001.png","","","complex"
"","","","","","animation","47","736109","0.0-47.0","1920x1080","","4262.800000000047","56.35","img/117/2.5/1/bw/001.png","","","complex"
"","","","","","animation","48","739223","0.0-48.0","1920x1080","","3113.600000000093","58.99","img/117/3.5/0.5/bw/001.png","","","complex"
"","","","","","animation","49","743245","0.0-49.0","1920x1080","","4014.6999999999534","62.83","img/238/2.5/2/bw/001.png","","","complex"
"","","","","","animation","50","752530","0.0-50.0","1920x1080","","9284.5","53.31","img/314/5.5/0.5/bw/001.png","","","complex"
"","","","","","animation","51","759659","0.0-51.0","1920x1080","","7127.400000000023","54.23","img/117/4/0.5/bw/001.png","","","complex"
"","","","","","animation","52","763730","0.0-52.0","1920x1080","","4070.3000000000466","52.38","img/238/4/1.5/bw/001.png","","","complex"
"","","","","","animation","53","766603","0.0-53.0","1920x1080","","2871.399999999907","58.47","img/117/2.5/1.5/bw/001.png","","","complex"
"","","","","","animation","54","771667","0.0-54.0","1920x1080","","5063.099999999977","52.38","img/314/4.5/1/bw/001.png","","","complex"
"","","","","","animation","55","776755","0.0-55.0","1920x1080","","5087.100000000093","57.01","img/314/2.5/2/bw/001.png","","","complex"
"","","","","","animation","56","781834","0.0-56.0","1920x1080","","5078.400000000023","51.98","img/117/4.5/1.5/bw/001.png","","","complex"
"","","","","","animation","57","787202","0.0-57.0","1920x1080","","5366.70000000007","51.46","img/238/4/1/bw/001.png","","","complex"
"","","","","","animation","58","792196","0.0-58.0","1920x1080","","4992.5","51.85","img/314/4/1.5/bw/001.png","","","complex"
"","","","","","animation","59","798554","0.0-59.0","1920x1080","","6357.699999999953","45.90","img/238/4.5/2/bw/001.png","","","complex"
"","","","","","animation","60","809745","0.0-60.0","1920x1080","","11190.900000000023","50.13","img/238/3.5/2/bw/001.png","","","complex"
"","","","","","animation","61","818137","0.0-61.0","1920x1080","","8391.5","42.99","img/238/5.5/0.66667/bw/001.png","","","complex"
"","","","","","animation","62","823457","0.0-62.0","1920x1080","","5318.899999999907","51.85","img/314/3.5/0.5/bw/001.png","","","complex"
"","","","","","animation","63","827065","0.0-63.0","1920x1080","","3606.9000000000233","51.46","img/314/3.5/1.5/bw/001.png","","","complex"
"","","","","","animation","64","831401","0.0-64.0","1920x1080","","4335","49.87","img/117/4/2/bw/001.png","","","complex"
"","","","","","animation","65","835833","0.0-65.0","1920x1080","","4430.800000000047","59.26","img/314/2.5/1/bw/001.png","","","complex"
"","","","","","animation","66","844585","0.0-66.0","1920x1080","","8751.099999999977","55.69","img/238/5.5/0.5/bw/001.png","","","complex"
"","","","","","animation","67","854705","0.0-67.0","1920x1080","","10119.29999999993","52.38","img/117/4/1.5/bw/001.png","","","complex"
"","","","","","animation","68","857481","0.0-68.0","1920x1080","","2774.8000000000466","56.75","img/238/2.5/0.5/bw/001.png","","","complex"
"","","","","","animation","69","864451","0.0-69.0","1920x1080","","6966.5","56.88","img/314/4/0.5/bw/001.png","","","complex"
"","","","","","animation","70","872663","0.0-70.0","1920x1080","","8210.199999999953","54.10","img/314/4.5/0.5/bw/001.png","","","complex"
"","","","","","animation","71","877788","0.0-71.0","1920x1080","","5123.899999999907","48.15","img/238/5.5/1.5/bw/001.png","","","complex"
"","","","","","animation","72","884083","0.0-72.0","1920x1080","","6294.29999999993","59","img/238/2.5/0.66667/bw/001.png","","","complex"
"","","","","","animation","73","891003","0.0-73.0","1920x1080","","6919.20000000007","50.66","img/314/4.5/0.66667/bw/001.png","","","complex"
"","","","","","animation","74","898388","0.0-74.0","1920x1080","","7383.199999999953","57.41","img/238/2.5/1/bw/001.png","","","complex"
"","","","","","animation","75","908540","0.0-75.0","1920x1080","","10150.900000000023","51.19","img/117/5.5/0.66667/bw/001.png","","","complex"
"","","","","","animation","76","916563","0.0-76.0","1920x1080","","8022.5","55.56","img/314/5.5/1/bw/001.png","","","complex"
"","","","","","animation","77","921762","0.0-77.0","1920x1080","","5199.099999999977","57.80","img/314/3.5/0.66667/bw/001.png","","","complex"
"","","","","","animation","78","927946","0.0-78.0","1920x1080","","6182.900000000023","60.32","img/117/5.5/2/bw/001.png","","","complex"
"","","","","","animation","79","932379","0.0-79.0","1920x1080","","4431.900000000023","59.13","img/117/4.5/0.5/bw/001.png","","","complex"
"","","","","","animation","80","938266","0.0-80.0","1920x1080","","5886","60.45","img/314/4/2/bw/001.png","","","complex"
"","","","","","animation","81","944262","0.0-81.0","1920x1080","","5994.400000000023","59.66","img/117/4.5/0.66667/bw/001.png","","","complex"
"","","","","","html-button-response","82","974739","0.0-82.0","1920x1080","","30475.699999999953","","<div class=""intro"">You are about to view a new series of animations.<br><br></div><div class=""intro"">You will evaluate them based on a different descriptor.<br><br></div><div class=""intro"">Move the slider to indicate how <strong style=""text-transform:capitalize"">NATURAL</strong> you find each animation.<br><br></div><div class=""intro"">0 = Least Natural<br></div><div class=""intro"">1 = Most Natural<br><br></div><div class=""intro"">Remember to use the <strong><em>entire range</em></strong> of the slider to make your ratings.<br></div><div class=""intro"">Please <strong><em>take your time</em></strong> and carefully consider each rating you make.<br><br></div>","0","",""
"","","","","","call-function","83","974743","0.0-83.0","1920x1080","","","","","","",""
"","","","","","animation","84","994605","0.0-84.0","1920x1080","","19858.199999999953","76.98","img/314/3.5/1.5/bw/001.png","","","natural"
"","","","","","animation","85","1002525","0.0-85.0","1920x1080","","7918.20000000007","41.67","img/238/3.5/0.5/bw/001.png","","","natural"
"","","","","","animation","86","1010701","0.0-86.0","1920x1080","","8174.40000000014","81.61","img/117/4.5/2/bw/001.png","","","natural"
"","","","","","animation","87","1014869","0.0-87.0","1920x1080","","4167.09999999986","43.78","img/117/4/0.5/bw/001.png","","","natural"
"","","","","","animation","88","1019501","0.0-88.0","1920x1080","","4631","71.16","img/117/3.5/1.5/bw/001.png","","","natural"
"","","","","","animation","89","1025957","0.0-89.0","1920x1080","","6455","49.07","img/117/3.5/0.66667/bw/001.png","","","natural"
"","","","","","animation","90","1033448","0.0-90.0","1920x1080","","7489.5","39.02","img/314/4/0.66667/bw/001.png","","","natural"
"","","","","","animation","91","1037869","0.0-91.0","1920x1080","","4419.800000000047","4.76","img/314/2.5/1/bw/001.png","","","natural"
"","","","","","animation","92","1044875","0.0-92.0","1920x1080","","7010.699999999953","63.89","img/314/4/1/bw/001.png","","","natural"
"","","","","","animation","93","1049041","0.0-93.0","1920x1080","","4165","32.54","img/117/4/0.66667/bw/001.png","","","natural"
"","","","","","animation","94","1053295","0.0-94.0","1920x1080","","4252.699999999953","2.78","img/117/3.5/0.5/bw/001.png","","","natural"
"","","","","","animation","95","1059607","0.0-95.0","1920x1080","","6311","83.86","img/117/4/1.5/bw/001.png","","","natural"
"","","","","","animation","96","1064031","0.0-96.0","1920x1080","","4422.800000000047","0.13","img/238/2.5/0.5/bw/001.png","","","natural"
"","","","","","animation","97","1070359","0.0-97.0","1920x1080","","6325.90000000014","50.53","img/117/2.5/2/bw/001.png","","","natural"
"","","","","","animation","98","1074191","0.0-98.0","1920x1080","","3831.3000000000466","5.42","img/238/4/0.5/bw/001.png","","","natural"
"","","","","","animation","99","1079327","0.0-99.0","1920x1080","","5134.699999999953","88.62","img/117/3.5/2/bw/001.png","","","natural"
"","","","","","animation","100","1086441","0.0-100.0","1920x1080","","7113.100000000093","50.26","img/238/4/1/bw/001.png","","","natural"
"","","","","","animation","101","1094215","0.0-101.0","1920x1080","","7772.5","68","img/117/4.5/1/bw/001.png","","","natural"
"","","","","","animation","102","1099527","0.0-102.0","1920x1080","","5310","64.29","img/238/3.5/2/bw/001.png","","","natural"
"","","","","","animation","103","1107661","0.0-103.0","1920x1080","","8134.90000000014","89.81","img/238/4.5/2/bw/001.png","","","natural"
"","","","","","animation","104","1112706","0.0-104.0","1920x1080","","5043.699999999953","6.88","img/238/3.5/0.66667/bw/001.png","","","natural"
"","","","","","animation","105","1118606","0.0-105.0","1920x1080","","5898.300000000047","100","img/117/5.5/2/bw/001.png","","","natural"
"","","","","","animation","106","1123573","0.0-106.0","1920x1080","","4965.5","94","img/314/4.5/0.66667/bw/001.png","","","natural"
"","","","","","animation","107","1133871","0.0-107.0","1920x1080","","10297.40000000014","48.41","img/117/4.5/0.5/bw/001.png","","","natural"
"","","","","","animation","108","1142661","0.0-108.0","1920x1080","","8788.800000000047","24.47","img/314/3.5/0.66667/bw/001.png","","","natural"
"","","","","","animation","109","1152765","0.0-109.0","1920x1080","","10102.90000000014","49.34","img/238/3.5/1.5/bw/001.png","","","natural"
"","","","","","animation","110","1156365","0.0-110.0","1920x1080","","3598.600000000093","48.54","img/117/3.5/1/bw/001.png","","","natural"
"","","","","","animation","111","1160341","0.0-111.0","1920x1080","","3974.5999999998603","76.98","img/238/2.5/1.5/bw/001.png","","","natural"
"","","","","","animation","112","1163823","0.0-112.0","1920x1080","","3479","65.34","img/314/2.5/1.5/bw/001.png","","","natural"
"","","","","","animation","113","1168623","0.0-113.0","1920x1080","","4799.59999999986","1.19","img/117/2.5/0.5/bw/001.png","","","natural"
"","","","","","animation","114","1173423","0.0-114.0","1920x1080","","4799","74.47","img/238/4.5/1/bw/001.png","","","natural"
"","","","","","animation","115","1177878","0.0-115.0","1920x1080","","4454.300000000047","65.61","img/314/3.5/1/bw/001.png","","","natural"
"","","","","","animation","116","1181407","0.0-116.0","1920x1080","","3527.1999999999534","0","img/117/2.5/0.66667/bw/001.png","","","natural"
"","","","","","animation","117","1183790","0.0-117.0","1920x1080","","2382.600000000093","0.93","img/238/2.5/0.66667/bw/001.png","","","natural"
"","","","","","animation","118","1187990","0.0-118.0","1920x1080","","4199.199999999953","26.72","img/238/4/0.66667/bw/001.png","","","natural"
"","","","","","animation","119","1194143","0.0-119.0","1920x1080","","6151.09999999986","54.89","img/117/4.5/1.5/bw/001.png","","","natural"
"","","","","","animation","120","1198231","0.0-120.0","1920x1080","","4087.399999999907","10.19","img/314/4.5/0.5/bw/001.png","","","natural"
"","","","","","animation","121","1207658","0.0-121.0","1920x1080","","9425.699999999953","83","img/314/5.5/1.5/bw/001.png","","","natural"
"","","","","","animation","122","1212247","0.0-122.0","1920x1080","","4588","93.25","img/238/5.5/1.5/bw/001.png","","","natural"
"","","","","","animation","123","1217142","0.0-123.0","1920x1080","","4894.699999999953","44.44","img/314/5.5/0.5/bw/001.png","","","natural"
"","","","","","animation","124","1222016","0.0-124.0","1920x1080","","4871.5","50.26","img/314/5.5/2/bw/001.png","","","natural"
"","","","","","animation","125","1225448","0.0-125.0","1920x1080","","3430.399999999907","35.71","img/314/4/2/bw/001.png","","","natural"
"","","","","","animation","126","1229800","0.0-126.0","1920x1080","","4351","43.78","img/238/4/1.5/bw/001.png","","","natural"
"","","","","","animation","127","1234275","0.0-127.0","1920x1080","","4473.199999999953","65.21","img/314/5.5/1/bw/001.png","","","natural"
"","","","","","animation","128","1239664","0.0-128.0","1920x1080","","5389","32.80","img/238/4.5/0.5/bw/001.png","","","natural"
"","","","","","animation","129","1243952","0.0-129.0","1920x1080","","4287.09999999986","49.07","img/314/4.5/1/bw/001.png","","","natural"
"","","","","","animation","130","1246712","0.0-130.0","1920x1080","","2758.6999999999534","1.72","img/314/2.5/0.5/bw/001.png","","","natural"
"","","","","","animation","131","1251025","0.0-131.0","1920x1080","","4311.800000000047","42.33","img/238/4.5/0.66667/bw/001.png","","","natural"
"","","","","","animation","132","1255924","0.0-132.0","1920x1080","","4898.199999999953","46","img/238/4/2/bw/001.png","","","natural"
"","","","","","animation","133","1258832","0.0-133.0","1920x1080","","2907.399999999907","23.68","img/238/3.5/1/bw/001.png","","","natural"
"","","","","","animation","134","1262016","0.0-134.0","1920x1080","","3183.0999999998603","17.46","img/314/3.5/0.5/bw/001.png","","","natural"
"","","","","","animation","135","1267325","0.0-135.0","1920x1080","","5307.199999999953","45.63","img/117/4/1/bw/001.png","","","natural"
"","","","","","animation","136","1270841","0.0-136.0","1920x1080","","3515.8000000000466","0.13","img/314/2.5/0.66667/bw/001.png","","","natural"
"","","","","","animation","137","1274858","0.0-137.0","1920x1080","","4015.3000000000466","4.89","img/117/2.5/1/bw/001.png","","","natural"
"","","","","","animation","138","1281366","0.0-138.0","1920x1080","","6509.59999999986","75.40","img/238/5.5/1/bw/001.png","","","natural"
"","","","","","animation","139","1287088","0.0-139.0","1920x1080","","5721","59.52","img/314/3.5/2/bw/001.png","","","natural"
"","","","","","animation","140","1293078","0.0-140.0","1920x1080","","5988.700000000186","50.40","img/238/5.5/0.5/bw/001.png","","","natural"
"","","","","","animation","141","1299998","0.0-141.0","1920x1080","","6918.300000000047","78.70","img/117/5.5/0.66667/bw/001.png","","","natural"
"","","","","","animation","142","1306894","0.0-142.0","1920x1080","","6894.700000000186","26.98","img/314/4/0.5/bw/001.png","","","natural"
"","","","","","animation","143","1313750","0.0-143.0","1920x1080","","6855.100000000093","50.79","img/117/4/2/bw/001.png","","","natural"
"","","","","","animation","144","1317814","0.0-144.0","1920x1080","","4062.7000000001863","70.24","img/238/5.5/2/bw/001.png","","","natural"
"","","","","","animation","145","1322489","0.0-145.0","1920x1080","","4673.40000000014","61.77","img/117/2.5/1.5/bw/001.png","","","natural"
"","","","","","animation","146","1327790","0.0-146.0","1920x1080","","5299.199999999953","51.06","img/238/4.5/1.5/bw/001.png","","","natural"
"","","","","","animation","147","1331094","0.0-147.0","1920x1080","","3302.8000000000466","43.92","img/117/4.5/0.66667/bw/001.png","","","natural"
"","","","","","animation","148","1335806","0.0-148.0","1920x1080","","4710.799999999814","6.22","img/238/2.5/1/bw/001.png","","","natural"
"","","","","","animation","149","1340689","0.0-149.0","1920x1080","","4881.700000000186","23.54","img/314/2.5/2/bw/001.png","","","natural"
"","","","","","animation","150","1347772","0.0-150.0","1920x1080","","7084.300000000047","48.28","img/314/4/1.5/bw/001.png","","","natural"
"","","","","","animation","151","1354372","0.0-151.0","1920x1080","","6598.699999999953","54.37","img/314/4.5/1.5/bw/001.png","","","natural"
"","","","","","animation","152","1358076","0.0-152.0","1920x1080","","3701.100000000093","50.13","img/117/5.5/0.5/bw/001.png","","","natural"
"","","","","","animation","153","1362380","0.0-153.0","1920x1080","","4303","52.91","img/117/5.5/1.5/bw/001.png","","","natural"
"","","","","","animation","154","1366521","0.0-154.0","1920x1080","","4139.09999999986","70.24","img/238/5.5/0.66667/bw/001.png","","","natural"
"","","","","","animation","155","1370789","0.0-155.0","1920x1080","","4266.699999999953","62.57","img/314/4.5/2/bw/001.png","","","natural"
"","","","","","animation","156","1375260","0.0-156.0","1920x1080","","4470.199999999953","81.88","img/314/5.5/0.66667/bw/001.png","","","natural"
"","","","","","animation","157","1381670","0.0-157.0","1920x1080","","6408.40000000014","35.32","img/238/2.5/2/bw/001.png","","","natural"
"","","","","","animation","158","1386244","0.0-158.0","1920x1080","","4573.200000000186","74.47","img/117/5.5/1/bw/001.png","","","natural"
"","","","","","html-button-response","159","1407467","0.0-159.0","1920x1080","","21214.699999999953","","<div class=""intro"">You are about to view a new series of animations.<br><br></div><div class=""intro"">You will evaluate them based on a different descriptor.<br><br></div><div class=""intro"">Move the slider to indicate how <strong style=""text-transform:capitalize"">APPEALING</strong> you find each animation.<br><br></div><div class=""intro"">0 = Least Appealing<br></div><div class=""intro"">1 = Most Appealing<br><br></div><div class=""intro"">Remember to use the <strong><em>entire range</em></strong> of the slider to make your ratings.<br></div><div class=""intro"">Please <strong><em>take your time</em></strong> and carefully consider each rating you make.<br><br></div>","0","",""
"","","","","","call-function","160","1407468","0.0-160.0","1920x1080","","","","","","",""
"","","","","","animation","161","1411360","0.0-161.0","1920x1080","","3890.8000000000466","0","img/238/2.5/1/bw/001.png","","","appealing"
"","","","","","animation","162","1418043","0.0-162.0","1920x1080","","6681.90000000014","3.31","img/117/2.5/2/bw/001.png","","","appealing"
"","","","","","animation","163","1429283","0.0-163.0","1920x1080","","11237.699999999953","42","img/117/3.5/1.5/bw/001.png","","","appealing"
"","","","","","animation","164","1434210","0.0-164.0","1920x1080","","4925.899999999907","90.21","img/238/5.5/0.66667/bw/001.png","","","appealing"
"","","","","","animation","165","1438810","0.0-165.0","1920x1080","","4598.100000000093","19.71","img/117/3.5/0.5/bw/001.png","","","appealing"
"","","","","","animation","166","1443467","0.0-166.0","1920x1080","","4655.299999999814","34.92","img/117/4.5/0.66667/bw/001.png","","","appealing"
"","","","","","animation","167","1447619","0.0-167.0","1920x1080","","4150.699999999953","96","img/238/5.5/0.5/bw/001.png","","","appealing"
"","","","","","animation","168","1454651","0.0-168.0","1920x1080","","7030.600000000093","42.06","img/314/3.5/1.5/bw/001.png","","","appealing"
"","","","","","animation","169","1458578","0.0-169.0","1920x1080","","3925.9000000001397","0.93","img/238/2.5/0.66667/bw/001.png","","","appealing"
"","","","","","animation","170","1468612","0.0-170.0","1920x1080","","10038.700000000186","40.61","img/238/4/1.5/bw/001.png","","","appealing"
"","","","","","animation","171","1472153","0.0-171.0","1920x1080","","3539.600000000093","8.07","img/117/4/0.5/bw/001.png","","","appealing"
"","","","","","animation","172","1483436","0.0-172.0","1920x1080","","11282.199999999953","46.43","img/314/4/1.5/bw/001.png","","","appealing"
"","","","","","animation","173","1488737","0.0-173.0","1920x1080","","5298.5","43.65","img/117/3.5/2/bw/001.png","","","appealing"
"","","","","","animation","174","1493754","0.0-174.0","1920x1080","","5015.799999999814","52.25","img/117/4.5/1.5/bw/001.png","","","appealing"
"","","","","","animation","175","1499892","0.0-175.0","1920x1080","","6137","41.14","img/238/4.5/0.66667/bw/001.png","","","appealing"
"","","","","","animation","176","1508092","0.0-176.0","1920x1080","","8198.799999999814","46.16","img/117/5.5/0.5/bw/001.png","","","appealing"
"","","","","","animation","177","1510820","0.0-177.0","1920x1080","","2726.399999999907","0","img/314/2.5/0.5/bw/001.png","","","appealing"
"","","","","","animation","178","1514336","0.0-178.0","1920x1080","","3515.1999999999534","10.45","img/238/2.5/1.5/bw/001.png","","","appealing"
"","","","","","animation","179","1520956","0.0-179.0","1920x1080","","6618.100000000093","60.98","img/314/4.5/1/bw/001.png","","","appealing"
"","","","","","animation","180","1526182","0.0-180.0","1920x1080","","5223.09999999986","64.95","img/238/4.5/1/bw/001.png","","","appealing"
"","","","","","animation","181","1531358","0.0-181.0","1920x1080","","5174.800000000047","61.24","img/238/4/2/bw/001.png","","","appealing"
"","","","","","animation","182","1535942","0.0-182.0","1920x1080","","4582.5","92.72","img/117/5.5/0.66667/bw/001.png","","","appealing"
"","","","","","animation","183","1539105","0.0-183.0","1920x1080","","3161.1999999999534","0.93","img/314/2.5/1/bw/001.png","","","appealing"
"","","","","","animation","184","1544526","0.0-184.0","1920x1080","","5419.699999999953","20.63","img/117/4/1.5/bw/001.png","","","appealing"
"","","","","","animation","185","1548871","0.0-185.0","1920x1080","","4343.90000000014","25.93","img/238/4/1/bw/001.png","","","appealing"
"","","","","","animation","186","1552605","0.0-186.0","1920x1080","","3733.1999999999534","0.53","img/314/2.5/0.66667/bw/001.png","","","appealing"
"","","","","","animation","187","1559742","0.0-187.0","1920x1080","","7135.5","57.54","img/314/4.5/2/bw/001.png","","","appealing"
"","","","","","animation","188","1563046","0.0-188.0","1920x1080","","3302.100000000093","38.76","img/314/4/0.66667/bw/001.png","","","appealing"
"","","","","","animation","189","1567014","0.0-189.0","1920x1080","","3966.1999999999534","38.76","img/314/4/1/bw/001.png","","","appealing"
"","","","","","animation","190","1571121","0.0-190.0","1920x1080","","4105.800000000047","51.98","img/314/4.5/0.66667/bw/001.png","","","appealing"
"","","","","","animation","191","1576262","0.0-191.0","1920x1080","","5139.5","97","img/238/5.5/2/bw/001.png","","","appealing"
"","","","","","animation","192","1580087","0.0-192.0","1920x1080","","3823.9000000001397","0.79","img/314/2.5/2/bw/001.png","","","appealing"
"","","","","","animation","193","1584135","0.0-193.0","1920x1080","","4048.899999999907","8.60","img/117/3.5/0.66667/bw/001.png","","","appealing"
"","","","","","animation","194","1589769","0.0-194.0","1920x1080","","5632.300000000047","95","img/314/5.5/1/bw/001.png","","","appealing"
"","","","","","animation","195","1598352","0.0-195.0","1920x1080","","8581.199999999953","99","img/238/5.5/1/bw/001.png","","","appealing"
"","","","","","animation","196","1602443","0.0-196.0","1920x1080","","4089.8000000000466","37.83","img/238/4/0.5/bw/001.png","","","appealing"
"","","","","","animation","197","1608409","0.0-197.0","1920x1080","","5964.199999999953","97","img/314/5.5/2/bw/001.png","","","appealing"
"","","","","","animation","198","1613211","0.0-198.0","1920x1080","","4799.5","46.16","img/117/4.5/0.5/bw/001.png","","","appealing"
"","","","","","animation","199","1619635","0.0-199.0","1920x1080","","6422.600000000093","43.25","img/117/4/2/bw/001.png","","","appealing"
"","","","","","animation","200","1628843","0.0-200.0","1920x1080","","9205.800000000047","53","img/117/4.5/2/bw/001.png","","","appealing"
"","","","","","animation","201","1632603","0.0-201.0","1920x1080","","3758.5","0.79","img/117/2.5/1/bw/001.png","","","appealing"
"","","","","","animation","202","1636302","0.0-202.0","1920x1080","","3697.5999999998603","10.32","img/238/3.5/0.66667/bw/001.png","","","appealing"
"","","","","","animation","203","1647077","0.0-203.0","1920x1080","","10772.199999999953","99","img/117/5.5/2/bw/001.png","","","appealing"
"","","","","","animation","204","1650045","0.0-204.0","1920x1080","","2966.0999999998603","0","img/117/2.5/0.5/bw/001.png","","","appealing"
"","","","","","animation","205","1652893","0.0-205.0","1920x1080","","2846.6999999999534","20.90","img/117/4/1/bw/001.png","","","appealing"
"","","","","","animation","206","1657453","0.0-206.0","1920x1080","","4559.200000000186","41.14","img/314/4/2/bw/001.png","","","appealing"
"","","","","","animation","207","1661603","0.0-207.0","1920x1080","","4149","94","img/314/5.5/0.66667/bw/001.png","","","appealing"
"","","","","","animation","208","1664972","0.0-208.0","1920x1080","","3367.5","8.99","img/117/3.5/1/bw/001.png","","","appealing"
"","","","","","animation","209","1667836","0.0-209.0","1920x1080","","2862.600000000093","0.40","img/238/2.5/0.5/bw/001.png","","","appealing"
"","","","","","animation","210","1673136","0.0-210.0","1920x1080","","5298.699999999953","28.57","img/238/3.5/1.5/bw/001.png","","","appealing"
"","","","","","animation","211","1676293","0.0-211.0","1920x1080","","3153.3000000000466","20.50","img/238/3.5/2/bw/001.png","","","appealing"
"","","","","","animation","212","1679525","0.0-212.0","1920x1080","","3231","4.37","img/314/3.5/0.5/bw/001.png","","","appealing"
"","","","","","animation","213","1687753","0.0-213.0","1920x1080","","8227","96","img/238/5.5/1.5/bw/001.png","","","appealing"
"","","","","","animation","214","1694486","0.0-214.0","1920x1080","","6731.800000000047","98","img/314/5.5/1.5/bw/001.png","","","appealing"
"","","","","","animation","215","1697136","0.0-215.0","1920x1080","","2648.3000000000466","13.36","img/314/3.5/0.66667/bw/001.png","","","appealing"
"","","","","","animation","216","1701627","0.0-216.0","1920x1080","","4491.5","97","img/117/5.5/1/bw/001.png","","","appealing"
"","","","","","animation","217","1705201","0.0-217.0","1920x1080","","3572.7999999998137","13.62","img/117/2.5/1.5/bw/001.png","","","appealing"
"","","","","","animation","218","1711034","0.0-218.0","1920x1080","","5831.600000000093","28.97","img/117/4.5/1/bw/001.png","","","appealing"
"","","","","","animation","219","1716968","0.0-219.0","1920x1080","","5931.399999999907","42.06","img/314/4.5/0.5/bw/001.png","","","appealing"
"","","","","","animation","220","1720243","0.0-220.0","1920x1080","","3272.0999999998603","24.34","img/117/4/0.66667/bw/001.png","","","appealing"
"","","","","","animation","221","1724951","0.0-221.0","1920x1080","","4706.800000000047","6.08","img/238/2.5/2/bw/001.png","","","appealing"
"","","","","","animation","222","1729139","0.0-222.0","1920x1080","","4185.800000000047","11.64","img/314/4/0.5/bw/001.png","","","appealing"
"","","","","","animation","223","1736301","0.0-223.0","1920x1080","","7160.700000000186","79.76","img/117/5.5/1.5/bw/001.png","","","appealing"
"","","","","","animation","224","1738751","0.0-224.0","1920x1080","","2448.8000000000466","14.81","img/238/3.5/0.5/bw/001.png","","","appealing"
"","","","","","animation","225","1741843","0.0-225.0","1920x1080","","3090.8000000000466","0","img/314/2.5/1.5/bw/001.png","","","appealing"
"","","","","","animation","226","1747107","0.0-226.0","1920x1080","","5262.5","18.39","img/314/3.5/1/bw/001.png","","","appealing"
"","","","","","animation","227","1756258","0.0-227.0","1920x1080","","9149.90000000014","24.21","img/314/3.5/2/bw/001.png","","","appealing"
"","","","","","animation","228","1763820","0.0-228.0","1920x1080","","7558.5","68.92","img/238/4.5/2/bw/001.png","","","appealing"
"","","","","","animation","229","1768003","0.0-229.0","1920x1080","","4181.09999999986","53.17","img/238/4/0.66667/bw/001.png","","","appealing"
"","","","","","animation","230","1774169","0.0-230.0","1920x1080","","6164.40000000014","62.30","img/238/4.5/1.5/bw/001.png","","","appealing"
"","","","","","animation","231","1782452","0.0-231.0","1920x1080","","8280.90000000014","65.34","img/314/4.5/1.5/bw/001.png","","","appealing"
"","","","","","animation","232","1788076","0.0-232.0","1920x1080","","5622.600000000093","72.22","img/314/5.5/0.5/bw/001.png","","","appealing"
"","","","","","animation","233","1790052","0.0-233.0","1920x1080","","1973.6000000000931","0.79","img/117/2.5/0.66667/bw/001.png","","","appealing"
"","","","","","animation","234","1798140","0.0-234.0","1920x1080","","8087.300000000047","49","img/238/4.5/0.5/bw/001.png","","","appealing"
"","","","","","animation","235","1801860","0.0-235.0","1920x1080","","3718.8000000000466","40.61","img/238/3.5/1/bw/001.png","","","appealing"
"","","","","","html-button-response","236","1821546","0.0-236.0","1920x1080","","19678.5","","<div class=""intro"">You are about to view a new series of animations.<br><br></div><div class=""intro"">You will evaluate them based on a different descriptor.<br><br></div><div class=""intro"">Move the slider to indicate how <strong style=""text-transform:capitalize"">RELAXING</strong> you find each animation.<br><br></div><div class=""intro"">0 = Least Relaxing<br></div><div class=""intro"">1 = Most Relaxing<br><br></div><div class=""intro"">Remember to use the <strong><em>entire range</em></strong> of the slider to make your ratings.<br></div><div class=""intro"">Please <strong><em>take your time</em></strong> and carefully consider each rating you make.<br><br></div>","0","",""
"","","","","","call-function","237","1821547","0.0-237.0","1920x1080","","","","","","",""
"","","","","","animation","238","1833978","0.0-238.0","1920x1080","","12429.800000000047","64.81","img/238/4/2/bw/001.png","","","relaxing"
"","","","","","animation","239","1839666","0.0-239.0","1920x1080","","5686.600000000093","12.17","img/117/3.5/0.5/bw/001.png","","","relaxing"
"","","","","","animation","240","1850698","0.0-240.0","1920x1080","","11028.100000000093","73.41","img/117/5.5/1.5/bw/001.png","","","relaxing"
"","","","","","animation","241","1859410","0.0-241.0","1920x1080","","8709.59999999986","62.30","img/314/5.5/0.5/bw/001.png","","","relaxing"
"","","","","","animation","242","1865298","0.0-242.0","1920x1080","","5886.399999999907","1.59","img/117/2.5/0.66667/bw/001.png","","","relaxing"
"","","","","","animation","243","1875098","0.0-243.0","1920x1080","","9797.09999999986","45.11","img/238/4.5/1/bw/001.png","","","relaxing"
"","","","","","animation","244","1891370","0.0-244.0","1920x1080","","16273","46.16","img/314/4/1.5/bw/001.png","","","relaxing"
"","","","","","animation","245","1898733","0.0-245.0","1920x1080","","7361.199999999953","79.37","img/238/5.5/0.66667/bw/001.png","","","relaxing"
"","","","","","animation","246","1909633","0.0-246.0","1920x1080","","10898.199999999953","80.42","img/314/5.5/1.5/bw/001.png","","","relaxing"
"","","","","","animation","247","1915258","0.0-247.0","1920x1080","","5622.800000000047","12","img/238/2.5/2/bw/001.png","","","relaxing"
"","","","","","animation","248","1924016","0.0-248.0","1920x1080","","8756.299999999814","37.70","img/117/4.5/0.5/bw/001.png","","","relaxing"
"","","","","","animation","249","1934583","0.0-249.0","1920x1080","","10563.299999999814","77","img/238/5.5/0.5/bw/001.png","","","relaxing"
"","","","","","animation","250","1942555","0.0-250.0","1920x1080","","7969","43.25","img/238/4.5/0.66667/bw/001.png","","","relaxing"
"","","","","","animation","251","1948507","0.0-251.0","1920x1080","","5948.600000000093","23.02","img/314/4/0.66667/bw/001.png","","","relaxing"
"","","","","","animation","252","1953651","0.0-252.0","1920x1080","","5141.300000000047","2.38","img/117/2.5/1.5/bw/001.png","","","relaxing"
"","","","","","animation","253","1965084","0.0-253.0","1920x1080","","11431","85.05","img/314/5.5/2/bw/001.png","","","relaxing"
"","","","","","animation","254","1967884","0.0-254.0","1920x1080","","2797","21.30","img/238/3.5/0.5/bw/001.png","","","relaxing"
"","","","","","animation","255","1975418","0.0-255.0","1920x1080","","7532","42.59","img/117/4.5/1/bw/001.png","","","relaxing"
"","","","","","animation","256","1981034","0.0-256.0","1920x1080","","5614.899999999907","33.47","img/238/3.5/1/bw/001.png","","","relaxing"
"","","","","","animation","257","1985875","0.0-257.0","1920x1080","","4838.09999999986","5.95","img/314/2.5/1.5/bw/001.png","","","relaxing"
"","","","","","animation","258","1994987","0.0-258.0","1920x1080","","9109.399999999907","35.05","img/117/4/2/bw/001.png","","","relaxing"
"","","","","","animation","259","2001084","0.0-259.0","1920x1080","","6094.899999999907","30.29","img/117/4/1/bw/001.png","","","relaxing"
"","","","","","animation","260","2010937","0.0-260.0","1920x1080","","9853","43.25","img/117/3.5/2/bw/001.png","","","relaxing"
"","","","","","animation","261","2014615","0.0-261.0","1920x1080","","3676.100000000093","8.20","img/117/2.5/2/bw/001.png","","","relaxing"
"","","","","","animation","262","2019545","0.0-262.0","1920x1080","","4927.899999999907","27.51","img/238/4/0.66667/bw/001.png","","","relaxing"
"","","","","","animation","263","2026905","0.0-263.0","1920x1080","","7357.699999999953","23.68","img/117/4/0.66667/bw/001.png","","","relaxing"
"","","","","","animation","264","2031298","0.0-264.0","1920x1080","","4390.200000000186","0","img/238/2.5/0.5/bw/001.png","","","relaxing"
"","","","","","animation","265","2046798","0.0-265.0","1920x1080","","15498.5","45","img/117/4/1.5/bw/001.png","","","relaxing"
"","","","","","animation","266","2051033","0.0-266.0","1920x1080","","4233.199999999953","23.02","img/117/3.5/1/bw/001.png","","","relaxing"
"","","","","","animation","267","2058298","0.0-267.0","1920x1080","","7263.199999999953","42","img/117/4.5/0.66667/bw/001.png","","","relaxing"
"","","","","","animation","268","2066416","0.0-268.0","1920x1080","","8115.200000000186","40.08","img/238/4/1.5/bw/001.png","","","relaxing"
"","","","","","animation","269","2074332","0.0-269.0","1920x1080","","7914.899999999907","91.14","img/117/5.5/0.66667/bw/001.png","","","relaxing"
"","","","","","animation","270","2086099","0.0-270.0","1920x1080","","11764.69999999972","48.94","img/238/4/1/bw/001.png","","","relaxing"
"","","","","","animation","271","2090066","0.0-271.0","1920x1080","","3965.2999999998137","24.07","img/314/4/0.5/bw/001.png","","","relaxing"
"","","","","","animation","272","2097166","0.0-272.0","1920x1080","","7098.299999999814","95","img/314/5.5/0.66667/bw/001.png","","","relaxing"
"","","","","","animation","273","2105106","0.0-273.0","1920x1080","","7938.5","90.21","img/314/5.5/1/bw/001.png","","","relaxing"
"","","","","","animation","274","2108309","0.0-274.0","1920x1080","","3200.5999999996275","0.93","img/238/2.5/0.66667/bw/001.png","","","relaxing"
"","","","","","animation","275","2114032","0.0-275.0","1920x1080","","5717.899999999907","0","img/314/2.5/1/bw/001.png","","","relaxing"
"","","","","","animation","276","2126775","0.0-276.0","1920x1080","","12735.900000000373","36","img/314/4.5/0.66667/bw/001.png","","","relaxing"
"","","","","","animation","277","2132437","0.0-277.0","1920x1080","","5660.199999999721","46.69","img/117/4.5/2/bw/001.png","","","relaxing"
"","","","","","animation","278","2144737","0.0-278.0","1920x1080","","12298.19999999972","98","img/238/5.5/1.5/bw/001.png","","","relaxing"
"","","","","","animation","279","2147637","0.0-279.0","1920x1080","","2897.899999999907","0.93","img/117/2.5/0.5/bw/001.png","","","relaxing"
"","","","","","animation","280","2154359","0.0-280.0","1920x1080","","6720.5","6.88","img/314/2.5/2/bw/001.png","","","relaxing"
"","","","","","animation","281","2160220","0.0-281.0","1920x1080","","5859.299999999814","15.48","img/117/3.5/1.5/bw/001.png","","","relaxing"
"","","","","","animation","282","2166968","0.0-282.0","1920x1080","","6745.399999999907","23.28","img/314/3.5/1.5/bw/001.png","","","relaxing"
"","","","","","animation","283","2170187","0.0-283.0","1920x1080","","3217.0999999996275","2.78","img/314/2.5/0.66667/bw/001.png","","","relaxing"
"","","","","","animation","284","2176154","0.0-284.0","1920x1080","","5965.299999999814","35.98","img/238/4/0.5/bw/001.png","","","relaxing"
"","","","","","animation","285","2182700","0.0-285.0","1920x1080","","6555.199999999721","38.36","img/314/3.5/2/bw/001.png","","","relaxing"
"","","","","","animation","286","2192709","0.0-286.0","1920x1080","","10007.600000000093","83.99","img/117/5.5/0.5/bw/001.png","","","relaxing"
"","","","","","animation","287","2203176","0.0-287.0","1920x1080","","10463.80000000028","61.24","img/238/3.5/2/bw/001.png","","","relaxing"
"","","","","","animation","288","2213393","0.0-288.0","1920x1080","","10215.5","59.52","img/314/4/2/bw/001.png","","","relaxing"
"","","","","","animation","289","2217692","0.0-289.0","1920x1080","","4297.600000000093","44.71","img/117/3.5/0.66667/bw/001.png","","","relaxing"
"","","","","","animation","290","2225829","0.0-290.0","1920x1080","","8135.300000000279","90.08","img/117/5.5/1/bw/001.png","","","relaxing"
"","","","","","animation","291","2230126","0.0-291.0","1920x1080","","4294.399999999907","63.89","img/238/4.5/0.5/bw/001.png","","","relaxing"
"","","","","","animation","292","2235612","0.0-292.0","1920x1080","","5484.0999999996275","49.47","img/314/4.5/0.5/bw/001.png","","","relaxing"
"","","","","","animation","293","2241959","0.0-293.0","1920x1080","","6349.200000000186","30.69","img/314/3.5/0.5/bw/001.png","","","relaxing"
"","","","","","animation","294","2245604","0.0-294.0","1920x1080","","3643.100000000093","3.70","img/117/2.5/1/bw/001.png","","","relaxing"
"","","","","","animation","295","2249974","0.0-295.0","1920x1080","","4368","15.87","img/238/3.5/0.66667/bw/001.png","","","relaxing"
"","","","","","animation","296","2255962","0.0-296.0","1920x1080","","5985.299999999814","59.92","img/314/4.5/2/bw/001.png","","","relaxing"
"","","","","","animation","297","2264639","0.0-297.0","1920x1080","","8674.5","86.64","img/238/5.5/2/bw/001.png","","","relaxing"
"","","","","","animation","298","2272591","0.0-298.0","1920x1080","","7949.899999999907","72.22","img/314/4.5/1.5/bw/001.png","","","relaxing"
"","","","","","animation","299","2279987","0.0-299.0","1920x1080","","7393.5","50.93","img/238/3.5/1.5/bw/001.png","","","relaxing"
"","","","","","animation","300","2290207","0.0-300.0","1920x1080","","10217.80000000028","89.95","img/238/5.5/1/bw/001.png","","","relaxing"
"","","","","","animation","301","2295910","0.0-301.0","1920x1080","","5701.399999999907","45.77","img/314/3.5/1/bw/001.png","","","relaxing"
"","","","","","animation","302","2303161","0.0-302.0","1920x1080","","7241.100000000093","55.69","img/117/4.5/1.5/bw/001.png","","","relaxing"
"","","","","","animation","303","2313915","0.0-303.0","1920x1080","","10752.200000000186","56.48","img/238/4.5/2/bw/001.png","","","relaxing"
"","","","","","animation","304","2317778","0.0-304.0","1920x1080","","3861.600000000093","36.90","img/117/4/0.5/bw/001.png","","","relaxing"
"","","","","","animation","305","2333662","0.0-305.0","1920x1080","","15882.700000000186","57.94","img/314/4.5/1/bw/001.png","","","relaxing"
"","","","","","animation","306","2341045","0.0-306.0","1920x1080","","7381.199999999721","43.78","img/314/4/1/bw/001.png","","","relaxing"
"","","","","","animation","307","2343861","0.0-307.0","1920x1080","","2814.899999999907","29.50","img/314/3.5/0.66667/bw/001.png","","","relaxing"
"","","","","","animation","308","2349414","0.0-308.0","1920x1080","","5551.800000000279","88.89","img/117/5.5/2/bw/001.png","","","relaxing"
"","","","","","animation","309","2352567","0.0-309.0","1920x1080","","3150.399999999907","2.38","img/238/2.5/1.5/bw/001.png","","","relaxing"
"","","","","","animation","310","2355250","0.0-310.0","1920x1080","","2680.9000000003725","0.13","img/314/2.5/0.5/bw/001.png","","","relaxing"
"","","","","","animation","311","2358350","0.0-311.0","1920x1080","","3099.5","1.32","img/238/2.5/1/bw/001.png","","","relaxing"
"","","","","","animation","312","2366261","0.0-312.0","1920x1080","","7916.5","51.46","img/238/4.5/1.5/bw/001.png","","","relaxing"
"","","","","","html-button-response","313","2407237","0.0-313.0","1920x1080","","40973.89999999991","","<div class=""intro"">You are about to view a new series of animations.<br><br></div><div class=""intro"">You will evaluate them based on a different descriptor.<br><br></div><div class=""intro"">Move the slider to indicate how <strong style=""text-transform:capitalize"">INTERESTING</strong> you find each animation.<br><br></div><div class=""intro"">0 = Least Interesting<br></div><div class=""intro"">1 = Most Interesting<br><br></div><div class=""intro"">Remember to use the <strong><em>entire range</em></strong> of the slider to make your ratings.<br></div><div class=""intro"">Please <strong><em>take your time</em></strong> and carefully consider each rating you make.<br><br></div>","0","",""
"","","","","","call-function","314","2407241","0.0-314.0","1920x1080","","","","","","",""
"","","","","","animation","315","2423683","0.0-315.0","1920x1080","","16443.30000000028","50.53","img/314/3.5/2/bw/001.png","","","interesting"
"","","","","","animation","316","2428105","0.0-316.0","1920x1080","","4420.799999999814","57.14","img/117/4/0.66667/bw/001.png","","","interesting"
"","","","","","animation","317","2444987","0.0-317.0","1920x1080","","16879.799999999814","55.42","img/117/4.5/0.66667/bw/001.png","","","interesting"
"","","","","","animation","318","2451031","0.0-318.0","1920x1080","","6042.300000000279","0","img/314/2.5/0.5/bw/001.png","","","interesting"
"","","","","","animation","319","2460667","0.0-319.0","1920x1080","","9633.399999999907","50.00","img/117/4.5/1.5/bw/001.png","","","interesting"
"","","","","","animation","320","2469403","0.0-320.0","1920x1080","","8734.5","59.79","img/117/5.5/2/bw/001.png","","","interesting"
"","","","","","animation","321","2475799","0.0-321.0","1920x1080","","6393.899999999907","54.10","img/238/4/1/bw/001.png","","","interesting"
"","","","","","animation","322","2480232","0.0-322.0","1920x1080","","4430.700000000186","1.72","img/238/2.5/0.66667/bw/001.png","","","interesting"
"","","","","","animation","323","2482725","0.0-323.0","1920x1080","","2481.600000000093","0.79","img/238/2.5/0.5/bw/001.png","","","interesting"
"","","","","","animation","324","2486542","0.0-324.0","1920x1080","","3815.3000000002794","0.40","img/314/2.5/1/bw/001.png","","","interesting"
"","","","","","animation","325","2494982","0.0-325.0","1920x1080","","8438.30000000028","44.97","img/238/3.5/1.5/bw/001.png","","","interesting"
"","","","","","animation","326","2500658","0.0-326.0","1920x1080","","5673.700000000186","79.23","img/238/5.5/0.5/bw/001.png","","","interesting"
"","","","","","animation","327","2504109","0.0-327.0","1920x1080","","3447.2999999998137","0.93","img/314/2.5/0.66667/bw/001.png","","","interesting"
"","","","","","animation","328","2508226","0.0-328.0","1920x1080","","4115.399999999907","14.81","img/314/3.5/0.66667/bw/001.png","","","interesting"
"","","","","","animation","329","2511192","0.0-329.0","1920x1080","","2964.3000000002794","0","img/117/2.5/2/bw/001.png","","","interesting"
"","","","","","animation","330","2519613","0.0-330.0","1920x1080","","8419.100000000093","66.67","img/238/5.5/2/bw/001.png","","","interesting"
"","","","","","animation","331","2527153","0.0-331.0","1920x1080","","7533","49.07","img/117/4.5/2/bw/001.png","","","interesting"
"","","","","","animation","332","2533861","0.0-332.0","1920x1080","","6705.5","51.85","img/117/3.5/1/bw/001.png","","","interesting"
"","","","","","animation","333","2540242","0.0-333.0","1920x1080","","6379.699999999721","80.95","img/117/5.5/1/bw/001.png","","","interesting"
"","","","","","animation","334","2549971","0.0-334.0","1920x1080","","9737.30000000028","53.44","img/314/4.5/0.66667/bw/001.png","","","interesting"
"","","","","","animation","335","2556732","0.0-335.0","1920x1080","","6758.4000000003725","57.41","img/238/4.5/1/bw/001.png","","","interesting"
"","","","","","animation","336","2563754","0.0-336.0","1920x1080","","7020.200000000186","77.65","img/314/5.5/1/bw/001.png","","","interesting"
"","","","","","animation","337","2566581","0.0-337.0","1920x1080","","2824.2000000001863","0.53","img/238/2.5/1/bw/001.png","","","interesting"
"","","","","","animation","338","2572873","0.0-338.0","1920x1080","","6290.399999999907","57.28","img/314/4.5/2/bw/001.png","","","interesting"
"","","","","","animation","339","2578758","0.0-339.0","1920x1080","","5883.0999999996275","58.99","img/314/4.5/1.5/bw/001.png","","","interesting"
"","","","","","animation","340","2588548","0.0-340.0","1920x1080","","9787","53","img/117/4.5/1/bw/001.png","","","interesting"
"","","","","","animation","341","2595786","0.0-341.0","1920x1080","","7236","60.19","img/238/4.5/2/bw/001.png","","","interesting"
"","","","","","animation","342","2599198","0.0-342.0","1920x1080","","3409.7999999998137","46.96","img/117/3.5/2/bw/001.png","","","interesting"
"","","","","","animation","343","2606044","0.0-343.0","1920x1080","","6834.799999999814","78.97","img/314/5.5/1.5/bw/001.png","","","interesting"
"","","","","","animation","344","2608644","0.0-344.0","1920x1080","","2596.600000000093","2.25","img/117/2.5/0.5/bw/001.png","","","interesting"
"","","","","","animation","345","2615982","0.0-345.0","1920x1080","","7336.200000000186","48.41","img/314/4/1/bw/001.png","","","interesting"
"","","","","","animation","346","2624083","0.0-346.0","1920x1080","","8099.5","52.78","img/314/3.5/1.5/bw/001.png","","","interesting"
"","","","","","animation","347","2630489","0.0-347.0","1920x1080","","6404.200000000186","42.06","img/117/3.5/0.5/bw/001.png","","","interesting"
"","","","","","animation","348","2634449","0.0-348.0","1920x1080","","3957.7999999998137","38.36","img/238/3.5/0.5/bw/001.png","","","interesting"
"","","","","","animation","349","2641212","0.0-349.0","1920x1080","","6760.700000000186","39.29","img/238/3.5/0.66667/bw/001.png","","","interesting"
"","","","","","animation","350","2649308","0.0-350.0","1920x1080","","8094.700000000186","46.96","img/314/4/2/bw/001.png","","","interesting"
"","","","","","animation","351","2654749","0.0-351.0","1920x1080","","5438.399999999907","50.40","img/238/4.5/0.5/bw/001.png","","","interesting"
"","","","","","animation","352","2657100","0.0-352.0","1920x1080","","2333.5999999996275","3.70","img/117/2.5/1/bw/001.png","","","interesting"
"","","","","","animation","353","2659724","0.0-353.0","1920x1080","","2622.899999999907","0.79","img/117/2.5/0.66667/bw/001.png","","","interesting"
"","","","","","animation","354","2665403","0.0-354.0","1920x1080","","5687","72.49","img/117/5.5/0.5/bw/001.png","","","interesting"
"","","","","","animation","355","2667756","0.0-355.0","1920x1080","","2350.1999999997206","0.79","img/117/2.5/1.5/bw/001.png","","","interesting"
"","","","","","animation","356","2682282","0.0-356.0","1920x1080","","14525","49.60","img/117/4/1/bw/001.png","","","interesting"
"","","","","","animation","357","2687175","0.0-357.0","1920x1080","","4890.5","83.47","img/314/5.5/0.66667/bw/001.png","","","interesting"
"","","","","","animation","358","2693065","0.0-358.0","1920x1080","","5887.600000000093","53.57","img/314/4/0.66667/bw/001.png","","","interesting"
"","","","","","animation","359","2700266","0.0-359.0","1920x1080","","7199.899999999907","64.02","img/238/4/1.5/bw/001.png","","","interesting"
"","","","","","animation","360","2708370","0.0-360.0","1920x1080","","8100.4000000003725","57.41","img/117/4/2/bw/001.png","","","interesting"
"","","","","","animation","361","2715670","0.0-361.0","1920x1080","","7297.299999999814","85.05","img/314/5.5/2/bw/001.png","","","interesting"
"","","","","","animation","362","2718803","0.0-362.0","1920x1080","","3129.100000000093","2.91","img/238/2.5/1.5/bw/001.png","","","interesting"
"","","","","","animation","363","2725338","0.0-363.0","1920x1080","","6525.799999999814","87","img/238/5.5/1/bw/001.png","","","interesting"
"","","","","","animation","364","2731142","0.0-364.0","1920x1080","","5800.899999999907","55.42","img/314/4.5/0.5/bw/001.png","","","interesting"
"","","","","","animation","365","2739677","0.0-365.0","1920x1080","","8532.799999999814","76.32","img/117/5.5/1.5/bw/001.png","","","interesting"
"","","","","","animation","366","2743342","0.0-366.0","1920x1080","","3661.100000000093","46.83","img/238/4/0.5/bw/001.png","","","interesting"
"","","","","","animation","367","2748893","0.0-367.0","1920x1080","","5549.200000000186","49.21","img/117/4.5/0.5/bw/001.png","","","interesting"
"","","","","","animation","368","2752579","0.0-368.0","1920x1080","","3652.600000000093","24.47","img/314/3.5/0.5/bw/001.png","","","interesting"
"","","","","","animation","369","2760656","0.0-369.0","1920x1080","","8074.100000000093","35.58","img/238/4/0.66667/bw/001.png","","","interesting"
"","","","","","animation","370","2767843","0.0-370.0","1920x1080","","7185.100000000093","54.10","img/238/3.5/2/bw/001.png","","","interesting"
"","","","","","animation","371","2774189","0.0-371.0","1920x1080","","6343.399999999907","60.58","img/238/4.5/1.5/bw/001.png","","","interesting"
"","","","","","animation","372","2779921","0.0-372.0","1920x1080","","5729.9000000003725","46.69","img/117/4/0.5/bw/001.png","","","interesting"
"","","","","","animation","373","2788285","0.0-373.0","1920x1080","","8358.899999999907","52.91","img/238/4.5/0.66667/bw/001.png","","","interesting"
"","","","","","animation","374","2795228","0.0-374.0","1920x1080","","6939.800000000279","56.88","img/238/4/2/bw/001.png","","","interesting"
"","","","","","animation","375","2802114","0.0-375.0","1920x1080","","6884","85.85","img/238/5.5/1.5/bw/001.png","","","interesting"
"","","","","","animation","376","2809228","0.0-376.0","1920x1080","","7111.399999999907","97","img/314/5.5/0.5/bw/001.png","","","interesting"
"","","","","","animation","377","2814794","0.0-377.0","1920x1080","","5564.0999999996275","50.93","img/238/3.5/1/bw/001.png","","","interesting"
"","","","","","animation","378","2819124","0.0-378.0","1920x1080","","4327.9000000003725","23.68","img/238/2.5/2/bw/001.png","","","interesting"
"","","","","","animation","379","2823948","0.0-379.0","1920x1080","","4822.799999999814","92.46","img/238/5.5/0.66667/bw/001.png","","","interesting"
"","","","","","animation","380","2829759","0.0-380.0","1920x1080","","5808.600000000093","63.89","img/314/4.5/1/bw/001.png","","","interesting"
"","","","","","animation","381","2833443","0.0-381.0","1920x1080","","3682.399999999907","47.09","img/117/3.5/0.66667/bw/001.png","","","interesting"
"","","","","","animation","382","2841686","0.0-382.0","1920x1080","","8248.899999999907","41.40","img/117/3.5/1.5/bw/001.png","","","interesting"
"","","","","","animation","383","2848655","0.0-383.0","1920x1080","","6966.899999999907","13","img/314/2.5/2/bw/001.png","","","interesting"
"","","","","","animation","384","2854080","0.0-384.0","1920x1080","","5423","45.11","img/314/4/1.5/bw/001.png","","","interesting"
"","","","","","animation","385","2856767","0.0-385.0","1920x1080","","2684.399999999907","8.86","img/314/2.5/1.5/bw/001.png","","","interesting"
"","","","","","animation","386","2860364","0.0-386.0","1920x1080","","3594.7999999998137","47.88","img/314/4/0.5/bw/001.png","","","interesting"
"","","","","","animation","387","2864147","0.0-387.0","1920x1080","","3781.600000000093","85.98","img/117/5.5/0.66667/bw/001.png","","","interesting"
"","","","","","animation","388","2867482","0.0-388.0","1920x1080","","3329.100000000093","48.02","img/314/3.5/1/bw/001.png","","","interesting"
"","","","","","animation","389","2872726","0.0-389.0","1920x1080","","5242.4000000003725","54.23","img/117/4/1.5/bw/001.png","","","interesting"
"","","","","","html-button-response","390","2919572","0.0-390.0","1920x1080","","46833.700000000186","","<strong>Study Debriefing</strong><br><p class=""debrief""><strong>Background:</strong> The patterns you rated are called <em>fractals</em>. The term fractal describes a class of irregular curves or shapes for which any suitably chosen part is similar in shape to a given larger or smaller part when magnified or reduced to the same size. Fractal properties are found throughout the natural and manmade world. The series of animations you saw today displayed animated fractal patterns of a varying complexity.</p><p class=""debrief""><strong>Purpose of this study:</strong> We hope to better understand how the perception of static fractals differs from the perception of animated fractals, and how the speed of the animated patterns influences people&apos;s perception of them. Fractals allow us to study the perception of aesthetic properties (e.g. the perceived level of beauty in an image) without using recognizable content, which makes them an excellent tool for studying abstract aesthetic judgement.</p><p class=""debrief""><strong>Your part:</strong> Your participation has helped us to further understand how humans perceive these patterns across different levels of speed and complexity. This research with allow us to better understand how the visual system and brain process our ever-changing visual environments.<p class=""debrief""><strong>Feedback and Further information:</strong> If you have additional questions about this study, please feel free to ask the researcher, Nathan Gonzales-Hess at nhess @ uoregon.edu. If you have any questions concerning your rights as a research participant, please contact Research Compliance Services, 5237 University of Oregon, Eugene, OR 97403, 541-346-2510, or email researchCompliance @ uoregon.edu. You can also email the Human Subjects Coordinator for psychology and linguistics research at hscoord @ uoregon.edu. ","0","",""
"","","","","","html-button-response","391","2928456","0.0-391.0","1920x1080","","8879.19999999972","","Thank you for participating in this study. <br>Please click below to finish the experiment and submit your responses.<br><br>","0","",""
"true","","","","","fullscreen","392","2929466","0.0-392.0","1920x1080","11:27 28/10/2022","","","","","",""
