"success","timeout","failed_images","failed_audio","failed_video","trial_type","trial_index","time_elapsed","internal_node_id","resolution","timeStamp","rt","response","stimulus","button_pressed","value","descriptor"
"true","false","[]","[]","[]","preload","0","19165","0.0-0.0","1920x1080","","","","","","",""
"true","false","[]","[]","[]","preload","1","38273","0.0-1.0","1920x1080","","","","","","",""
"true","false","[]","[]","[]","preload","2","57592","0.0-2.0","1920x1080","","","","","","",""
"true","","","","","fullscreen","3","994119","0.0-3.0","1920x1080","12:53 25/10/2022","","","","","",""
"","","","","","survey-html-form","4","1003850","0.0-4.0","1920x1080","","9727.70000000298","{""age"":""18"",""gender"":""female""}","","","",""
"","","","","","html-button-response","5","1059034","0.0-5.0","1920x1080","","55182.70000000298","","<div class=""complex"">You are going to see a series of animations.<br><br></div><div class=""complex"">Move the slider to indicate how <strong style=""text-transform:capitalize"">COMPLEX</strong> you find each animation.<br><br></div><div class=""complex"">0 = Least Complex<br></div><div class=""complex"">1 = Most Complex<br><br></div><div class=""complex"">Remember to use the <strong><em>entire range</em></strong> of the slider to make your ratings.<br></div><div class=""complex"">Please <strong><em>take your time</em></strong> and carefully consider each rating you make.<br><br></div><div class=""complex"">The study has five sections and will take about 45 minutes to complete.<br><br></div>","0","",""
"","","","","","call-function","6","1059034","0.0-6.0","1920x1080","","","","","","",""
"","","","","","animation","7","1074074","0.0-7.0","1920x1080","","15036.699999988079","75.53","img/238/2.5/2/bw/001.png","","","complex"
"","","","","","animation","8","1078665","0.0-8.0","1920x1080","","4590.29999999702","27.51","img/314/4.5/0.66667/bw/001.png","","","complex"
"","","","","","animation","9","1086385","0.0-9.0","1920x1080","","7719.100000008941","40.48","img/314/3.5/2/bw/001.png","","","complex"
"","","","","","animation","10","1092513","0.0-10.0","1920x1080","","6126.899999991059","37.70","img/238/3.5/1.5/bw/001.png","","","complex"
"","","","","","animation","11","1097962","0.0-11.0","1920x1080","","5447.4000000059605","20.77","img/117/4/1/bw/001.png","","","complex"
"","","","","","animation","12","1101762","0.0-12.0","1920x1080","","3799","38.49","img/314/3.5/1/bw/001.png","","","complex"
"","","","","","animation","13","1107610","0.0-13.0","1920x1080","","5847.0999999940395","33.86","img/117/4/2/bw/001.png","","","complex"
"","","","","","animation","14","1117321","0.0-14.0","1920x1080","","9711","52.78","img/238/3.5/0.5/bw/001.png","","","complex"
"","","","","","animation","15","1120295","0.0-15.0","1920x1080","","2974.5999999940395","18.52","img/238/4.5/1.5/bw/001.png","","","complex"
"","","","","","animation","16","1123128","0.0-16.0","1920x1080","","2829","73.02","img/314/3.5/0.5/bw/001.png","","","complex"
"","","","","","animation","17","1127056","0.0-17.0","1920x1080","","3927.4000000059605","25.00","img/117/4/1.5/bw/001.png","","","complex"
"","","","","","animation","18","1131943","0.0-18.0","1920x1080","","4886.5999999940395","20","img/117/5.5/2/bw/001.png","","","complex"
"","","","","","animation","19","1134728","0.0-19.0","1920x1080","","2783.6000000089407","16.80","img/238/4.5/1/bw/001.png","","","complex"
"","","","","","animation","20","1139527","0.0-20.0","1920x1080","","4798.29999999702","30.82","img/238/4/1/bw/001.png","","","complex"
"","","","","","animation","21","1143272","0.0-21.0","1920x1080","","3743.199999988079","86","img/314/2.5/2/bw/001.png","","","complex"
"","","","","","animation","22","1147360","0.0-22.0","1920x1080","","4087.5","16.80","img/314/5.5/0.66667/bw/001.png","","","complex"
"","","","","","animation","23","1150431","0.0-23.0","1920x1080","","3070.8999999910593","32.67","img/238/4/0.5/bw/001.png","","","complex"
"","","","","","animation","24","1152415","0.0-24.0","1920x1080","","1983.199999988079","27.25","img/117/4.5/2/bw/001.png","","","complex"
"","","","","","animation","25","1156432","0.0-25.0","1920x1080","","4015.2999999970198","41.01","img/314/4/1.5/bw/001.png","","","complex"
"","","","","","animation","26","1158895","0.0-26.0","1920x1080","","2463.199999988079","19.84","img/238/4.5/0.5/bw/001.png","","","complex"
"","","","","","animation","27","1161127","0.0-27.0","1920x1080","","2231.2000000029802","42.72","img/314/4/0.66667/bw/001.png","","","complex"
"","","","","","animation","28","1164384","0.0-28.0","1920x1080","","3255.6000000089407","41.93","img/117/4/0.66667/bw/001.png","","","complex"
"","","","","","animation","29","1166456","0.0-29.0","1920x1080","","2071.4000000059605","52","img/117/3.5/1/bw/001.png","","","complex"
"","","","","","animation","30","1169608","0.0-30.0","1920x1080","","3151.2000000029802","16.67","img/117/5.5/1.5/bw/001.png","","","complex"
"","","","","","animation","31","1173415","0.0-31.0","1920x1080","","3806.699999988079","64.29","img/314/4/0.5/bw/001.png","","","complex"
"","","","","","animation","32","1178868","0.0-32.0","1920x1080","","5455.600000008941","33.86","img/238/3.5/2/bw/001.png","","","complex"
"","","","","","animation","33","1181084","0.0-33.0","1920x1080","","2215.2000000029802","21.56","img/314/4.5/1/bw/001.png","","","complex"
"","","","","","animation","34","1182739","0.0-34.0","1920x1080","","1654.7999999970198","31.88","img/314/4/1/bw/001.png","","","complex"
"","","","","","animation","35","1186859","0.0-35.0","1920x1080","","4119.29999999702","22.88","img/117/4.5/1.5/bw/001.png","","","complex"
"","","","","","animation","36","1189989","0.0-36.0","1920x1080","","3129.0999999940395","84.66","img/238/2.5/0.5/bw/001.png","","","complex"
"","","","","","animation","37","1193589","0.0-37.0","1920x1080","","3598.9000000059605","61.90","img/238/4/1.5/bw/001.png","","","complex"
"","","","","","animation","38","1196683","0.0-38.0","1920x1080","","3093.7000000029802","51.85","img/117/3.5/2/bw/001.png","","","complex"
"","","","","","animation","39","1199027","0.0-39.0","1920x1080","","2343","72.22","img/117/2.5/1.5/bw/001.png","","","complex"
"","","","","","animation","40","1201859","0.0-40.0","1920x1080","","2831","50.13","img/238/4/2/bw/001.png","","","complex"
"","","","","","animation","41","1206757","0.0-41.0","1920x1080","","4896.79999999702","8","img/314/5.5/0.5/bw/001.png","","","complex"
"","","","","","animation","42","1208899","0.0-42.0","1920x1080","","2142","2","img/238/5.5/1/bw/001.png","","","complex"
"","","","","","animation","43","1210740","0.0-43.0","1920x1080","","1840.0999999940395","9.39","img/314/5.5/1/bw/001.png","","","complex"
"","","","","","animation","44","1212773","0.0-44.0","1920x1080","","2032.0999999940395","19.44","img/238/4/0.66667/bw/001.png","","","complex"
"","","","","","animation","45","1214715","0.0-45.0","1920x1080","","1941.6000000089407","33.60","img/117/3.5/1.5/bw/001.png","","","complex"
"","","","","","animation","46","1216835","0.0-46.0","1920x1080","","2119.2999999970198","54.37","img/314/3.5/0.66667/bw/001.png","","","complex"
"","","","","","animation","47","1219899","0.0-47.0","1920x1080","","3063.199999988079","69.58","img/238/2.5/0.66667/bw/001.png","","","complex"
"","","","","","animation","48","1223006","0.0-48.0","1920x1080","","3105.5999999940395","12.30","img/117/4/0.5/bw/001.png","","","complex"
"","","","","","animation","49","1225011","0.0-49.0","1920x1080","","2004.8999999910593","91.40","img/117/2.5/0.66667/bw/001.png","","","complex"
"","","","","","animation","50","1228140","0.0-50.0","1920x1080","","3128","98","img/314/2.5/1/bw/001.png","","","complex"
"","","","","","animation","51","1231891","0.0-51.0","1920x1080","","3749.7999999970198","35.32","img/314/4/2/bw/001.png","","","complex"
"","","","","","animation","52","1235756","0.0-52.0","1920x1080","","3863.699999988079","91.40","img/117/2.5/2/bw/001.png","","","complex"
"","","","","","animation","53","1239018","0.0-53.0","1920x1080","","3254.7999999970198","97","img/314/2.5/0.5/bw/001.png","","","complex"
"","","","","","animation","54","1242018","0.0-54.0","1920x1080","","2998.5999999940395","5.69","img/238/5.5/0.5/bw/001.png","","","complex"
"","","","","","animation","55","1246801","0.0-55.0","1920x1080","","4783.100000008941","20","img/117/4.5/1/bw/001.png","","","complex"
"","","","","","animation","56","1249612","0.0-56.0","1920x1080","","2809.7999999970198","92.33","img/117/2.5/1/bw/001.png","","","complex"
"","","","","","animation","57","1252730","0.0-57.0","1920x1080","","3117.1000000089407","5.03","img/314/5.5/1.5/bw/001.png","","","complex"
"","","","","","animation","58","1256786","0.0-58.0","1920x1080","","4055.2999999970198","53","img/117/3.5/0.5/bw/001.png","","","complex"
"","","","","","animation","59","1258926","0.0-59.0","1920x1080","","2139.2999999970198","18","img/238/4.5/2/bw/001.png","","","complex"
"","","","","","animation","60","1261106","0.0-60.0","1920x1080","","2178.4000000059605","83.33","img/238/2.5/1.5/bw/001.png","","","complex"
"","","","","","animation","61","1263786","0.0-61.0","1920x1080","","2679","49","img/117/3.5/0.66667/bw/001.png","","","complex"
"","","","","","animation","62","1266396","0.0-62.0","1920x1080","","2609.5","21.56","img/117/5.5/0.5/bw/001.png","","","complex"
"","","","","","animation","63","1268745","0.0-63.0","1920x1080","","2348.5","35.19","img/117/4.5/0.5/bw/001.png","","","complex"
"","","","","","animation","64","1270898","0.0-64.0","1920x1080","","2151.4000000059605","20.37","img/117/4.5/0.66667/bw/001.png","","","complex"
"","","","","","animation","65","1272954","0.0-65.0","1920x1080","","2055.6000000089407","24","img/238/4.5/0.66667/bw/001.png","","","complex"
"","","","","","animation","66","1275602","0.0-66.0","1920x1080","","2647.0999999940395","13.23","img/238/5.5/0.66667/bw/001.png","","","complex"
"","","","","","animation","67","1277986","0.0-67.0","1920x1080","","2382.7999999970198","89.81","img/314/2.5/0.66667/bw/001.png","","","complex"
"","","","","","animation","68","1281426","0.0-68.0","1920x1080","","3438.5999999940395","35","img/314/4.5/1.5/bw/001.png","","","complex"
"","","","","","animation","69","1287212","0.0-69.0","1920x1080","","5785.20000000298","7","img/314/5.5/2/bw/001.png","","","complex"
"","","","","","animation","70","1291674","0.0-70.0","1920x1080","","4461.20000000298","95","img/314/2.5/1.5/bw/001.png","","","complex"
"","","","","","animation","71","1293842","0.0-71.0","1920x1080","","2167.4000000059605","7.14","img/117/5.5/1/bw/001.png","","","complex"
"","","","","","animation","72","1295890","0.0-72.0","1920x1080","","2046.800000011921","18.65","img/314/4.5/2/bw/001.png","","","complex"
"","","","","","animation","73","1298490","0.0-73.0","1920x1080","","2606.6000000089407","96","img/117/2.5/0.5/bw/001.png","","","complex"
"","","","","","animation","74","1301074","0.0-74.0","1920x1080","","2583.0999999940395","10.71","img/117/5.5/0.66667/bw/001.png","","","complex"
"","","","","","animation","75","1303805","0.0-75.0","1920x1080","","2730.4000000059605","8.07","img/238/5.5/2/bw/001.png","","","complex"
"","","","","","animation","76","1305826","0.0-76.0","1920x1080","","2019.5999999940395","33.33","img/314/3.5/1.5/bw/001.png","","","complex"
"","","","","","animation","77","1308850","0.0-77.0","1920x1080","","3021.300000011921","43","img/238/3.5/1/bw/001.png","","","complex"
"","","","","","animation","78","1310562","0.0-78.0","1920x1080","","1710.8999999910593","30.82","img/314/4.5/0.5/bw/001.png","","","complex"
"","","","","","animation","79","1313021","0.0-79.0","1920x1080","","2457.7000000029802","30.16","img/238/3.5/0.66667/bw/001.png","","","complex"
"","","","","","animation","80","1315914","0.0-80.0","1920x1080","","2892.5","93.78","img/238/2.5/1/bw/001.png","","","complex"
"","","","","","animation","81","1318114","0.0-81.0","1920x1080","","2198.7999999970198","7.14","img/238/5.5/1.5/bw/001.png","","","complex"
"","","","","","html-button-response","82","1336789","0.0-82.0","1920x1080","","18673.5","","<div class=""intro"">You are about to view a new series of animations.<br><br></div><div class=""intro"">You will evaluate them based on a different descriptor.<br><br></div><div class=""intro"">Move the slider to indicate how <strong style=""text-transform:capitalize"">APPEALING</strong> you find each animation.<br><br></div><div class=""intro"">0 = Least Appealing<br></div><div class=""intro"">1 = Most Appealing<br><br></div><div class=""intro"">Remember to use the <strong><em>entire range</em></strong> of the slider to make your ratings.<br></div><div class=""intro"">Please <strong><em>take your time</em></strong> and carefully consider each rating you make.<br><br></div>","0","",""
"","","","","","call-function","83","1336790","0.0-83.0","1920x1080","","","","","","",""
"","","","","","animation","84","1353458","0.0-84.0","1920x1080","","16667.40000000596","60.19","img/238/4.5/0.66667/bw/001.png","","","appealing"
"","","","","","animation","85","1361240","0.0-85.0","1920x1080","","7775.4000000059605","20.50","img/238/3.5/2/bw/001.png","","","appealing"
"","","","","","animation","86","1366127","0.0-86.0","1920x1080","","4885.70000000298","92.33","img/238/5.5/1/bw/001.png","","","appealing"
"","","","","","animation","87","1368744","0.0-87.0","1920x1080","","2616.2999999970198","23.41","img/314/4/1/bw/001.png","","","appealing"
"","","","","","animation","88","1371711","0.0-88.0","1920x1080","","2965.9000000059605","91.93","img/117/5.5/2/bw/001.png","","","appealing"
"","","","","","animation","89","1378027","0.0-89.0","1920x1080","","6315.100000008941","18","img/117/4.5/0.66667/bw/001.png","","","appealing"
"","","","","","animation","90","1380720","0.0-90.0","1920x1080","","2691.2999999970198","16.40","img/314/4/2/bw/001.png","","","appealing"
"","","","","","animation","91","1382600","0.0-91.0","1920x1080","","1879.2000000029802","6.88","img/314/3.5/1/bw/001.png","","","appealing"
"","","","","","animation","92","1386088","0.0-92.0","1920x1080","","3487.2000000029802","41.14","img/238/4.5/1.5/bw/001.png","","","appealing"
"","","","","","animation","93","1389768","0.0-93.0","1920x1080","","3679.0999999940395","30.56","img/314/4.5/0.66667/bw/001.png","","","appealing"
"","","","","","animation","94","1393994","0.0-94.0","1920x1080","","4225.79999999702","15","img/238/4/0.66667/bw/001.png","","","appealing"
"","","","","","animation","95","1398443","0.0-95.0","1920x1080","","4448","0.00","img/314/2.5/1/bw/001.png","","","appealing"
"","","","","","animation","96","1402063","0.0-96.0","1920x1080","","3618.8999999910593","87.43","img/314/5.5/1.5/bw/001.png","","","appealing"
"","","","","","animation","97","1407144","0.0-97.0","1920x1080","","5079.699999988079","40.48","img/117/4.5/2/bw/001.png","","","appealing"
"","","","","","animation","98","1413711","0.0-98.0","1920x1080","","6566","77","img/238/4.5/2/bw/001.png","","","appealing"
"","","","","","animation","99","1417184","0.0-99.0","1920x1080","","3471.5","1.98","img/314/3.5/0.66667/bw/001.png","","","appealing"
"","","","","","animation","100","1419630","0.0-100.0","1920x1080","","2446.7999999970198","3.70","img/117/3.5/1.5/bw/001.png","","","appealing"
"","","","","","animation","101","1423334","0.0-101.0","1920x1080","","3703.2000000029802","0.40","img/238/3.5/1/bw/001.png","","","appealing"
"","","","","","animation","102","1426577","0.0-102.0","1920x1080","","3241.5","96","img/117/5.5/1.5/bw/001.png","","","appealing"
"","","","","","animation","103","1429414","0.0-103.0","1920x1080","","2836.4000000059605","0","img/238/2.5/0.5/bw/001.png","","","appealing"
"","","","","","animation","104","1437678","0.0-104.0","1920x1080","","8262.90000000596","85","img/117/5.5/0.66667/bw/001.png","","","appealing"
"","","","","","animation","105","1440694","0.0-105.0","1920x1080","","3014.7999999970198","0.93","img/314/3.5/0.5/bw/001.png","","","appealing"
"","","","","","animation","106","1447567","0.0-106.0","1920x1080","","6872","91.80","img/238/5.5/0.66667/bw/001.png","","","appealing"
"","","","","","animation","107","1451478","0.0-107.0","1920x1080","","3909.5999999940395","71","img/314/5.5/0.5/bw/001.png","","","appealing"
"","","","","","animation","108","1455270","0.0-108.0","1920x1080","","3791.7000000029802","0","img/117/2.5/0.5/bw/001.png","","","appealing"
"","","","","","animation","109","1461462","0.0-109.0","1920x1080","","6190.5","86","img/238/5.5/2/bw/001.png","","","appealing"
"","","","","","animation","110","1465670","0.0-110.0","1920x1080","","4207.5999999940395","10.58","img/238/3.5/0.66667/bw/001.png","","","appealing"
"","","","","","animation","111","1468294","0.0-111.0","1920x1080","","2622.2000000029802","13.76","img/117/4/1.5/bw/001.png","","","appealing"
"","","","","","animation","112","1470798","0.0-112.0","1920x1080","","2503.1000000089407","0","img/117/2.5/1.5/bw/001.png","","","appealing"
"","","","","","animation","113","1473008","0.0-113.0","1920x1080","","2209.5","25","img/314/4/0.66667/bw/001.png","","","appealing"
"","","","","","animation","114","1476950","0.0-114.0","1920x1080","","3940.8999999910593","9","img/238/4/0.5/bw/001.png","","","appealing"
"","","","","","animation","115","1479701","0.0-115.0","1920x1080","","2751.2000000029802","7.67","img/314/3.5/2/bw/001.png","","","appealing"
"","","","","","animation","116","1482461","0.0-116.0","1920x1080","","2759.0999999940395","0","img/238/2.5/1.5/bw/001.png","","","appealing"
"","","","","","animation","117","1484349","0.0-117.0","1920x1080","","1887.2000000029802","35.71","img/238/4.5/1/bw/001.png","","","appealing"
"","","","","","animation","118","1487261","0.0-118.0","1920x1080","","2910.6000000089407","0","img/117/2.5/0.66667/bw/001.png","","","appealing"
"","","","","","animation","119","1490645","0.0-119.0","1920x1080","","3383.3999999910593","0.40","img/238/3.5/0.5/bw/001.png","","","appealing"
"","","","","","animation","120","1492725","0.0-120.0","1920x1080","","2078.6000000089407","0.40","img/314/2.5/1.5/bw/001.png","","","appealing"
"","","","","","animation","121","1498241","0.0-121.0","1920x1080","","5514.9000000059605","28","img/117/4.5/1/bw/001.png","","","appealing"
"","","","","","animation","122","1500825","0.0-122.0","1920x1080","","2583.2999999970198","0.40","img/314/2.5/0.66667/bw/001.png","","","appealing"
"","","","","","animation","123","1503093","0.0-123.0","1920x1080","","2267.5","15","img/117/3.5/0.66667/bw/001.png","","","appealing"
"","","","","","animation","124","1504933","0.0-124.0","1920x1080","","1839.2999999970198","7.80","img/117/3.5/2/bw/001.png","","","appealing"
"","","","","","animation","125","1508791","0.0-125.0","1920x1080","","3857","40.87","img/238/4/1/bw/001.png","","","appealing"
"","","","","","animation","126","1511869","0.0-126.0","1920x1080","","3077.1000000089407","79","img/314/4.5/2/bw/001.png","","","appealing"
"","","","","","animation","127","1514877","0.0-127.0","1920x1080","","3006.7999999970198","23","img/117/4/0.66667/bw/001.png","","","appealing"
"","","","","","animation","128","1520877","0.0-128.0","1920x1080","","5998.5","92","img/314/5.5/1/bw/001.png","","","appealing"
"","","","","","animation","129","1523445","0.0-129.0","1920x1080","","2567.2000000029802","0.79","img/117/3.5/0.5/bw/001.png","","","appealing"
"","","","","","animation","130","1526543","0.0-130.0","1920x1080","","3096.7000000029802","21.83","img/314/4.5/1.5/bw/001.png","","","appealing"
"","","","","","animation","131","1530165","0.0-131.0","1920x1080","","3621.6000000089407","22.88","img/117/4.5/1.5/bw/001.png","","","appealing"
"","","","","","animation","132","1532093","0.0-132.0","1920x1080","","1926.6000000089407","13.10","img/117/4/1/bw/001.png","","","appealing"
"","","","","","animation","133","1534974","0.0-133.0","1920x1080","","2880.4000000059605","3.57","img/238/3.5/1.5/bw/001.png","","","appealing"
"","","","","","animation","134","1537197","0.0-134.0","1920x1080","","2222.199999988079","0","img/314/4/0.5/bw/001.png","","","appealing"
"","","","","","animation","135","1540068","0.0-135.0","1920x1080","","2871.2999999970198","2.91","img/314/4.5/0.5/bw/001.png","","","appealing"
"","","","","","animation","136","1542844","0.0-136.0","1920x1080","","2774.9000000059605","2.78","img/117/4.5/0.5/bw/001.png","","","appealing"
"","","","","","animation","137","1546457","0.0-137.0","1920x1080","","3611.300000011921","26.72","img/238/4/1.5/bw/001.png","","","appealing"
"","","","","","animation","138","1550708","0.0-138.0","1920x1080","","4250.4000000059605","4","img/238/2.5/2/bw/001.png","","","appealing"
"","","","","","animation","139","1554644","0.0-139.0","1920x1080","","3935.0999999940395","0.13","img/117/2.5/1/bw/001.png","","","appealing"
"","","","","","animation","140","1557265","0.0-140.0","1920x1080","","2619.5999999940395","0","img/238/2.5/1/bw/001.png","","","appealing"
"","","","","","animation","141","1560212","0.0-141.0","1920x1080","","2945.2999999970198","0","img/117/2.5/2/bw/001.png","","","appealing"
"","","","","","animation","142","1563974","0.0-142.0","1920x1080","","3760.5999999940395","97","img/238/5.5/1.5/bw/001.png","","","appealing"
"","","","","","animation","143","1567324","0.0-143.0","1920x1080","","3349.2000000029802","54.37","img/314/4/1.5/bw/001.png","","","appealing"
"","","","","","animation","144","1569228","0.0-144.0","1920x1080","","1903.2999999970198","49.07","img/117/4/2/bw/001.png","","","appealing"
"","","","","","animation","145","1572856","0.0-145.0","1920x1080","","3627.3999999910593","42","img/238/4/2/bw/001.png","","","appealing"
"","","","","","animation","146","1575476","0.0-146.0","1920x1080","","2618.6000000089407","11.11","img/238/4.5/0.5/bw/001.png","","","appealing"
"","","","","","animation","147","1579357","0.0-147.0","1920x1080","","3880.4000000059605","77","img/314/5.5/2/bw/001.png","","","appealing"
"","","","","","animation","148","1582473","0.0-148.0","1920x1080","","3115","0","img/238/2.5/0.66667/bw/001.png","","","appealing"
"","","","","","animation","149","1584884","0.0-149.0","1920x1080","","2409.6000000089407","5.56","img/117/4/0.5/bw/001.png","","","appealing"
"","","","","","animation","150","1589540","0.0-150.0","1920x1080","","4654.600000008941","35","img/117/5.5/0.5/bw/001.png","","","appealing"
"","","","","","animation","151","1593460","0.0-151.0","1920x1080","","3919.1000000089407","0","img/314/2.5/0.5/bw/001.png","","","appealing"
"","","","","","animation","152","1597040","0.0-152.0","1920x1080","","3579.5","5.42","img/117/3.5/1/bw/001.png","","","appealing"
"","","","","","animation","153","1599914","0.0-153.0","1920x1080","","2875","8.47","img/314/3.5/1.5/bw/001.png","","","appealing"
"","","","","","animation","154","1604421","0.0-154.0","1920x1080","","4506.29999999702","78.97","img/238/5.5/0.5/bw/001.png","","","appealing"
"","","","","","animation","155","1609922","0.0-155.0","1920x1080","","5499.600000008941","48","img/314/4.5/1/bw/001.png","","","appealing"
"","","","","","animation","156","1613438","0.0-156.0","1920x1080","","3515.2999999970198","1.59","img/314/2.5/2/bw/001.png","","","appealing"
"","","","","","animation","157","1617788","0.0-157.0","1920x1080","","4349.300000011921","86.90","img/117/5.5/1/bw/001.png","","","appealing"
"","","","","","animation","158","1623562","0.0-158.0","1920x1080","","5772.699999988079","84.92","img/314/5.5/0.66667/bw/001.png","","","appealing"
"","","","","","html-button-response","159","1641739","0.0-159.0","1920x1080","","18175.19999998808","","<div class=""intro"">You are about to view a new series of animations.<br><br></div><div class=""intro"">You will evaluate them based on a different descriptor.<br><br></div><div class=""intro"">Move the slider to indicate how <strong style=""text-transform:capitalize"">RELAXING</strong> you find each animation.<br><br></div><div class=""intro"">0 = Least Relaxing<br></div><div class=""intro"">1 = Most Relaxing<br><br></div><div class=""intro"">Remember to use the <strong><em>entire range</em></strong> of the slider to make your ratings.<br></div><div class=""intro"">Please <strong><em>take your time</em></strong> and carefully consider each rating you make.<br><br></div>","0","",""
"","","","","","call-function","160","1641741","0.0-160.0","1920x1080","","","","","","",""
"","","","","","animation","161","1649621","0.0-161.0","1920x1080","","7879.5999999940395","86.51","img/117/5.5/1.5/bw/001.png","","","relaxing"
"","","","","","animation","162","1656474","0.0-162.0","1920x1080","","6851.70000000298","58","img/314/4.5/1.5/bw/001.png","","","relaxing"
"","","","","","animation","163","1662974","0.0-163.0","1920x1080","","6496","29.89","img/117/3.5/2/bw/001.png","","","relaxing"
"","","","","","animation","164","1669646","0.0-164.0","1920x1080","","6670.399999991059","80","img/238/5.5/1/bw/001.png","","","relaxing"
"","","","","","animation","165","1674077","0.0-165.0","1920x1080","","4430.29999999702","0.00","img/117/2.5/0.66667/bw/001.png","","","relaxing"
"","","","","","animation","166","1676958","0.0-166.0","1920x1080","","2877.8999999910593","0","img/314/3.5/1/bw/001.png","","","relaxing"
"","","","","","animation","167","1682030","0.0-167.0","1920x1080","","5071.0999999940395","0","img/238/2.5/0.66667/bw/001.png","","","relaxing"
"","","","","","animation","168","1684693","0.0-168.0","1920x1080","","2662.6000000089407","0","img/238/3.5/0.5/bw/001.png","","","relaxing"
"","","","","","animation","169","1692074","0.0-169.0","1920x1080","","7379.600000008941","95","img/238/5.5/1.5/bw/001.png","","","relaxing"
"","","","","","animation","170","1697814","0.0-170.0","1920x1080","","5738.699999988079","45.11","img/238/4/1.5/bw/001.png","","","relaxing"
"","","","","","animation","171","1699998","0.0-171.0","1920x1080","","2182.9000000059605","31.75","img/238/4.5/0.66667/bw/001.png","","","relaxing"
"","","","","","animation","172","1702641","0.0-172.0","1920x1080","","2642.9000000059605","49.34","img/117/4.5/2/bw/001.png","","","relaxing"
"","","","","","animation","173","1705214","0.0-173.0","1920x1080","","2571.2999999970198","62.04","img/238/4.5/2/bw/001.png","","","relaxing"
"","","","","","animation","174","1708934","0.0-174.0","1920x1080","","3718.699999988079","70.50","img/238/5.5/0.66667/bw/001.png","","","relaxing"
"","","","","","animation","175","1711302","0.0-175.0","1920x1080","","2367.300000011921","4.50","img/238/2.5/2/bw/001.png","","","relaxing"
"","","","","","animation","176","1713559","0.0-176.0","1920x1080","","2255.5","7.28","img/314/3.5/2/bw/001.png","","","relaxing"
"","","","","","animation","177","1716458","0.0-177.0","1920x1080","","2898.2999999970198","0.13","img/314/2.5/1.5/bw/001.png","","","relaxing"
"","","","","","animation","178","1719844","0.0-178.0","1920x1080","","3387.0999999940395","1.19","img/238/4/0.66667/bw/001.png","","","relaxing"
"","","","","","animation","179","1723676","0.0-179.0","1920x1080","","3830.7000000029802","62.83","img/314/4.5/2/bw/001.png","","","relaxing"
"","","","","","animation","180","1726500","0.0-180.0","1920x1080","","2823.6000000089407","51.85","img/314/4.5/0.66667/bw/001.png","","","relaxing"
"","","","","","animation","181","1728839","0.0-181.0","1920x1080","","2337.7000000029802","12.43","img/117/3.5/0.66667/bw/001.png","","","relaxing"
"","","","","","animation","182","1734090","0.0-182.0","1920x1080","","5249.29999999702","3","img/117/2.5/2/bw/001.png","","","relaxing"
"","","","","","animation","183","1739273","0.0-183.0","1920x1080","","5182.5999999940395","26.19","img/314/4.5/1/bw/001.png","","","relaxing"
"","","","","","animation","184","1741876","0.0-184.0","1920x1080","","2601.8999999910593","4.50","img/117/4/0.66667/bw/001.png","","","relaxing"
"","","","","","animation","185","1746757","0.0-185.0","1920x1080","","4879.70000000298","56.61","img/314/5.5/1/bw/001.png","","","relaxing"
"","","","","","animation","186","1751460","0.0-186.0","1920x1080","","4702.600000008941","23.94","img/314/4.5/0.5/bw/001.png","","","relaxing"
"","","","","","animation","187","1755590","0.0-187.0","1920x1080","","4128.70000000298","45.63","img/314/5.5/0.5/bw/001.png","","","relaxing"
"","","","","","animation","188","1757892","0.0-188.0","1920x1080","","2301.2999999970198","22","img/117/3.5/1/bw/001.png","","","relaxing"
"","","","","","animation","189","1760506","0.0-189.0","1920x1080","","2613","0.79","img/238/2.5/1.5/bw/001.png","","","relaxing"
"","","","","","animation","190","1766306","0.0-190.0","1920x1080","","5799.20000000298","96","img/117/5.5/2/bw/001.png","","","relaxing"
"","","","","","animation","191","1769223","0.0-191.0","1920x1080","","2915.300000011921","57.80","img/117/4.5/1.5/bw/001.png","","","relaxing"
"","","","","","animation","192","1773148","0.0-192.0","1920x1080","","3924.0999999940395","48.02","img/314/4/1.5/bw/001.png","","","relaxing"
"","","","","","animation","193","1775024","0.0-193.0","1920x1080","","1874.5","41.80","img/314/4/2/bw/001.png","","","relaxing"
"","","","","","animation","194","1779379","0.0-194.0","1920x1080","","4355.5","35.05","img/238/4/1/bw/001.png","","","relaxing"
"","","","","","animation","195","1782443","0.0-195.0","1920x1080","","3063.0999999940395","46.03","img/238/5.5/0.5/bw/001.png","","","relaxing"
"","","","","","animation","196","1784843","0.0-196.0","1920x1080","","2399","63.76","img/238/4/2/bw/001.png","","","relaxing"
"","","","","","animation","197","1788355","0.0-197.0","1920x1080","","3511.7000000029802","11.24","img/314/3.5/1.5/bw/001.png","","","relaxing"
"","","","","","animation","198","1790995","0.0-198.0","1920x1080","","2636.699999988079","4.89","img/238/3.5/2/bw/001.png","","","relaxing"
"","","","","","animation","199","1792915","0.0-199.0","1920x1080","","1918.9000000059605","4.76","img/117/4/2/bw/001.png","","","relaxing"
"","","","","","animation","200","1795038","0.0-200.0","1920x1080","","2122.2000000029802","0.40","img/238/2.5/0.5/bw/001.png","","","relaxing"
"","","","","","animation","201","1800888","0.0-201.0","1920x1080","","5849.20000000298","91.40","img/238/4.5/1.5/bw/001.png","","","relaxing"
"","","","","","animation","202","1803579","0.0-202.0","1920x1080","","2689.5","33.33","img/117/4.5/0.5/bw/001.png","","","relaxing"
"","","","","","animation","203","1806406","0.0-203.0","1920x1080","","2826.5","43.65","img/314/4/1/bw/001.png","","","relaxing"
"","","","","","animation","204","1808504","0.0-204.0","1920x1080","","2097.2000000029802","14.95","img/238/3.5/0.66667/bw/001.png","","","relaxing"
"","","","","","animation","205","1811173","0.0-205.0","1920x1080","","2667.6000000089407","0.40","img/314/2.5/0.66667/bw/001.png","","","relaxing"
"","","","","","animation","206","1813322","0.0-206.0","1920x1080","","2148.0999999940395","0.53","img/314/3.5/0.66667/bw/001.png","","","relaxing"
"","","","","","animation","207","1815505","0.0-207.0","1920x1080","","2181.2999999970198","5.03","img/238/3.5/1/bw/001.png","","","relaxing"
"","","","","","animation","208","1819874","0.0-208.0","1920x1080","","4368.399999991059","23","img/117/4/1/bw/001.png","","","relaxing"
"","","","","","animation","209","1822842","0.0-209.0","1920x1080","","2967","3.04","img/314/2.5/2/bw/001.png","","","relaxing"
"","","","","","animation","210","1825372","0.0-210.0","1920x1080","","2528.0999999940395","2.38","img/117/2.5/1.5/bw/001.png","","","relaxing"
"","","","","","animation","211","1830059","0.0-211.0","1920x1080","","4685.79999999702","0","img/314/3.5/0.5/bw/001.png","","","relaxing"
"","","","","","animation","212","1832655","0.0-212.0","1920x1080","","2595.0999999940395","87.30","img/238/4.5/0.5/bw/001.png","","","relaxing"
"","","","","","animation","213","1835005","0.0-213.0","1920x1080","","2349.4000000059605","0","img/117/2.5/1/bw/001.png","","","relaxing"
"","","","","","animation","214","1839073","0.0-214.0","1920x1080","","4064.9000000059605","12","img/117/5.5/0.5/bw/001.png","","","relaxing"
"","","","","","animation","215","1845076","0.0-215.0","1920x1080","","6002.199999988079","99","img/314/5.5/2/bw/001.png","","","relaxing"
"","","","","","animation","216","1852581","0.0-216.0","1920x1080","","7503.20000000298","78.44","img/117/4.5/1/bw/001.png","","","relaxing"
"","","","","","animation","217","1856613","0.0-217.0","1920x1080","","4030.7999999970198","58","img/314/5.5/0.66667/bw/001.png","","","relaxing"
"","","","","","animation","218","1860041","0.0-218.0","1920x1080","","3427","16.53","img/117/3.5/0.5/bw/001.png","","","relaxing"
"","","","","","animation","219","1863324","0.0-219.0","1920x1080","","3282.3999999910593","46","img/117/4/1.5/bw/001.png","","","relaxing"
"","","","","","animation","220","1865891","0.0-220.0","1920x1080","","2565.7000000029802","58.07","img/117/5.5/0.66667/bw/001.png","","","relaxing"
"","","","","","animation","221","1870708","0.0-221.0","1920x1080","","4816.5","64","img/238/4.5/1/bw/001.png","","","relaxing"
"","","","","","animation","222","1875661","0.0-222.0","1920x1080","","4951.29999999702","93","img/238/5.5/2/bw/001.png","","","relaxing"
"","","","","","animation","223","1880757","0.0-223.0","1920x1080","","5095","97","img/314/5.5/1.5/bw/001.png","","","relaxing"
"","","","","","animation","224","1883523","0.0-224.0","1920x1080","","2764.7999999970198","3","img/117/4/0.5/bw/001.png","","","relaxing"
"","","","","","animation","225","1885508","0.0-225.0","1920x1080","","1983.7999999970198","0","img/238/2.5/1/bw/001.png","","","relaxing"
"","","","","","animation","226","1889429","0.0-226.0","1920x1080","","3919.300000011921","28.31","img/238/3.5/1.5/bw/001.png","","","relaxing"
"","","","","","animation","227","1891824","0.0-227.0","1920x1080","","2393.7000000029802","0","img/314/2.5/0.5/bw/001.png","","","relaxing"
"","","","","","animation","228","1894108","0.0-228.0","1920x1080","","2283.7999999970198","0","img/117/2.5/0.5/bw/001.png","","","relaxing"
"","","","","","animation","229","1896181","0.0-229.0","1920x1080","","2071.2000000029802","8.20","img/314/4/0.5/bw/001.png","","","relaxing"
"","","","","","animation","230","1898289","0.0-230.0","1920x1080","","2108.7000000029802","16.80","img/314/4/0.66667/bw/001.png","","","relaxing"
"","","","","","animation","231","1900660","0.0-231.0","1920x1080","","2369.5","25.40","img/117/3.5/1.5/bw/001.png","","","relaxing"
"","","","","","animation","232","1902732","0.0-232.0","1920x1080","","2070.7000000029802","0","img/314/2.5/1/bw/001.png","","","relaxing"
"","","","","","animation","233","1904764","0.0-233.0","1920x1080","","2030.7999999970198","18.78","img/117/4.5/0.66667/bw/001.png","","","relaxing"
"","","","","","animation","234","1907439","0.0-234.0","1920x1080","","2674.2000000029802","60.45","img/117/5.5/1/bw/001.png","","","relaxing"
"","","","","","animation","235","1909660","0.0-235.0","1920x1080","","2219.4000000059605","5","img/238/4/0.5/bw/001.png","","","relaxing"
"","","","","","html-button-response","236","1928940","0.0-236.0","1920x1080","","19278.70000000298","","<div class=""intro"">You are about to view a new series of animations.<br><br></div><div class=""intro"">You will evaluate them based on a different descriptor.<br><br></div><div class=""intro"">Move the slider to indicate how <strong style=""text-transform:capitalize"">INTERESTING</strong> you find each animation.<br><br></div><div class=""intro"">0 = Least Interesting<br></div><div class=""intro"">1 = Most Interesting<br><br></div><div class=""intro"">Remember to use the <strong><em>entire range</em></strong> of the slider to make your ratings.<br></div><div class=""intro"">Please <strong><em>take your time</em></strong> and carefully consider each rating you make.<br><br></div>","0","",""
"","","","","","call-function","237","1928941","0.0-237.0","1920x1080","","","","","","",""
"","","","","","animation","238","1937980","0.0-238.0","1920x1080","","9038.79999999702","50","img/314/2.5/2/bw/001.png","","","interesting"
"","","","","","animation","239","1940907","0.0-239.0","1920x1080","","2926.5999999940395","29","img/238/4.5/0.5/bw/001.png","","","interesting"
"","","","","","animation","240","1944148","0.0-240.0","1920x1080","","3239.4000000059605","23","img/117/4/0.5/bw/001.png","","","interesting"
"","","","","","animation","241","1949196","0.0-241.0","1920x1080","","5046.70000000298","64","img/314/4.5/0.66667/bw/001.png","","","interesting"
"","","","","","animation","242","1952606","0.0-242.0","1920x1080","","3408.6000000089407","88.10","img/314/4.5/2/bw/001.png","","","interesting"
"","","","","","animation","243","1955727","0.0-243.0","1920x1080","","3119.7999999970198","85.45","img/117/5.5/0.66667/bw/001.png","","","interesting"
"","","","","","animation","244","1962122","0.0-244.0","1920x1080","","6389.699999988079","31","img/314/2.5/1/bw/001.png","","","interesting"
"","","","","","animation","245","1964654","0.0-245.0","1920x1080","","2531.3999999910593","28.44","img/117/2.5/1.5/bw/001.png","","","interesting"
"","","","","","animation","246","1967739","0.0-246.0","1920x1080","","3083.9000000059605","4.63","img/238/3.5/1.5/bw/001.png","","","interesting"
"","","","","","animation","247","1973378","0.0-247.0","1920x1080","","5633.79999999702","93.25","img/117/5.5/2/bw/001.png","","","interesting"
"","","","","","animation","248","1976242","0.0-248.0","1920x1080","","2862.800000011921","86.38","img/314/4.5/1/bw/001.png","","","interesting"
"","","","","","animation","249","1979502","0.0-249.0","1920x1080","","3259.3999999910593","76","img/238/4.5/0.66667/bw/001.png","","","interesting"
"","","","","","animation","250","1981658","0.0-250.0","1920x1080","","2154","71.16","img/314/5.5/1.5/bw/001.png","","","interesting"
"","","","","","animation","251","1986288","0.0-251.0","1920x1080","","4629.699999988079","72","img/238/5.5/1.5/bw/001.png","","","interesting"
"","","","","","animation","252","1989254","0.0-252.0","1920x1080","","2964.3999999910593","87.04","img/117/4.5/1.5/bw/001.png","","","interesting"
"","","","","","animation","253","1991854","0.0-253.0","1920x1080","","2599","10.05","img/238/2.5/0.66667/bw/001.png","","","interesting"
"","","","","","animation","254","1993842","0.0-254.0","1920x1080","","1986.0999999940395","9.13","img/117/2.5/2/bw/001.png","","","interesting"
"","","","","","animation","255","1996737","0.0-255.0","1920x1080","","2894.2999999970198","3","img/238/2.5/2/bw/001.png","","","interesting"
"","","","","","animation","256","1999337","0.0-256.0","1920x1080","","2598.4000000059605","0.40","img/314/2.5/0.66667/bw/001.png","","","interesting"
"","","","","","animation","257","2002671","0.0-257.0","1920x1080","","3332.300000011921","63.49","img/117/5.5/0.5/bw/001.png","","","interesting"
"","","","","","animation","258","2005487","0.0-258.0","1920x1080","","2815.7000000029802","74.47","img/238/5.5/0.5/bw/001.png","","","interesting"
"","","","","","animation","259","2010642","0.0-259.0","1920x1080","","5153.5","79.76","img/117/3.5/2/bw/001.png","","","interesting"
"","","","","","animation","260","2013346","0.0-260.0","1920x1080","","2703.2000000029802","58","img/314/4/2/bw/001.png","","","interesting"
"","","","","","animation","261","2015642","0.0-261.0","1920x1080","","2294.7000000029802","39.02","img/117/3.5/0.66667/bw/001.png","","","interesting"
"","","","","","animation","262","2019044","0.0-262.0","1920x1080","","3398.8999999910593","75.40","img/314/5.5/1/bw/001.png","","","interesting"
"","","","","","animation","263","2021539","0.0-263.0","1920x1080","","2494.5999999940395","14.81","img/238/2.5/1.5/bw/001.png","","","interesting"
"","","","","","animation","264","2023856","0.0-264.0","1920x1080","","2315.2999999970198","90.34","img/314/5.5/0.5/bw/001.png","","","interesting"
"","","","","","animation","265","2028507","0.0-265.0","1920x1080","","4650.4000000059605","21.96","img/117/2.5/0.66667/bw/001.png","","","interesting"
"","","","","","animation","266","2032989","0.0-266.0","1920x1080","","4480.899999991059","26.32","img/314/3.5/1/bw/001.png","","","interesting"
"","","","","","animation","267","2036123","0.0-267.0","1920x1080","","3132.9000000059605","50.40","img/117/4.5/2/bw/001.png","","","interesting"
"","","","","","animation","268","2039012","0.0-268.0","1920x1080","","2886.5","64.55","img/314/4.5/1.5/bw/001.png","","","interesting"
"","","","","","animation","269","2041444","0.0-269.0","1920x1080","","2430.5","39","img/238/4/2/bw/001.png","","","interesting"
"","","","","","animation","270","2043275","0.0-270.0","1920x1080","","1830.5999999940395","8.73","img/238/2.5/0.5/bw/001.png","","","interesting"
"","","","","","animation","271","2045772","0.0-271.0","1920x1080","","2496","10.45","img/117/3.5/0.5/bw/001.png","","","interesting"
"","","","","","animation","272","2049523","0.0-272.0","1920x1080","","3749.7000000029802","58.73","img/314/4/0.5/bw/001.png","","","interesting"
"","","","","","animation","273","2051490","0.0-273.0","1920x1080","","1965","29.89","img/238/4/1/bw/001.png","","","interesting"
"","","","","","animation","274","2053656","0.0-274.0","1920x1080","","2165.4000000059605","26","img/117/4/1/bw/001.png","","","interesting"
"","","","","","animation","275","2058739","0.0-275.0","1920x1080","","5082.0999999940395","77","img/117/4.5/1/bw/001.png","","","interesting"
"","","","","","animation","276","2061506","0.0-276.0","1920x1080","","2764.800000011921","30.82","img/117/2.5/1/bw/001.png","","","interesting"
"","","","","","animation","277","2066340","0.0-277.0","1920x1080","","4832.70000000298","92","img/238/5.5/1/bw/001.png","","","interesting"
"","","","","","animation","278","2069427","0.0-278.0","1920x1080","","3086.5999999940395","96","img/117/5.5/1.5/bw/001.png","","","interesting"
"","","","","","animation","279","2071459","0.0-279.0","1920x1080","","2030.3999999910593","0.13","img/117/2.5/0.5/bw/001.png","","","interesting"
"","","","","","animation","280","2076691","0.0-280.0","1920x1080","","5230.9000000059605","100","img/238/5.5/2/bw/001.png","","","interesting"
"","","","","","animation","281","2078963","0.0-281.0","1920x1080","","2271.2000000029802","19.58","img/238/3.5/2/bw/001.png","","","interesting"
"","","","","","animation","282","2083338","0.0-282.0","1920x1080","","4373.9000000059605","5","img/238/4/0.5/bw/001.png","","","interesting"
"","","","","","animation","283","2087855","0.0-283.0","1920x1080","","4515.70000000298","5.95","img/117/4.5/0.66667/bw/001.png","","","interesting"
"","","","","","animation","284","2091106","0.0-284.0","1920x1080","","3249","0","img/314/2.5/1.5/bw/001.png","","","interesting"
"","","","","","animation","285","2095491","0.0-285.0","1920x1080","","4383","0","img/314/3.5/0.5/bw/001.png","","","interesting"
"","","","","","animation","286","2098289","0.0-286.0","1920x1080","","2795.9000000059605","7.28","img/314/3.5/1.5/bw/001.png","","","interesting"
"","","","","","animation","287","2101915","0.0-287.0","1920x1080","","3624.5999999940395","97","img/314/5.5/0.66667/bw/001.png","","","interesting"
"","","","","","animation","288","2104355","0.0-288.0","1920x1080","","2437.7999999970198","71.30","img/314/4.5/0.5/bw/001.png","","","interesting"
"","","","","","animation","289","2107539","0.0-289.0","1920x1080","","3182.2999999970198","64.29","img/314/4/1/bw/001.png","","","interesting"
"","","","","","animation","290","2109995","0.0-290.0","1920x1080","","2455.5","56","img/117/3.5/1/bw/001.png","","","interesting"
"","","","","","animation","291","2112639","0.0-291.0","1920x1080","","2642.3999999910593","83.47","img/314/4/1.5/bw/001.png","","","interesting"
"","","","","","animation","292","2115122","0.0-292.0","1920x1080","","2481.7999999970198","39.68","img/314/3.5/0.66667/bw/001.png","","","interesting"
"","","","","","animation","293","2117622","0.0-293.0","1920x1080","","2499.2000000029802","30.56","img/238/3.5/0.66667/bw/001.png","","","interesting"
"","","","","","animation","294","2119923","0.0-294.0","1920x1080","","2299.4000000059605","76.46","img/117/4/2/bw/001.png","","","interesting"
"","","","","","animation","295","2122656","0.0-295.0","1920x1080","","2731.9000000059605","28.17","img/238/3.5/0.5/bw/001.png","","","interesting"
"","","","","","animation","296","2125239","0.0-296.0","1920x1080","","2582.199999988079","3.04","img/314/2.5/0.5/bw/001.png","","","interesting"
"","","","","","animation","297","2128372","0.0-297.0","1920x1080","","3131.7999999970198","3.44","img/238/2.5/1/bw/001.png","","","interesting"
"","","","","","animation","298","2131656","0.0-298.0","1920x1080","","3282.5999999940395","92.46","img/314/5.5/2/bw/001.png","","","interesting"
"","","","","","animation","299","2133489","0.0-299.0","1920x1080","","1831.3999999910593","88.62","img/314/4/0.66667/bw/001.png","","","interesting"
"","","","","","animation","300","2137827","0.0-300.0","1920x1080","","4337.20000000298","58.86","img/117/4/0.66667/bw/001.png","","","interesting"
"","","","","","animation","301","2140672","0.0-301.0","1920x1080","","2843.9000000059605","51.06","img/314/3.5/2/bw/001.png","","","interesting"
"","","","","","animation","302","2143988","0.0-302.0","1920x1080","","3315.5","92.33","img/238/5.5/0.66667/bw/001.png","","","interesting"
"","","","","","animation","303","2147238","0.0-303.0","1920x1080","","3248.7999999970198","35","img/117/4/1.5/bw/001.png","","","interesting"
"","","","","","animation","304","2150955","0.0-304.0","1920x1080","","3715.5","48.94","img/238/4.5/2/bw/001.png","","","interesting"
"","","","","","animation","305","2154106","0.0-305.0","1920x1080","","3150.2000000029802","66.67","img/238/4.5/1.5/bw/001.png","","","interesting"
"","","","","","animation","306","2158027","0.0-306.0","1920x1080","","3919","0","img/117/3.5/1.5/bw/001.png","","","interesting"
"","","","","","animation","307","2163055","0.0-307.0","1920x1080","","5026.79999999702","1.59","img/238/3.5/1/bw/001.png","","","interesting"
"","","","","","animation","308","2165843","0.0-308.0","1920x1080","","2786.7000000029802","4.89","img/117/4.5/0.5/bw/001.png","","","interesting"
"","","","","","animation","309","2170572","0.0-309.0","1920x1080","","4727.9000000059605","16.67","img/238/4/1.5/bw/001.png","","","interesting"
"","","","","","animation","310","2174922","0.0-310.0","1920x1080","","4348.600000008941","85.45","img/117/5.5/1/bw/001.png","","","interesting"
"","","","","","animation","311","2178140","0.0-311.0","1920x1080","","3217.1000000089407","70.63","img/238/4.5/1/bw/001.png","","","interesting"
"","","","","","animation","312","2180890","0.0-312.0","1920x1080","","2749.0999999940395","33.86","img/238/4/0.66667/bw/001.png","","","interesting"
"","","","","","html-button-response","313","2199932","0.0-313.0","1920x1080","","19032.29999999702","","<div class=""intro"">You are about to view a new series of animations.<br><br></div><div class=""intro"">You will evaluate them based on a different descriptor.<br><br></div><div class=""intro"">Move the slider to indicate how <strong style=""text-transform:capitalize"">NATURAL</strong> you find each animation.<br><br></div><div class=""intro"">0 = Least Natural<br></div><div class=""intro"">1 = Most Natural<br><br></div><div class=""intro"">Remember to use the <strong><em>entire range</em></strong> of the slider to make your ratings.<br></div><div class=""intro"">Please <strong><em>take your time</em></strong> and carefully consider each rating you make.<br><br></div>","0","",""
"","","","","","call-function","314","2199934","0.0-314.0","1920x1080","","","","","","",""
"","","","","","animation","315","2211019","0.0-315.0","1920x1080","","11084","85.05","img/314/3.5/1.5/bw/001.png","","","natural"
"","","","","","animation","316","2217363","0.0-316.0","1920x1080","","6342.5999999940395","90.48","img/117/4.5/2/bw/001.png","","","natural"
"","","","","","animation","317","2222580","0.0-317.0","1920x1080","","5215.5","33","img/314/4.5/0.66667/bw/001.png","","","natural"
"","","","","","animation","318","2226580","0.0-318.0","1920x1080","","3998.5","0","img/314/2.5/0.5/bw/001.png","","","natural"
"","","","","","animation","319","2230019","0.0-319.0","1920x1080","","3438","7","img/117/3.5/0.66667/bw/001.png","","","natural"
"","","","","","animation","320","2234587","0.0-320.0","1920x1080","","4567","6.08","img/117/4/0.5/bw/001.png","","","natural"
"","","","","","animation","321","2250187","0.0-321.0","1920x1080","","15598.39999999106","93.65","img/238/5.5/0.5/bw/001.png","","","natural"
"","","","","","animation","322","2253316","0.0-322.0","1920x1080","","3127.7999999970198","10","img/117/3.5/0.5/bw/001.png","","","natural"
"","","","","","animation","323","2257619","0.0-323.0","1920x1080","","4301.5","1.59","img/238/2.5/1/bw/001.png","","","natural"
"","","","","","animation","324","2260775","0.0-324.0","1920x1080","","3166.0999999940395","91.93","img/238/5.5/1/bw/001.png","","","natural"
"","","","","","animation","325","2265128","0.0-325.0","1920x1080","","4351.5","85.05","img/314/5.5/1.5/bw/001.png","","","natural"
"","","","","","animation","326","2267807","0.0-326.0","1920x1080","","2677.4000000059605","80.16","img/117/5.5/0.5/bw/001.png","","","natural"
"","","","","","animation","327","2273871","0.0-327.0","1920x1080","","6062.5","74","img/117/4.5/1.5/bw/001.png","","","natural"
"","","","","","animation","328","2276639","0.0-328.0","1920x1080","","2767.2000000029802","79.23","img/238/5.5/0.66667/bw/001.png","","","natural"
"","","","","","animation","329","2280451","0.0-329.0","1920x1080","","3810.5999999940395","44.84","img/238/4/1.5/bw/001.png","","","natural"
"","","","","","animation","330","2282685","0.0-330.0","1920x1080","","2232","65.61","img/117/5.5/2/bw/001.png","","","natural"
"","","","","","animation","331","2288893","0.0-331.0","1920x1080","","6207.300000011921","27","img/117/4/1/bw/001.png","","","natural"
"","","","","","animation","332","2292255","0.0-332.0","1920x1080","","3360.2999999970198","12.70","img/314/4/0.5/bw/001.png","","","natural"
"","","","","","animation","333","2297468","0.0-333.0","1920x1080","","5211.9000000059605","68","img/238/4.5/0.5/bw/001.png","","","natural"
"","","","","","animation","334","2300535","0.0-334.0","1920x1080","","3065.7999999970198","94","img/117/5.5/1/bw/001.png","","","natural"
"","","","","","animation","335","2303135","0.0-335.0","1920x1080","","2598.7000000029802","0","img/238/2.5/0.5/bw/001.png","","","natural"
"","","","","","animation","336","2305850","0.0-336.0","1920x1080","","2713.8999999910593","21.30","img/238/3.5/0.66667/bw/001.png","","","natural"
"","","","","","animation","337","2308503","0.0-337.0","1920x1080","","2651.4000000059605","85.71","img/314/5.5/0.66667/bw/001.png","","","natural"
"","","","","","animation","338","2311471","0.0-338.0","1920x1080","","2966.7000000029802","83.47","img/314/4.5/2/bw/001.png","","","natural"
"","","","","","animation","339","2314458","0.0-339.0","1920x1080","","2986","35.71","img/238/4/2/bw/001.png","","","natural"
"","","","","","animation","340","2318793","0.0-340.0","1920x1080","","4331.20000000298","96","img/117/4/2/bw/001.png","","","natural"
"","","","","","animation","341","2324121","0.0-341.0","1920x1080","","5325.79999999702","5","img/238/5.5/2/bw/001.png","","","natural"
"","","","","","animation","342","2327237","0.0-342.0","1920x1080","","3114.9000000059605","0","img/314/2.5/0.66667/bw/001.png","","","natural"
"","","","","","animation","343","2330587","0.0-343.0","1920x1080","","3348.5","0","img/238/4/0.5/bw/001.png","","","natural"
"","","","","","animation","344","2332987","0.0-344.0","1920x1080","","2398","13.49","img/117/4.5/0.66667/bw/001.png","","","natural"
"","","","","","animation","345","2336573","0.0-345.0","1920x1080","","3585.5","31","img/314/4.5/1/bw/001.png","","","natural"
"","","","","","animation","346","2341354","0.0-346.0","1920x1080","","4779.5999999940395","28.04","img/117/4/1.5/bw/001.png","","","natural"
"","","","","","animation","347","2345754","0.0-347.0","1920x1080","","4399.29999999702","69.84","img/314/4/2/bw/001.png","","","natural"
"","","","","","animation","348","2353696","0.0-348.0","1920x1080","","7940.600000008941","35.45","img/117/3.5/1/bw/001.png","","","natural"
"","","","","","animation","349","2356170","0.0-349.0","1920x1080","","2473.2000000029802","87","img/117/5.5/1.5/bw/001.png","","","natural"
"","","","","","animation","350","2361227","0.0-350.0","1920x1080","","5055.29999999702","0","img/117/2.5/0.5/bw/001.png","","","natural"
"","","","","","animation","351","2365021","0.0-351.0","1920x1080","","3791.8999999910593","91","img/238/3.5/2/bw/001.png","","","natural"
"","","","","","animation","352","2372063","0.0-352.0","1920x1080","","7040.70000000298","82.54","img/314/4/0.66667/bw/001.png","","","natural"
"","","","","","animation","353","2378735","0.0-353.0","1920x1080","","6672.29999999702","81.61","img/238/4.5/1/bw/001.png","","","natural"
"","","","","","animation","354","2384353","0.0-354.0","1920x1080","","5616","11","img/314/2.5/2/bw/001.png","","","natural"
"","","","","","animation","355","2386985","0.0-355.0","1920x1080","","2631.5","79","img/314/4/1.5/bw/001.png","","","natural"
"","","","","","animation","356","2391808","0.0-356.0","1920x1080","","4821","3","img/314/2.5/1.5/bw/001.png","","","natural"
"","","","","","animation","357","2394702","0.0-357.0","1920x1080","","2892.7000000029802","0.93","img/238/2.5/1.5/bw/001.png","","","natural"
"","","","","","animation","358","2398019","0.0-358.0","1920x1080","","3315.5","91","img/314/5.5/0.5/bw/001.png","","","natural"
"","","","","","animation","359","2400593","0.0-359.0","1920x1080","","2573.0999999940395","97","img/117/5.5/0.66667/bw/001.png","","","natural"
"","","","","","animation","360","2404720","0.0-360.0","1920x1080","","4125","82.14","img/117/3.5/1.5/bw/001.png","","","natural"
"","","","","","animation","361","2408080","0.0-361.0","1920x1080","","3359.6000000089407","71.56","img/314/5.5/1/bw/001.png","","","natural"
"","","","","","animation","362","2412452","0.0-362.0","1920x1080","","4370.100000008941","14","img/238/4.5/0.66667/bw/001.png","","","natural"
"","","","","","animation","363","2417485","0.0-363.0","1920x1080","","5031.79999999702","16.80","img/314/3.5/1/bw/001.png","","","natural"
"","","","","","animation","364","2424119","0.0-364.0","1920x1080","","6633.0999999940395","24","img/314/4.5/0.5/bw/001.png","","","natural"
"","","","","","animation","365","2429119","0.0-365.0","1920x1080","","4997.70000000298","89","img/238/4.5/2/bw/001.png","","","natural"
"","","","","","animation","366","2431985","0.0-366.0","1920x1080","","2863.8999999910593","2","img/238/2.5/2/bw/001.png","","","natural"
"","","","","","animation","367","2434242","0.0-367.0","1920x1080","","2255.7999999970198","1.59","img/117/2.5/2/bw/001.png","","","natural"
"","","","","","animation","368","2436271","0.0-368.0","1920x1080","","2012.5999999940395","13.23","img/238/4/0.66667/bw/001.png","","","natural"
"","","","","","animation","369","2439684","0.0-369.0","1920x1080","","3412.7000000029802","87","img/238/3.5/1.5/bw/001.png","","","natural"
"","","","","","animation","370","2442285","0.0-370.0","1920x1080","","2599.699999988079","7.14","img/238/3.5/0.5/bw/001.png","","","natural"
"","","","","","animation","371","2444873","0.0-371.0","1920x1080","","2582.7999999970198","53.17","img/117/3.5/2/bw/001.png","","","natural"
"","","","","","animation","372","2449139","0.0-372.0","1920x1080","","4264.5","97","img/314/3.5/0.66667/bw/001.png","","","natural"
"","","","","","animation","373","2452644","0.0-373.0","1920x1080","","3503.2999999970198","0","img/117/2.5/0.66667/bw/001.png","","","natural"
"","","","","","animation","374","2456486","0.0-374.0","1920x1080","","3840.5999999940395","85.58","img/314/4.5/1.5/bw/001.png","","","natural"
"","","","","","animation","375","2460801","0.0-375.0","1920x1080","","4313.199999988079","76.46","img/238/3.5/1/bw/001.png","","","natural"
"","","","","","animation","376","2463902","0.0-376.0","1920x1080","","3100.2000000029802","79.10","img/117/4/0.66667/bw/001.png","","","natural"
"","","","","","animation","377","2467702","0.0-377.0","1920x1080","","3798.5","43","img/238/4/1/bw/001.png","","","natural"
"","","","","","animation","378","2472267","0.0-378.0","1920x1080","","4563.70000000298","17.72","img/238/5.5/1.5/bw/001.png","","","natural"
"","","","","","animation","379","2474670","0.0-379.0","1920x1080","","2401.8999999910593","18","img/314/3.5/2/bw/001.png","","","natural"
"","","","","","animation","380","2477591","0.0-380.0","1920x1080","","2919.7999999970198","1","img/314/2.5/1/bw/001.png","","","natural"
"","","","","","animation","381","2480550","0.0-381.0","1920x1080","","2957.5999999940395","5","img/314/3.5/0.5/bw/001.png","","","natural"
"","","","","","animation","382","2483867","0.0-382.0","1920x1080","","3316","7.01","img/117/4.5/0.5/bw/001.png","","","natural"
"","","","","","animation","383","2486150","0.0-383.0","1920x1080","","2280.7000000029802","1.98","img/117/2.5/1.5/bw/001.png","","","natural"
"","","","","","animation","384","2490674","0.0-384.0","1920x1080","","4523.0999999940395","7.67","img/117/4.5/1/bw/001.png","","","natural"
"","","","","","animation","385","2494983","0.0-385.0","1920x1080","","4308.4000000059605","8.47","img/238/4.5/1.5/bw/001.png","","","natural"
"","","","","","animation","386","2503396","0.0-386.0","1920x1080","","8398.79999999702","40.87","img/314/5.5/2/bw/001.png","","","natural"
"","","","","","animation","387","2507235","0.0-387.0","1920x1080","","3837.5","70.63","img/314/4/1/bw/001.png","","","natural"
"","","","","","animation","388","2510147","0.0-388.0","1920x1080","","2910.1000000089407","0","img/117/2.5/1/bw/001.png","","","natural"
"","","","","","animation","389","2512904","0.0-389.0","1920x1080","","2756","0","img/238/2.5/0.66667/bw/001.png","","","natural"
"","","","","","html-button-response","390","2547579","0.0-390.0","1920x1080","","34673.09999999404","","<strong>Study Debriefing</strong><br><p class=""debrief""><strong>Background:</strong> The patterns you rated are called <em>fractals</em>. The term fractal describes a class of irregular curves or shapes for which any suitably chosen part is similar in shape to a given larger or smaller part when magnified or reduced to the same size. Fractal properties are found throughout the natural and manmade world. The series of animations you saw today displayed animated fractal patterns of a varying complexity.</p><p class=""debrief""><strong>Purpose of this study:</strong> We hope to better understand how the perception of static fractals differs from the perception of animated fractals, and how the speed of the animated patterns influences people&apos;s perception of them. Fractals allow us to study the perception of aesthetic properties (e.g. the perceived level of beauty in an image) without using recognizable content, which makes them an excellent tool for studying abstract aesthetic judgement.</p><p class=""debrief""><strong>Your part:</strong> Your participation has helped us to further understand how humans perceive these patterns across different levels of speed and complexity. This research with allow us to better understand how the visual system and brain process our ever-changing visual environments.<p class=""debrief""><strong>Feedback and Further information:</strong> If you have additional questions about this study, please feel free to ask the researcher, Nathan Gonzales-Hess at nhess @ uoregon.edu. If you have any questions concerning your rights as a research participant, please contact Research Compliance Services, 5237 University of Oregon, Eugene, OR 97403, 541-346-2510, or email researchCompliance @ uoregon.edu. You can also email the Human Subjects Coordinator for psychology and linguistics research at hscoord @ uoregon.edu. ","0","",""
"","","","","","html-button-response","391","2550672","0.0-391.0","1920x1080","","3089","","Thank you for participating in this study. <br>Please click below to finish the experiment and submit your responses.<br><br>","0","",""
"true","","","","","fullscreen","392","2551687","0.0-392.0","1920x1080","13:35 25/10/2022","","","","","",""
