"success","timeout","failed_images","failed_audio","failed_video","trial_type","trial_index","time_elapsed","internal_node_id","resolution","timeStamp","rt","response","stimulus","button_pressed","value","descriptor"
"true","false","[]","[]","[]","preload","0","6022","0.0-0.0","1920x1080","","","","","","",""
"true","false","[]","[]","[]","preload","1","12191","0.0-1.0","1920x1080","","","","","","",""
"true","false","[]","[]","[]","preload","2","18157","0.0-2.0","1920x1080","","","","","","",""
"true","","","","","fullscreen","3","728391","0.0-3.0","1920x1080","13:22 13/10/2022","","","","","",""
"","","","","","survey-html-form","4","734103","0.0-4.0","1920x1080","","5708.29999999702","{""age"":""31"",""gender"":""female""}","","","",""
"","","","","","html-button-response","5","810511","0.0-5.0","1920x1080","","76407","","<div class=""complex"">You are going to see a series of animations.<br><br></div><div class=""complex"">Move the slider to indicate how <strong style=""text-transform:capitalize"">COMPLEX</strong> you find each animation.<br><br></div><div class=""complex"">0 = Least Complex<br></div><div class=""complex"">1 = Most Complex<br><br></div><div class=""complex"">Remember to use the <strong><em>entire range</em></strong> of the slider to make your ratings.<br></div><div class=""complex"">Please <strong><em>take your time</em></strong> and carefully consider each rating you make.<br><br></div><div class=""complex"">The study has five sections and will take about 45 minutes to complete.<br><br></div>","0","",""
"","","","","","call-function","6","810512","0.0-6.0","1920x1080","","","","","","",""
"","","","","","animation","7","835598","0.0-7.0","1920x1080","","25085.70000000298","69.71","img/117/3.5/2/bw/001.png","","","complex"
"","","","","","animation","8","863943","0.0-8.0","1920x1080","","28343.40000000596","9.39","img/117/5.5/1.5/bw/001.png","","","complex"
"","","","","","animation","9","874375","0.0-9.0","1920x1080","","10430.79999999702","40.74","img/314/4.5/0.66667/bw/001.png","","","complex"
"","","","","","animation","10","888031","0.0-10.0","1920x1080","","13655.09999999404","98","img/117/2.5/1/bw/001.png","","","complex"
"","","","","","animation","11","902007","0.0-11.0","1920x1080","","13975.40000000596","58","img/117/3.5/1.5/bw/001.png","","","complex"
"","","","","","animation","12","910767","0.0-12.0","1920x1080","","8758.79999999702","32","img/314/4.5/1.5/bw/001.png","","","complex"
"","","","","","animation","13","934671","0.0-13.0","1920x1080","","23903.5","58","img/117/4/2/bw/001.png","","","complex"
"","","","","","animation","14","952615","0.0-14.0","1920x1080","","17942.89999999106","4","img/238/5.5/0.66667/bw/001.png","","","complex"
"","","","","","animation","15","961791","0.0-15.0","1920x1080","","9175.59999999404","13","img/117/5.5/1/bw/001.png","","","complex"
"","","","","","animation","16","974847","0.0-16.0","1920x1080","","13054.79999999702","59","img/314/3.5/1.5/bw/001.png","","","complex"
"","","","","","animation","17","985103","0.0-17.0","1920x1080","","10255.59999999404","80","img/314/3.5/0.5/bw/001.png","","","complex"
"","","","","","animation","18","990886","0.0-18.0","1920x1080","","5783.29999999702","75","img/314/3.5/1/bw/001.png","","","complex"
"","","","","","animation","19","1000127","0.0-19.0","1920x1080","","9240.29999999702","34","img/117/5.5/0.5/bw/001.png","","","complex"
"","","","","","animation","20","1006574","0.0-20.0","1920x1080","","6446.29999999702","20","img/314/5.5/1/bw/001.png","","","complex"
"","","","","","animation","21","1016670","0.0-21.0","1920x1080","","10095.20000000298","99","img/314/2.5/0.66667/bw/001.png","","","complex"
"","","","","","animation","22","1030622","0.0-22.0","1920x1080","","13951","46","img/238/4/2/bw/001.png","","","complex"
"","","","","","animation","23","1051532","0.0-23.0","1920x1080","","20911.19999998808","21","img/314/5.5/0.5/bw/001.png","","","complex"
"","","","","","animation","24","1068052","0.0-24.0","1920x1080","","16519.09999999404","47.75","img/238/4.5/0.66667/bw/001.png","","","complex"
"","","","","","animation","25","1073692","0.0-25.0","1920x1080","","5639.600000008941","59","img/117/4/0.66667/bw/001.png","","","complex"
"","","","","","animation","26","1082844","0.0-26.0","1920x1080","","9150.60000000894","97","img/238/2.5/1/bw/001.png","","","complex"
"","","","","","animation","27","1089452","0.0-27.0","1920x1080","","6607.29999999702","60","img/314/4.5/0.5/bw/001.png","","","complex"
"","","","","","animation","28","1099476","0.0-28.0","1920x1080","","10022.60000000894","49","img/238/4.5/1/bw/001.png","","","complex"
"","","","","","animation","29","1107644","0.0-29.0","1920x1080","","8167","98","img/117/2.5/0.5/bw/001.png","","","complex"
"","","","","","animation","30","1120462","0.0-30.0","1920x1080","","12815.79999999702","10","img/238/5.5/0.5/bw/001.png","","","complex"
"","","","","","animation","31","1129382","0.0-31.0","1920x1080","","8919.20000000298","55","img/238/3.5/1/bw/001.png","","","complex"
"","","","","","animation","32","1142111","0.0-32.0","1920x1080","","12728","8","img/314/5.5/2/bw/001.png","","","complex"
"","","","","","animation","33","1151382","0.0-33.0","1920x1080","","9270.20000000298","48","img/238/3.5/2/bw/001.png","","","complex"
"","","","","","animation","34","1158454","0.0-34.0","1920x1080","","7071.5","55","img/314/4/0.66667/bw/001.png","","","complex"
"","","","","","animation","35","1167198","0.0-35.0","1920x1080","","8742.59999999404","46.30","img/117/4.5/1.5/bw/001.png","","","complex"
"","","","","","animation","36","1175878","0.0-36.0","1920x1080","","8679.199999988079","96","img/117/2.5/1.5/bw/001.png","","","complex"
"","","","","","animation","37","1184229","0.0-37.0","1920x1080","","8350.90000000596","60","img/314/4/1.5/bw/001.png","","","complex"
"","","","","","animation","38","1191270","0.0-38.0","1920x1080","","7039.5","88","img/117/2.5/2/bw/001.png","","","complex"
"","","","","","animation","39","1206485","0.0-39.0","1920x1080","","15214.60000000894","5","img/238/5.5/1.5/bw/001.png","","","complex"
"","","","","","animation","40","1222174","0.0-40.0","1920x1080","","15687.20000000298","23","img/314/4.5/2/bw/001.png","","","complex"
"","","","","","animation","41","1236958","0.0-41.0","1920x1080","","14784.20000000298","55","img/314/3.5/2/bw/001.png","","","complex"
"","","","","","animation","42","1246733","0.0-42.0","1920x1080","","9773.59999999404","95","img/314/2.5/1/bw/001.png","","","complex"
"","","","","","animation","43","1255989","0.0-43.0","1920x1080","","9255.5","85","img/117/3.5/0.5/bw/001.png","","","complex"
"","","","","","animation","44","1263901","0.0-44.0","1920x1080","","7910.5","92","img/314/2.5/2/bw/001.png","","","complex"
"","","","","","animation","45","1268413","0.0-45.0","1920x1080","","4510.9000000059605","98","img/117/2.5/0.66667/bw/001.png","","","complex"
"","","","","","animation","46","1279405","0.0-46.0","1920x1080","","10991.70000000298","32.94","img/314/4.5/1/bw/001.png","","","complex"
"","","","","","animation","47","1285525","0.0-47.0","1920x1080","","6119.100000008941","88","img/238/2.5/2/bw/001.png","","","complex"
"","","","","","animation","48","1290106","0.0-48.0","1920x1080","","4583.5","75","img/238/3.5/1.5/bw/001.png","","","complex"
"","","","","","animation","49","1296625","0.0-49.0","1920x1080","","6515.199999988079","71","img/238/4/0.66667/bw/001.png","","","complex"
"","","","","","animation","50","1305209","0.0-50.0","1920x1080","","8583.300000011921","60","img/314/4/2/bw/001.png","","","complex"
"","","","","","animation","51","1309833","0.0-51.0","1920x1080","","4623.4000000059605","64","img/117/4.5/0.66667/bw/001.png","","","complex"
"","","","","","animation","52","1314321","0.0-52.0","1920x1080","","4487.5999999940395","68","img/238/4/1/bw/001.png","","","complex"
"","","","","","animation","53","1324897","0.0-53.0","1920x1080","","10575.09999999404","72","img/314/4/1/bw/001.png","","","complex"
"","","","","","animation","54","1338881","0.0-54.0","1920x1080","","13982.79999999702","89","img/238/2.5/1.5/bw/001.png","","","complex"
"","","","","","animation","55","1344361","0.0-55.0","1920x1080","","5478.9000000059605","76","img/238/4.5/0.5/bw/001.png","","","complex"
"","","","","","animation","56","1348522","0.0-56.0","1920x1080","","4160.29999999702","79","img/117/3.5/1/bw/001.png","","","complex"
"","","","","","animation","57","1352828","0.0-57.0","1920x1080","","4302","69","img/117/4.5/0.5/bw/001.png","","","complex"
"","","","","","animation","58","1366164","0.0-58.0","1920x1080","","13335.20000000298","5","img/238/5.5/1/bw/001.png","","","complex"
"","","","","","animation","59","1372925","0.0-59.0","1920x1080","","6759.5","2","img/117/5.5/2/bw/001.png","","","complex"
"","","","","","animation","60","1379892","0.0-60.0","1920x1080","","6965.79999999702","15","img/117/4.5/2/bw/001.png","","","complex"
"","","","","","animation","61","1386644","0.0-61.0","1920x1080","","6750.79999999702","76","img/238/3.5/0.5/bw/001.png","","","complex"
"","","","","","animation","62","1409132","0.0-62.0","1920x1080","","22487.70000000298","20","img/314/5.5/1.5/bw/001.png","","","complex"
"","","","","","animation","63","1415682","0.0-63.0","1920x1080","","6550","48.15","img/117/4/1.5/bw/001.png","","","complex"
"","","","","","animation","64","1422356","0.0-64.0","1920x1080","","6672.20000000298","40.34","img/314/5.5/0.66667/bw/001.png","","","complex"
"","","","","","animation","65","1428346","0.0-65.0","1920x1080","","5990.0999999940395","99","img/238/2.5/0.5/bw/001.png","","","complex"
"","","","","","animation","66","1436842","0.0-66.0","1920x1080","","8494.70000000298","65","img/238/4/1.5/bw/001.png","","","complex"
"","","","","","animation","67","1448274","0.0-67.0","1920x1080","","11430.29999999702","98","img/314/2.5/0.5/bw/001.png","","","complex"
"","","","","","animation","68","1456275","0.0-68.0","1920x1080","","7999.5999999940395","2","img/238/5.5/2/bw/001.png","","","complex"
"","","","","","animation","69","1467805","0.0-69.0","1920x1080","","11528.90000000596","55.16","img/314/3.5/0.66667/bw/001.png","","","complex"
"","","","","","animation","70","1484838","0.0-70.0","1920x1080","","17028.20000000298","58","img/238/4/0.5/bw/001.png","","","complex"
"","","","","","animation","71","1492750","0.0-71.0","1920x1080","","7907.399999991059","41.53","img/238/4.5/2/bw/001.png","","","complex"
"","","","","","animation","72","1500902","0.0-72.0","1920x1080","","8151.20000000298","78","img/117/3.5/0.66667/bw/001.png","","","complex"
"","","","","","animation","73","1511430","0.0-73.0","1920x1080","","10526.79999999702","88","img/314/2.5/1.5/bw/001.png","","","complex"
"","","","","","animation","74","1520238","0.0-74.0","1920x1080","","8807.39999999106","60","img/314/4/0.5/bw/001.png","","","complex"
"","","","","","animation","75","1526166","0.0-75.0","1920x1080","","5926.899999991059","30","img/117/5.5/0.66667/bw/001.png","","","complex"
"","","","","","animation","76","1535300","0.0-76.0","1920x1080","","9135.300000011921","40","img/117/4/0.5/bw/001.png","","","complex"
"","","","","","animation","77","1542596","0.0-77.0","1920x1080","","7295","94","img/238/2.5/0.66667/bw/001.png","","","complex"
"","","","","","animation","78","1553132","0.0-78.0","1920x1080","","10534.5","38","img/238/4.5/1.5/bw/001.png","","","complex"
"","","","","","animation","79","1558292","0.0-79.0","1920x1080","","5158.5999999940395","48","img/117/4/1/bw/001.png","","","complex"
"","","","","","animation","80","1565197","0.0-80.0","1920x1080","","6903.9000000059605","48","img/117/4.5/1/bw/001.png","","","complex"
"","","","","","animation","81","1576668","0.0-81.0","1920x1080","","11469.79999999702","57.80","img/238/3.5/0.66667/bw/001.png","","","complex"
"","","","","","html-button-response","82","1596195","0.0-82.0","1920x1080","","19520.29999999702","","<div class=""intro"">You are about to view a new series of animations.<br><br></div><div class=""intro"">You will evaluate them based on a different descriptor.<br><br></div><div class=""intro"">Move the slider to indicate how <strong style=""text-transform:capitalize"">RELAXING</strong> you find each animation.<br><br></div><div class=""intro"">0 = Least Relaxing<br></div><div class=""intro"">1 = Most Relaxing<br><br></div><div class=""intro"">Remember to use the <strong><em>entire range</em></strong> of the slider to make your ratings.<br></div><div class=""intro"">Please <strong><em>take your time</em></strong> and carefully consider each rating you make.<br><br></div>","0","",""
"","","","","","call-function","83","1596196","0.0-83.0","1920x1080","","","","","","",""
"","","","","","animation","84","1603920","0.0-84.0","1920x1080","","7723.399999991059","1","img/238/2.5/1.5/bw/001.png","","","relaxing"
"","","","","","animation","85","1615984","0.0-85.0","1920x1080","","12063","30","img/117/4/1/bw/001.png","","","relaxing"
"","","","","","animation","86","1620688","0.0-86.0","1920x1080","","4703.20000000298","1","img/117/2.5/0.5/bw/001.png","","","relaxing"
"","","","","","animation","87","1636832","0.0-87.0","1920x1080","","16143","78","img/117/5.5/0.66667/bw/001.png","","","relaxing"
"","","","","","animation","88","1642561","0.0-88.0","1920x1080","","5728.70000000298","3","img/314/2.5/1/bw/001.png","","","relaxing"
"","","","","","animation","89","1665996","0.0-89.0","1920x1080","","23437","60","img/314/5.5/0.66667/bw/001.png","","","relaxing"
"","","","","","animation","90","1671084","0.0-90.0","1920x1080","","5087.20000000298","30","img/117/3.5/0.66667/bw/001.png","","","relaxing"
"","","","","","animation","91","1679980","0.0-91.0","1920x1080","","8895.09999999404","85","img/238/5.5/0.66667/bw/001.png","","","relaxing"
"","","","","","animation","92","1685974","0.0-92.0","1920x1080","","5993.0999999940395","5","img/117/2.5/0.66667/bw/001.png","","","relaxing"
"","","","","","animation","93","1699092","0.0-93.0","1920x1080","","13116.29999999702","57.54","img/117/3.5/2/bw/001.png","","","relaxing"
"","","","","","animation","94","1706223","0.0-94.0","1920x1080","","7130.20000000298","60","img/117/4.5/1.5/bw/001.png","","","relaxing"
"","","","","","animation","95","1720812","0.0-95.0","1920x1080","","14588.59999999404","65","img/238/4.5/1.5/bw/001.png","","","relaxing"
"","","","","","animation","96","1726740","0.0-96.0","1920x1080","","5927.5999999940395","36","img/314/4/0.66667/bw/001.png","","","relaxing"
"","","","","","animation","97","1742605","0.0-97.0","1920x1080","","15864.10000000894","96","img/238/5.5/1/bw/001.png","","","relaxing"
"","","","","","animation","98","1757380","0.0-98.0","1920x1080","","14773.59999999404","7.54","img/117/2.5/1/bw/001.png","","","relaxing"
"","","","","","animation","99","1762223","0.0-99.0","1920x1080","","4842.5","40","img/238/4/1/bw/001.png","","","relaxing"
"","","","","","animation","100","1770331","0.0-100.0","1920x1080","","8107.5","84","img/314/5.5/1.5/bw/001.png","","","relaxing"
"","","","","","animation","101","1775155","0.0-101.0","1920x1080","","4822.5999999940395","18","img/117/2.5/2/bw/001.png","","","relaxing"
"","","","","","animation","102","1780547","0.0-102.0","1920x1080","","5391.5","11","img/238/4/0.5/bw/001.png","","","relaxing"
"","","","","","animation","103","1785123","0.0-103.0","1920x1080","","4574.899999991059","3","img/314/2.5/2/bw/001.png","","","relaxing"
"","","","","","animation","104","1791856","0.0-104.0","1920x1080","","6731.20000000298","5.95","img/238/3.5/0.5/bw/001.png","","","relaxing"
"","","","","","animation","105","1799467","0.0-105.0","1920x1080","","7610.29999999702","91","img/314/5.5/1/bw/001.png","","","relaxing"
"","","","","","animation","106","1807107","0.0-106.0","1920x1080","","7638.5999999940395","82","img/117/4.5/2/bw/001.png","","","relaxing"
"","","","","","animation","107","1813195","0.0-107.0","1920x1080","","6087.5","51.85","img/238/4/2/bw/001.png","","","relaxing"
"","","","","","animation","108","1827021","0.0-108.0","1920x1080","","13825.40000000596","26","img/238/3.5/0.66667/bw/001.png","","","relaxing"
"","","","","","animation","109","1830825","0.0-109.0","1920x1080","","3804.199999988079","35","img/238/4/1.5/bw/001.png","","","relaxing"
"","","","","","animation","110","1837745","0.0-110.0","1920x1080","","6919","97","img/238/5.5/2/bw/001.png","","","relaxing"
"","","","","","animation","111","1843689","0.0-111.0","1920x1080","","5942.70000000298","19.18","img/314/4/0.5/bw/001.png","","","relaxing"
"","","","","","animation","112","1847505","0.0-112.0","1920x1080","","3814.800000011921","31","img/117/3.5/1.5/bw/001.png","","","relaxing"
"","","","","","animation","113","1851987","0.0-113.0","1920x1080","","4480.800000011921","32","img/117/4/2/bw/001.png","","","relaxing"
"","","","","","animation","114","1862220","0.0-114.0","1920x1080","","10232.29999999702","87","img/117/5.5/1.5/bw/001.png","","","relaxing"
"","","","","","animation","115","1869673","0.0-115.0","1920x1080","","7451","15","img/117/3.5/0.5/bw/001.png","","","relaxing"
"","","","","","animation","116","1875977","0.0-116.0","1920x1080","","6303.29999999702","38","img/238/3.5/2/bw/001.png","","","relaxing"
"","","","","","animation","117","1879604","0.0-117.0","1920x1080","","3625.800000011921","41","img/314/4/2/bw/001.png","","","relaxing"
"","","","","","animation","118","1883689","0.0-118.0","1920x1080","","4083.8999999910593","12","img/314/2.5/1.5/bw/001.png","","","relaxing"
"","","","","","animation","119","1890748","0.0-119.0","1920x1080","","7055.5999999940395","22.88","img/117/4/0.5/bw/001.png","","","relaxing"
"","","","","","animation","120","1893644","0.0-120.0","1920x1080","","2895.1000000089407","25.40","img/314/3.5/1/bw/001.png","","","relaxing"
"","","","","","animation","121","1896973","0.0-121.0","1920x1080","","3327.7000000029802","26.32","img/238/3.5/1/bw/001.png","","","relaxing"
"","","","","","animation","122","1901156","0.0-122.0","1920x1080","","4182","58.20","img/238/4.5/2/bw/001.png","","","relaxing"
"","","","","","animation","123","1910092","0.0-123.0","1920x1080","","8934.90000000596","33","img/238/4/0.66667/bw/001.png","","","relaxing"
"","","","","","animation","124","1913957","0.0-124.0","1920x1080","","3864.1000000089407","38.10","img/117/4.5/1/bw/001.png","","","relaxing"
"","","","","","animation","125","1918676","0.0-125.0","1920x1080","","4718.20000000298","52","img/117/5.5/0.5/bw/001.png","","","relaxing"
"","","","","","animation","126","1924540","0.0-126.0","1920x1080","","5862.899999991059","32","img/117/4.5/0.5/bw/001.png","","","relaxing"
"","","","","","animation","127","1927829","0.0-127.0","1920x1080","","3288.3999999910593","22","img/314/3.5/0.5/bw/001.png","","","relaxing"
"","","","","","animation","128","1934740","0.0-128.0","1920x1080","","6909.100000008941","96","img/314/5.5/2/bw/001.png","","","relaxing"
"","","","","","animation","129","1940856","0.0-129.0","1920x1080","","6115.20000000298","12","img/238/2.5/0.66667/bw/001.png","","","relaxing"
"","","","","","animation","130","1947856","0.0-130.0","1920x1080","","6999.4000000059605","26","img/117/4/0.66667/bw/001.png","","","relaxing"
"","","","","","animation","131","1962443","0.0-131.0","1920x1080","","14587.09999999404","98","img/238/5.5/1.5/bw/001.png","","","relaxing"
"","","","","","animation","132","1965980","0.0-132.0","1920x1080","","3534.8999999910593","34","img/314/3.5/2/bw/001.png","","","relaxing"
"","","","","","animation","133","1971564","0.0-133.0","1920x1080","","5583.20000000298","74","img/117/5.5/1/bw/001.png","","","relaxing"
"","","","","","animation","134","1977932","0.0-134.0","1920x1080","","6366.9000000059605","17","img/314/3.5/0.66667/bw/001.png","","","relaxing"
"","","","","","animation","135","1983396","0.0-135.0","1920x1080","","5463.100000008941","8.20","img/238/2.5/1/bw/001.png","","","relaxing"
"","","","","","animation","136","1988860","0.0-136.0","1920x1080","","5463.0999999940395","23","img/117/4.5/0.66667/bw/001.png","","","relaxing"
"","","","","","animation","137","1993271","0.0-137.0","1920x1080","","4410.5","26","img/314/4.5/0.5/bw/001.png","","","relaxing"
"","","","","","animation","138","1997107","0.0-138.0","1920x1080","","3834.9000000059605","12","img/314/4/1/bw/001.png","","","relaxing"
"","","","","","animation","139","2004523","0.0-139.0","1920x1080","","7415.20000000298","28","img/117/3.5/1/bw/001.png","","","relaxing"
"","","","","","animation","140","2013392","0.0-140.0","1920x1080","","8871.60000000894","29.37","img/238/4.5/0.5/bw/001.png","","","relaxing"
"","","","","","animation","141","2018001","0.0-141.0","1920x1080","","4607.899999991059","40.34","img/238/3.5/1.5/bw/001.png","","","relaxing"
"","","","","","animation","142","2022728","0.0-142.0","1920x1080","","4726.20000000298","52","img/314/4.5/2/bw/001.png","","","relaxing"
"","","","","","animation","143","2027640","0.0-143.0","1920x1080","","4911","42","img/314/3.5/1.5/bw/001.png","","","relaxing"
"","","","","","animation","144","2030952","0.0-144.0","1920x1080","","3310.7000000029802","0","img/314/2.5/0.5/bw/001.png","","","relaxing"
"","","","","","animation","145","2036187","0.0-145.0","1920x1080","","5233.699999988079","4","img/238/2.5/0.5/bw/001.png","","","relaxing"
"","","","","","animation","146","2046792","0.0-146.0","1920x1080","","10604.79999999702","51","img/314/5.5/0.5/bw/001.png","","","relaxing"
"","","","","","animation","147","2051256","0.0-147.0","1920x1080","","4462.699999988079","93","img/117/5.5/2/bw/001.png","","","relaxing"
"","","","","","animation","148","2054392","0.0-148.0","1920x1080","","3134.9000000059605","7","img/314/2.5/0.66667/bw/001.png","","","relaxing"
"","","","","","animation","149","2060336","0.0-149.0","1920x1080","","5942.29999999702","48","img/314/4.5/1.5/bw/001.png","","","relaxing"
"","","","","","animation","150","2064785","0.0-150.0","1920x1080","","4447.4000000059605","39","img/238/5.5/0.5/bw/001.png","","","relaxing"
"","","","","","animation","151","2069853","0.0-151.0","1920x1080","","5067.70000000298","12","img/117/2.5/1.5/bw/001.png","","","relaxing"
"","","","","","animation","152","2075876","0.0-152.0","1920x1080","","6017.9000000059605","35","img/314/4/1.5/bw/001.png","","","relaxing"
"","","","","","animation","153","2078508","0.0-153.0","1920x1080","","2630.699999988079","26","img/238/4.5/0.66667/bw/001.png","","","relaxing"
"","","","","","animation","154","2086989","0.0-154.0","1920x1080","","8479.40000000596","44.58","img/117/4/1.5/bw/001.png","","","relaxing"
"","","","","","animation","155","2092022","0.0-155.0","1920x1080","","5032.4000000059605","16","img/238/2.5/2/bw/001.png","","","relaxing"
"","","","","","animation","156","2097812","0.0-156.0","1920x1080","","5789.70000000298","40.34","img/238/4.5/1/bw/001.png","","","relaxing"
"","","","","","animation","157","2101839","0.0-157.0","1920x1080","","4026","37","img/314/4.5/0.66667/bw/001.png","","","relaxing"
"","","","","","animation","158","2106332","0.0-158.0","1920x1080","","4492.0999999940395","32","img/314/4.5/1/bw/001.png","","","relaxing"
"","","","","","html-button-response","159","2124905","0.0-159.0","1920x1080","","18571.10000000894","","<div class=""intro"">You are about to view a new series of animations.<br><br></div><div class=""intro"">You will evaluate them based on a different descriptor.<br><br></div><div class=""intro"">Move the slider to indicate how <strong style=""text-transform:capitalize"">INTERESTING</strong> you find each animation.<br><br></div><div class=""intro"">0 = Least Interesting<br></div><div class=""intro"">1 = Most Interesting<br><br></div><div class=""intro"">Remember to use the <strong><em>entire range</em></strong> of the slider to make your ratings.<br></div><div class=""intro"">Please <strong><em>take your time</em></strong> and carefully consider each rating you make.<br><br></div>","0","",""
"","","","","","call-function","160","2124905","0.0-160.0","1920x1080","","","","","","",""
"","","","","","animation","161","2129472","0.0-161.0","1920x1080","","4565.79999999702","61","img/117/4/2/bw/001.png","","","interesting"
"","","","","","animation","162","2132387","0.0-162.0","1920x1080","","2916.0999999940395","7","img/314/2.5/1/bw/001.png","","","interesting"
"","","","","","animation","163","2136043","0.0-163.0","1920x1080","","3655","94","img/238/5.5/1/bw/001.png","","","interesting"
"","","","","","animation","164","2143371","0.0-164.0","1920x1080","","7326.399999991059","35.19","img/238/4/0.5/bw/001.png","","","interesting"
"","","","","","animation","165","2146532","0.0-165.0","1920x1080","","3159.7000000029802","25","img/314/4/0.5/bw/001.png","","","interesting"
"","","","","","animation","166","2150222","0.0-166.0","1920x1080","","3689.4000000059605","18","img/117/3.5/0.5/bw/001.png","","","interesting"
"","","","","","animation","167","2154204","0.0-167.0","1920x1080","","3981.0999999940395","2","img/238/2.5/0.66667/bw/001.png","","","interesting"
"","","","","","animation","168","2157643","0.0-168.0","1920x1080","","3438.7999999970198","24","img/238/3.5/0.66667/bw/001.png","","","interesting"
"","","","","","animation","169","2161011","0.0-169.0","1920x1080","","3367.0999999940395","48","img/117/4.5/1/bw/001.png","","","interesting"
"","","","","","animation","170","2164659","0.0-170.0","1920x1080","","3647.0999999940395","37","img/314/3.5/1/bw/001.png","","","interesting"
"","","","","","animation","171","2170523","0.0-171.0","1920x1080","","5862.79999999702","41.14","img/117/4.5/0.5/bw/001.png","","","interesting"
"","","","","","animation","172","2174622","0.0-172.0","1920x1080","","4096.899999991059","48","img/314/4.5/0.5/bw/001.png","","","interesting"
"","","","","","animation","173","2185196","0.0-173.0","1920x1080","","10572.59999999404","87.57","img/314/5.5/2/bw/001.png","","","interesting"
"","","","","","animation","174","2190085","0.0-174.0","1920x1080","","4890.800000011921","93","img/314/5.5/1.5/bw/001.png","","","interesting"
"","","","","","animation","175","2195502","0.0-175.0","1920x1080","","5415.600000008941","28","img/117/3.5/0.66667/bw/001.png","","","interesting"
"","","","","","animation","176","2199490","0.0-176.0","1920x1080","","3987.5","41","img/314/4/2/bw/001.png","","","interesting"
"","","","","","animation","177","2208505","0.0-177.0","1920x1080","","9012.59999999404","32","img/238/4/0.66667/bw/001.png","","","interesting"
"","","","","","animation","178","2214520","0.0-178.0","1920x1080","","6013.70000000298","28","img/238/3.5/1/bw/001.png","","","interesting"
"","","","","","animation","179","2226641","0.0-179.0","1920x1080","","12119.29999999702","88","img/238/5.5/2/bw/001.png","","","interesting"
"","","","","","animation","180","2231593","0.0-180.0","1920x1080","","4949.29999999702","56","img/238/3.5/2/bw/001.png","","","interesting"
"","","","","","animation","181","2235825","0.0-181.0","1920x1080","","4231.100000008941","11","img/117/2.5/1/bw/001.png","","","interesting"
"","","","","","animation","182","2240318","0.0-182.0","1920x1080","","4491.9000000059605","58","img/238/4.5/1.5/bw/001.png","","","interesting"
"","","","","","animation","183","2243702","0.0-183.0","1920x1080","","3382.800000011921","44.31","img/117/4.5/0.66667/bw/001.png","","","interesting"
"","","","","","animation","184","2248104","0.0-184.0","1920x1080","","4402","62","img/117/5.5/1/bw/001.png","","","interesting"
"","","","","","animation","185","2254506","0.0-185.0","1920x1080","","6399.29999999702","67","img/314/5.5/0.5/bw/001.png","","","interesting"
"","","","","","animation","186","2258654","0.0-186.0","1920x1080","","4146.300000011921","49","img/117/4/1.5/bw/001.png","","","interesting"
"","","","","","animation","187","2262338","0.0-187.0","1920x1080","","3683.4000000059605","18","img/238/2.5/1.5/bw/001.png","","","interesting"
"","","","","","animation","188","2267362","0.0-188.0","1920x1080","","5023.399999991059","61","img/314/5.5/0.66667/bw/001.png","","","interesting"
"","","","","","animation","189","2274994","0.0-189.0","1920x1080","","7630.9000000059605","46.16","img/238/4/1.5/bw/001.png","","","interesting"
"","","","","","animation","190","2279154","0.0-190.0","1920x1080","","4158.70000000298","39","img/238/3.5/1.5/bw/001.png","","","interesting"
"","","","","","animation","191","2283978","0.0-191.0","1920x1080","","4823.5999999940395","31","img/314/3.5/0.5/bw/001.png","","","interesting"
"","","","","","animation","192","2290138","0.0-192.0","1920x1080","","6158.4000000059605","17","img/117/2.5/0.5/bw/001.png","","","interesting"
"","","","","","animation","193","2296414","0.0-193.0","1920x1080","","6274.4000000059605","57","img/117/3.5/2/bw/001.png","","","interesting"
"","","","","","animation","194","2304286","0.0-194.0","1920x1080","","7871","36","img/117/4/0.5/bw/001.png","","","interesting"
"","","","","","animation","195","2314297","0.0-195.0","1920x1080","","10003","84","img/238/5.5/0.66667/bw/001.png","","","interesting"
"","","","","","animation","196","2319681","0.0-196.0","1920x1080","","5382.70000000298","71","img/314/3.5/2/bw/001.png","","","interesting"
"","","","","","animation","197","2324660","0.0-197.0","1920x1080","","4977.29999999702","67","img/314/3.5/1.5/bw/001.png","","","interesting"
"","","","","","animation","198","2328985","0.0-198.0","1920x1080","","4324.70000000298","37","img/314/3.5/0.66667/bw/001.png","","","interesting"
"","","","","","animation","199","2334427","0.0-199.0","1920x1080","","5440.199999988079","3","img/238/2.5/0.5/bw/001.png","","","interesting"
"","","","","","animation","200","2339059","0.0-200.0","1920x1080","","4631.199999988079","85","img/117/5.5/1.5/bw/001.png","","","interesting"
"","","","","","animation","201","2342729","0.0-201.0","1920x1080","","3668.7000000029802","64","img/238/4.5/1/bw/001.png","","","interesting"
"","","","","","animation","202","2345969","0.0-202.0","1920x1080","","3239.1000000089407","41.53","img/238/3.5/0.5/bw/001.png","","","interesting"
"","","","","","animation","203","2352310","0.0-203.0","1920x1080","","6339.20000000298","45.50","img/314/4/0.66667/bw/001.png","","","interesting"
"","","","","","animation","204","2356960","0.0-204.0","1920x1080","","4649","43.12","img/314/4.5/1/bw/001.png","","","interesting"
"","","","","","animation","205","2360497","0.0-205.0","1920x1080","","3536.5999999940395","5","img/314/2.5/0.5/bw/001.png","","","interesting"
"","","","","","animation","206","2367360","0.0-206.0","1920x1080","","6861.5","15","img/314/2.5/2/bw/001.png","","","interesting"
"","","","","","animation","207","2373352","0.0-207.0","1920x1080","","5998.300000011921","61","img/314/4.5/1.5/bw/001.png","","","interesting"
"","","","","","animation","208","2378402","0.0-208.0","1920x1080","","5049.5","45.11","img/238/4.5/0.66667/bw/001.png","","","interesting"
"","","","","","animation","209","2384812","0.0-209.0","1920x1080","","6408.0999999940395","52","img/117/4.5/1.5/bw/001.png","","","interesting"
"","","","","","animation","210","2390506","0.0-210.0","1920x1080","","5692.399999991059","12","img/117/2.5/1.5/bw/001.png","","","interesting"
"","","","","","animation","211","2400136","0.0-211.0","1920x1080","","9629.300000011921","64","img/117/5.5/0.66667/bw/001.png","","","interesting"
"","","","","","animation","212","2414410","0.0-212.0","1920x1080","","14272.70000000298","58","img/117/5.5/0.5/bw/001.png","","","interesting"
"","","","","","animation","213","2419410","0.0-213.0","1920x1080","","4998.800000011921","61","img/117/4.5/2/bw/001.png","","","interesting"
"","","","","","animation","214","2423154","0.0-214.0","1920x1080","","3742.5","74","img/238/5.5/0.5/bw/001.png","","","interesting"
"","","","","","animation","215","2426074","0.0-215.0","1920x1080","","2919.2000000029802","9","img/117/2.5/0.66667/bw/001.png","","","interesting"
"","","","","","animation","216","2431675","0.0-216.0","1920x1080","","5593.5999999940395","70","img/314/4.5/2/bw/001.png","","","interesting"
"","","","","","animation","217","2437112","0.0-217.0","1920x1080","","5435.9000000059605","6","img/314/2.5/0.66667/bw/001.png","","","interesting"
"","","","","","animation","218","2449891","0.0-218.0","1920x1080","","12778.20000000298","48","img/314/4.5/0.66667/bw/001.png","","","interesting"
"","","","","","animation","219","2452712","0.0-219.0","1920x1080","","2819.5999999940395","45.37","img/238/4/1/bw/001.png","","","interesting"
"","","","","","animation","220","2456958","0.0-220.0","1920x1080","","4245","52","img/314/4/1.5/bw/001.png","","","interesting"
"","","","","","animation","221","2460775","0.0-221.0","1920x1080","","3815.5","42.20","img/117/4/1/bw/001.png","","","interesting"
"","","","","","animation","222","2464016","0.0-222.0","1920x1080","","3240.4000000059605","11","img/238/2.5/1/bw/001.png","","","interesting"
"","","","","","animation","223","2469292","0.0-223.0","1920x1080","","5274.899999991059","40.34","img/238/4/2/bw/001.png","","","interesting"
"","","","","","animation","224","2471891","0.0-224.0","1920x1080","","2597.5","18","img/314/2.5/1.5/bw/001.png","","","interesting"
"","","","","","animation","225","2476150","0.0-225.0","1920x1080","","4258.5","27","img/117/4/0.66667/bw/001.png","","","interesting"
"","","","","","animation","226","2480099","0.0-226.0","1920x1080","","3946.5","22","img/314/4/1/bw/001.png","","","interesting"
"","","","","","animation","227","2488384","0.0-227.0","1920x1080","","8279.29999999702","96","img/117/5.5/2/bw/001.png","","","interesting"
"","","","","","animation","228","2492874","0.0-228.0","1920x1080","","4492.29999999702","87","img/314/5.5/1/bw/001.png","","","interesting"
"","","","","","animation","229","2498607","0.0-229.0","1920x1080","","5731.79999999702","97","img/238/5.5/1.5/bw/001.png","","","interesting"
"","","","","","animation","230","2502568","0.0-230.0","1920x1080","","3959.9000000059605","30","img/117/3.5/1/bw/001.png","","","interesting"
"","","","","","animation","231","2505553","0.0-231.0","1920x1080","","2984.0999999940395","25","img/238/4.5/0.5/bw/001.png","","","interesting"
"","","","","","animation","232","2508968","0.0-232.0","1920x1080","","3413.5999999940395","22","img/117/3.5/1.5/bw/001.png","","","interesting"
"","","","","","animation","233","2512121","0.0-233.0","1920x1080","","3151.7999999970198","13","img/117/2.5/2/bw/001.png","","","interesting"
"","","","","","animation","234","2516202","0.0-234.0","1920x1080","","4079.3999999910593","54","img/238/4.5/2/bw/001.png","","","interesting"
"","","","","","animation","235","2519921","0.0-235.0","1920x1080","","3718.2000000029802","11","img/238/2.5/2/bw/001.png","","","interesting"
"","","","","","html-button-response","236","2541210","0.0-236.0","1920x1080","","21287.20000000298","","<div class=""intro"">You are about to view a new series of animations.<br><br></div><div class=""intro"">You will evaluate them based on a different descriptor.<br><br></div><div class=""intro"">Move the slider to indicate how <strong style=""text-transform:capitalize"">NATURAL</strong> you find each animation.<br><br></div><div class=""intro"">0 = Least Natural<br></div><div class=""intro"">1 = Most Natural<br><br></div><div class=""intro"">Remember to use the <strong><em>entire range</em></strong> of the slider to make your ratings.<br></div><div class=""intro"">Please <strong><em>take your time</em></strong> and carefully consider each rating you make.<br><br></div>","0","",""
"","","","","","call-function","237","2541212","0.0-237.0","1920x1080","","","","","","",""
"","","","","","animation","238","2556441","0.0-238.0","1920x1080","","15229.40000000596","58","img/238/4.5/1.5/bw/001.png","","","natural"
"","","","","","animation","239","2561825","0.0-239.0","1920x1080","","5382.79999999702","70","img/238/5.5/0.5/bw/001.png","","","natural"
"","","","","","animation","240","2564969","0.0-240.0","1920x1080","","3142.5","49","img/238/3.5/0.66667/bw/001.png","","","natural"
"","","","","","animation","241","2567534","0.0-241.0","1920x1080","","2563.7000000029802","57","img/314/4.5/1/bw/001.png","","","natural"
"","","","","","animation","242","2575321","0.0-242.0","1920x1080","","7785.5","90","img/238/5.5/2/bw/001.png","","","natural"
"","","","","","animation","243","2581441","0.0-243.0","1920x1080","","6119","4","img/117/2.5/1/bw/001.png","","","natural"
"","","","","","animation","244","2587516","0.0-244.0","1920x1080","","6072.9000000059605","43.39","img/117/4.5/2/bw/001.png","","","natural"
"","","","","","animation","245","2591884","0.0-245.0","1920x1080","","4367.399999991059","31","img/314/4/0.5/bw/001.png","","","natural"
"","","","","","animation","246","2595625","0.0-246.0","1920x1080","","3739.9000000059605","18","img/117/2.5/0.5/bw/001.png","","","natural"
"","","","","","animation","247","2600473","0.0-247.0","1920x1080","","4847.100000008941","21","img/117/4/1.5/bw/001.png","","","natural"
"","","","","","animation","248","2606252","0.0-248.0","1920x1080","","5776.9000000059605","79","img/238/5.5/0.66667/bw/001.png","","","natural"
"","","","","","animation","249","2611717","0.0-249.0","1920x1080","","5464.100000008941","38","img/117/3.5/1.5/bw/001.png","","","natural"
"","","","","","animation","250","2619817","0.0-250.0","1920x1080","","8099","44","img/238/4.5/1/bw/001.png","","","natural"
"","","","","","animation","251","2623801","0.0-251.0","1920x1080","","3982.7000000029802","56","img/314/5.5/0.5/bw/001.png","","","natural"
"","","","","","animation","252","2628700","0.0-252.0","1920x1080","","4898.399999991059","45.50","img/117/4.5/1.5/bw/001.png","","","natural"
"","","","","","animation","253","2637641","0.0-253.0","1920x1080","","8939.20000000298","6","img/314/2.5/0.5/bw/001.png","","","natural"
"","","","","","animation","254","2641350","0.0-254.0","1920x1080","","3708.7999999970198","75","img/314/5.5/0.66667/bw/001.png","","","natural"
"","","","","","animation","255","2646383","0.0-255.0","1920x1080","","5031.79999999702","39","img/314/4/0.66667/bw/001.png","","","natural"
"","","","","","animation","256","2655217","0.0-256.0","1920x1080","","8832.59999999404","14","img/117/2.5/2/bw/001.png","","","natural"
"","","","","","animation","257","2663600","0.0-257.0","1920x1080","","8379.20000000298","75","img/238/5.5/1/bw/001.png","","","natural"
"","","","","","animation","258","2670573","0.0-258.0","1920x1080","","6965.5999999940395","39","img/238/4/1/bw/001.png","","","natural"
"","","","","","animation","259","2678511","0.0-259.0","1920x1080","","7936.5","21","img/238/2.5/2/bw/001.png","","","natural"
"","","","","","animation","260","2688991","0.0-260.0","1920x1080","","10478.300000011921","82","img/117/5.5/2/bw/001.png","","","natural"
"","","","","","animation","261","2694015","0.0-261.0","1920x1080","","5022.100000008941","14","img/117/2.5/1.5/bw/001.png","","","natural"
"","","","","","animation","262","2700140","0.0-262.0","1920x1080","","6123.699999988079","42","img/117/4/1/bw/001.png","","","natural"
"","","","","","animation","263","2703111","0.0-263.0","1920x1080","","2969.4000000059605","34","img/117/3.5/1/bw/001.png","","","natural"
"","","","","","animation","264","2707657","0.0-264.0","1920x1080","","4544.70000000298","23","img/314/4.5/0.5/bw/001.png","","","natural"
"","","","","","animation","265","2713791","0.0-265.0","1920x1080","","6133.20000000298","61","img/314/4.5/2/bw/001.png","","","natural"
"","","","","","animation","266","2718690","0.0-266.0","1920x1080","","4898.100000008941","35","img/314/3.5/0.5/bw/001.png","","","natural"
"","","","","","animation","267","2722457","0.0-267.0","1920x1080","","3764.7999999970198","45.90","img/238/3.5/1.5/bw/001.png","","","natural"
"","","","","","animation","268","2734267","0.0-268.0","1920x1080","","11815","52","img/117/4.5/0.5/bw/001.png","","","natural"
"","","","","","animation","269","2737985","0.0-269.0","1920x1080","","3717.4000000059605","57","img/314/4/1/bw/001.png","","","natural"
"","","","","","animation","270","2742383","0.0-270.0","1920x1080","","4397.4000000059605","46.30","img/117/4.5/0.66667/bw/001.png","","","natural"
"","","","","","animation","271","2746952","0.0-271.0","1920x1080","","4568","88","img/314/5.5/1/bw/001.png","","","natural"
"","","","","","animation","272","2755257","0.0-272.0","1920x1080","","8303.29999999702","20","img/238/2.5/1.5/bw/001.png","","","natural"
"","","","","","animation","273","2762273","0.0-273.0","1920x1080","","7014.5","38","img/117/3.5/2/bw/001.png","","","natural"
"","","","","","animation","274","2767168","0.0-274.0","1920x1080","","4894.20000000298","11","img/238/2.5/0.66667/bw/001.png","","","natural"
"","","","","","animation","275","2771833","0.0-275.0","1920x1080","","4664.0999999940395","22","img/314/4.5/0.66667/bw/001.png","","","natural"
"","","","","","animation","276","2776768","0.0-276.0","1920x1080","","4933.699999988079","14","img/314/2.5/1/bw/001.png","","","natural"
"","","","","","animation","277","2781873","0.0-277.0","1920x1080","","5102.9000000059605","29","img/314/4/2/bw/001.png","","","natural"
"","","","","","animation","278","2787284","0.0-278.0","1920x1080","","5409.20000000298","23","img/314/3.5/2/bw/001.png","","","natural"
"","","","","","animation","279","2796635","0.0-279.0","1920x1080","","9348.5","53","img/238/4.5/2/bw/001.png","","","natural"
"","","","","","animation","280","2801203","0.0-280.0","1920x1080","","4566.300000011921","41","img/314/3.5/1/bw/001.png","","","natural"
"","","","","","animation","281","2805502","0.0-281.0","1920x1080","","4298","79","img/117/5.5/1.5/bw/001.png","","","natural"
"","","","","","animation","282","2809841","0.0-282.0","1920x1080","","4337.70000000298","3","img/314/2.5/0.66667/bw/001.png","","","natural"
"","","","","","animation","283","2815907","0.0-283.0","1920x1080","","6064","18","img/117/4/0.66667/bw/001.png","","","natural"
"","","","","","animation","284","2820786","0.0-284.0","1920x1080","","4878.199999988079","22","img/314/3.5/1.5/bw/001.png","","","natural"
"","","","","","animation","285","2824602","0.0-285.0","1920x1080","","3814.3999999910593","33","img/238/4.5/0.5/bw/001.png","","","natural"
"","","","","","animation","286","2829002","0.0-286.0","1920x1080","","4398.79999999702","75","img/117/5.5/1/bw/001.png","","","natural"
"","","","","","animation","287","2834043","0.0-287.0","1920x1080","","5039.399999991059","9","img/238/2.5/1/bw/001.png","","","natural"
"","","","","","animation","288","2838052","0.0-288.0","1920x1080","","4007.7999999970198","84","img/238/5.5/1.5/bw/001.png","","","natural"
"","","","","","animation","289","2847852","0.0-289.0","1920x1080","","9798.60000000894","6","img/314/2.5/2/bw/001.png","","","natural"
"","","","","","animation","290","2853268","0.0-290.0","1920x1080","","5415.5999999940395","37","img/117/3.5/0.66667/bw/001.png","","","natural"
"","","","","","animation","291","2856370","0.0-291.0","1920x1080","","3100.2999999970198","43.52","img/238/4/1.5/bw/001.png","","","natural"
"","","","","","animation","292","2860952","0.0-292.0","1920x1080","","4580.899999991059","33","img/238/4.5/0.66667/bw/001.png","","","natural"
"","","","","","animation","293","2865018","0.0-293.0","1920x1080","","4064.5","9","img/117/2.5/0.66667/bw/001.png","","","natural"
"","","","","","animation","294","2868418","0.0-294.0","1920x1080","","3399.1000000089407","54","img/314/4/1.5/bw/001.png","","","natural"
"","","","","","animation","295","2874634","0.0-295.0","1920x1080","","6215.29999999702","42","img/117/4.5/1/bw/001.png","","","natural"
"","","","","","animation","296","2880754","0.0-296.0","1920x1080","","6117.899999991059","31.61","img/238/3.5/1/bw/001.png","","","natural"
"","","","","","animation","297","2884451","0.0-297.0","1920x1080","","3695.9000000059605","25","img/238/3.5/0.5/bw/001.png","","","natural"
"","","","","","animation","298","2890651","0.0-298.0","1920x1080","","6198.9000000059605","36","img/238/3.5/2/bw/001.png","","","natural"
"","","","","","animation","299","2897001","0.0-299.0","1920x1080","","6349","26","img/238/4/0.66667/bw/001.png","","","natural"
"","","","","","animation","300","2900268","0.0-300.0","1920x1080","","3265.5","16","img/117/4/0.5/bw/001.png","","","natural"
"","","","","","animation","301","2908354","0.0-301.0","1920x1080","","8084.5999999940395","93","img/314/5.5/2/bw/001.png","","","natural"
"","","","","","animation","302","2916101","0.0-302.0","1920x1080","","7745.70000000298","72","img/117/5.5/0.66667/bw/001.png","","","natural"
"","","","","","animation","303","2919538","0.0-303.0","1920x1080","","3435.300000011921","61","img/238/4/2/bw/001.png","","","natural"
"","","","","","animation","304","2930335","0.0-304.0","1920x1080","","10795.70000000298","95","img/314/5.5/1.5/bw/001.png","","","natural"
"","","","","","animation","305","2934450","0.0-305.0","1920x1080","","4114.100000008941","65","img/117/5.5/0.5/bw/001.png","","","natural"
"","","","","","animation","306","2938323","0.0-306.0","1920x1080","","3871.2000000029802","72","img/314/4.5/1.5/bw/001.png","","","natural"
"","","","","","animation","307","2946518","0.0-307.0","1920x1080","","8193.300000011921","9.66","img/314/2.5/1.5/bw/001.png","","","natural"
"","","","","","animation","308","2952994","0.0-308.0","1920x1080","","6475.100000008941","21.43","img/117/3.5/0.5/bw/001.png","","","natural"
"","","","","","animation","309","2956779","0.0-309.0","1920x1080","","3783.8999999910593","23","img/238/4/0.5/bw/001.png","","","natural"
"","","","","","animation","310","2961884","0.0-310.0","1920x1080","","5102.9000000059605","34","img/117/4/2/bw/001.png","","","natural"
"","","","","","animation","311","2968217","0.0-311.0","1920x1080","","6332.20000000298","22","img/314/3.5/0.66667/bw/001.png","","","natural"
"","","","","","animation","312","2972367","0.0-312.0","1920x1080","","4149","7","img/238/2.5/0.5/bw/001.png","","","natural"
"","","","","","html-button-response","313","2990800","0.0-313.0","1920x1080","","18430.39999999106","","<div class=""intro"">You are about to view a new series of animations.<br><br></div><div class=""intro"">You will evaluate them based on a different descriptor.<br><br></div><div class=""intro"">Move the slider to indicate how <strong style=""text-transform:capitalize"">APPEALING</strong> you find each animation.<br><br></div><div class=""intro"">0 = Least Appealing<br></div><div class=""intro"">1 = Most Appealing<br><br></div><div class=""intro"">Remember to use the <strong><em>entire range</em></strong> of the slider to make your ratings.<br></div><div class=""intro"">Please <strong><em>take your time</em></strong> and carefully consider each rating you make.<br><br></div>","0","",""
"","","","","","call-function","314","2990802","0.0-314.0","1920x1080","","","","","","",""
"","","","","","animation","315","2996105","0.0-315.0","1920x1080","","5302.20000000298","33","img/117/4.5/0.5/bw/001.png","","","appealing"
"","","","","","animation","316","2999913","0.0-316.0","1920x1080","","3806.5","56","img/117/5.5/0.5/bw/001.png","","","appealing"
"","","","","","animation","317","3005499","0.0-317.0","1920x1080","","5585.300000011921","34","img/238/3.5/1.5/bw/001.png","","","appealing"
"","","","","","animation","318","3010734","0.0-318.0","1920x1080","","5233.20000000298","17.86","img/238/3.5/1/bw/001.png","","","appealing"
"","","","","","animation","319","3016338","0.0-319.0","1920x1080","","5603.20000000298","42","img/314/4.5/0.66667/bw/001.png","","","appealing"
"","","","","","animation","320","3021483","0.0-320.0","1920x1080","","5142.70000000298","42.59","img/238/4.5/0.5/bw/001.png","","","appealing"
"","","","","","animation","321","3024505","0.0-321.0","1920x1080","","3020.6000000089407","32","img/314/4/0.66667/bw/001.png","","","appealing"
"","","","","","animation","322","3027073","0.0-322.0","1920x1080","","2566.5","57","img/117/4.5/2/bw/001.png","","","appealing"
"","","","","","animation","323","3031631","0.0-323.0","1920x1080","","4558","31","img/238/4.5/0.66667/bw/001.png","","","appealing"
"","","","","","animation","324","3034248","0.0-324.0","1920x1080","","2616.0999999940395","25","img/117/4.5/0.66667/bw/001.png","","","appealing"
"","","","","","animation","325","3037783","0.0-325.0","1920x1080","","3533.6000000089407","16","img/238/3.5/0.5/bw/001.png","","","appealing"
"","","","","","animation","326","3041183","0.0-326.0","1920x1080","","3398.5","56","img/238/4.5/1/bw/001.png","","","appealing"
"","","","","","animation","327","3045431","0.0-327.0","1920x1080","","4246.79999999702","73","img/238/5.5/0.5/bw/001.png","","","appealing"
"","","","","","animation","328","3051248","0.0-328.0","1920x1080","","5815.600000008941","42.33","img/238/4/1/bw/001.png","","","appealing"
"","","","","","animation","329","3055258","0.0-329.0","1920x1080","","4008","4","img/117/2.5/0.5/bw/001.png","","","appealing"
"","","","","","animation","330","3059765","0.0-330.0","1920x1080","","4505.29999999702","96","img/314/5.5/1/bw/001.png","","","appealing"
"","","","","","animation","331","3063032","0.0-331.0","1920x1080","","3266","98","img/238/5.5/1/bw/001.png","","","appealing"
"","","","","","animation","332","3067632","0.0-332.0","1920x1080","","4598.70000000298","60","img/314/4/1.5/bw/001.png","","","appealing"
"","","","","","animation","333","3071117","0.0-333.0","1920x1080","","3483.5","57","img/238/4.5/1.5/bw/001.png","","","appealing"
"","","","","","animation","334","3075321","0.0-334.0","1920x1080","","4202.600000008941","2","img/238/2.5/0.66667/bw/001.png","","","appealing"
"","","","","","animation","335","3080522","0.0-335.0","1920x1080","","5199.4000000059605","92","img/238/5.5/2/bw/001.png","","","appealing"
"","","","","","animation","336","3086415","0.0-336.0","1920x1080","","5891.600000008941","41","img/117/3.5/2/bw/001.png","","","appealing"
"","","","","","animation","337","3090618","0.0-337.0","1920x1080","","4198.29999999702","15","img/314/2.5/1.5/bw/001.png","","","appealing"
"","","","","","animation","338","3109355","0.0-338.0","1920x1080","","18735.19999998808","58","img/117/5.5/0.66667/bw/001.png","","","appealing"
"","","","","","animation","339","3111518","0.0-339.0","1920x1080","","2162","40","img/314/4/0.5/bw/001.png","","","appealing"
"","","","","","animation","340","3118702","0.0-340.0","1920x1080","","7182.0999999940395","9","img/314/2.5/0.66667/bw/001.png","","","appealing"
"","","","","","animation","341","3122994","0.0-341.0","1920x1080","","4290.600000008941","87","img/238/5.5/0.66667/bw/001.png","","","appealing"
"","","","","","animation","342","3126352","0.0-342.0","1920x1080","","3357.0999999940395","40.87","img/117/4/1/bw/001.png","","","appealing"
"","","","","","animation","343","3129685","0.0-343.0","1920x1080","","3331.9000000059605","53","img/117/4.5/1.5/bw/001.png","","","appealing"
"","","","","","animation","344","3132635","0.0-344.0","1920x1080","","2948.7999999970198","52","img/314/4.5/1.5/bw/001.png","","","appealing"
"","","","","","animation","345","3136539","0.0-345.0","1920x1080","","3902.3999999910593","68","img/117/5.5/1.5/bw/001.png","","","appealing"
"","","","","","animation","346","3139892","0.0-346.0","1920x1080","","3351.0999999940395","45.77","img/238/3.5/2/bw/001.png","","","appealing"
"","","","","","animation","347","3145818","0.0-347.0","1920x1080","","5925.4000000059605","43","img/117/4/2/bw/001.png","","","appealing"
"","","","","","animation","348","3148987","0.0-348.0","1920x1080","","3167.3999999910593","12","img/314/2.5/1/bw/001.png","","","appealing"
"","","","","","animation","349","3154082","0.0-349.0","1920x1080","","5096","23.94","img/314/4/1/bw/001.png","","","appealing"
"","","","","","animation","350","3158850","0.0-350.0","1920x1080","","4766.199999988079","19","img/117/3.5/1.5/bw/001.png","","","appealing"
"","","","","","animation","351","3164985","0.0-351.0","1920x1080","","6133.79999999702","7.41","img/117/3.5/0.5/bw/001.png","","","appealing"
"","","","","","animation","352","3168137","0.0-352.0","1920x1080","","3150.5","1","img/117/2.5/0.66667/bw/001.png","","","appealing"
"","","","","","animation","353","3172169","0.0-353.0","1920x1080","","4030.5999999940395","44","img/117/4/1.5/bw/001.png","","","appealing"
"","","","","","animation","354","3176683","0.0-354.0","1920x1080","","4512.0999999940395","12","img/117/2.5/1.5/bw/001.png","","","appealing"
"","","","","","animation","355","3180067","0.0-355.0","1920x1080","","3382.7000000029802","88","img/238/5.5/1.5/bw/001.png","","","appealing"
"","","","","","animation","356","3183953","0.0-356.0","1920x1080","","3884.7999999970198","48","img/117/4.5/1/bw/001.png","","","appealing"
"","","","","","animation","357","3187188","0.0-357.0","1920x1080","","3234","43.78","img/238/3.5/0.66667/bw/001.png","","","appealing"
"","","","","","animation","358","3189969","0.0-358.0","1920x1080","","2779.4000000059605","56","img/314/5.5/0.66667/bw/001.png","","","appealing"
"","","","","","animation","359","3193683","0.0-359.0","1920x1080","","3713.2999999970198","34","img/117/3.5/0.66667/bw/001.png","","","appealing"
"","","","","","animation","360","3198066","0.0-360.0","1920x1080","","4381.5","14","img/238/2.5/1.5/bw/001.png","","","appealing"
"","","","","","animation","361","3203767","0.0-361.0","1920x1080","","5699.70000000298","54","img/314/4.5/1/bw/001.png","","","appealing"
"","","","","","animation","362","3206867","0.0-362.0","1920x1080","","3098.5","1","img/238/2.5/1/bw/001.png","","","appealing"
"","","","","","animation","363","3214685","0.0-363.0","1920x1080","","7817.899999991059","9","img/314/2.5/2/bw/001.png","","","appealing"
"","","","","","animation","364","3217933","0.0-364.0","1920x1080","","3245.7000000029802","63","img/238/4.5/2/bw/001.png","","","appealing"
"","","","","","animation","365","3220099","0.0-365.0","1920x1080","","2165.2000000029802","58","img/238/4/2/bw/001.png","","","appealing"
"","","","","","animation","366","3227666","0.0-366.0","1920x1080","","7566.0999999940395","64.95","img/314/5.5/0.5/bw/001.png","","","appealing"
"","","","","","animation","367","3230520","0.0-367.0","1920x1080","","2853.2000000029802","44.58","img/238/4/1.5/bw/001.png","","","appealing"
"","","","","","animation","368","3233752","0.0-368.0","1920x1080","","3230.5","31.22","img/238/4/0.5/bw/001.png","","","appealing"
"","","","","","animation","369","3238523","0.0-369.0","1920x1080","","4769.100000008941","78.17","img/314/5.5/1.5/bw/001.png","","","appealing"
"","","","","","animation","370","3243600","0.0-370.0","1920x1080","","5076","47","img/314/4.5/0.5/bw/001.png","","","appealing"
"","","","","","animation","371","3246283","0.0-371.0","1920x1080","","2681.3999999910593","59.52","img/117/5.5/1/bw/001.png","","","appealing"
"","","","","","animation","372","3249832","0.0-372.0","1920x1080","","3548.2999999970198","4.37","img/117/2.5/2/bw/001.png","","","appealing"
"","","","","","animation","373","3252725","0.0-373.0","1920x1080","","2890.8999999910593","2.12","img/238/2.5/0.5/bw/001.png","","","appealing"
"","","","","","animation","374","3256923","0.0-374.0","1920x1080","","4196.100000008941","13.89","img/314/3.5/0.5/bw/001.png","","","appealing"
"","","","","","animation","375","3259665","0.0-375.0","1920x1080","","2740.800000011921","16.53","img/117/4/0.66667/bw/001.png","","","appealing"
"","","","","","animation","376","3262449","0.0-376.0","1920x1080","","2782.5","5.56","img/117/2.5/1/bw/001.png","","","appealing"
"","","","","","animation","377","3265120","0.0-377.0","1920x1080","","2669.5","35.19","img/314/3.5/2/bw/001.png","","","appealing"
"","","","","","animation","378","3267748","0.0-378.0","1920x1080","","2626.2999999970198","23.28","img/238/4/0.66667/bw/001.png","","","appealing"
"","","","","","animation","379","3270886","0.0-379.0","1920x1080","","3126.7999999970198","15","img/314/3.5/0.66667/bw/001.png","","","appealing"
"","","","","","animation","380","3276326","0.0-380.0","1920x1080","","5438.5","4","img/314/2.5/0.5/bw/001.png","","","appealing"
"","","","","","animation","381","3279518","0.0-381.0","1920x1080","","3191.2000000029802","22","img/117/4/0.5/bw/001.png","","","appealing"
"","","","","","animation","382","3283409","0.0-382.0","1920x1080","","3888.7000000029802","91","img/117/5.5/2/bw/001.png","","","appealing"
"","","","","","animation","383","3286401","0.0-383.0","1920x1080","","2990.7000000029802","57","img/314/3.5/1.5/bw/001.png","","","appealing"
"","","","","","animation","384","3289756","0.0-384.0","1920x1080","","3354.1000000089407","43","img/117/3.5/1/bw/001.png","","","appealing"
"","","","","","animation","385","3292725","0.0-385.0","1920x1080","","2967.699999988079","38","img/314/3.5/1/bw/001.png","","","appealing"
"","","","","","animation","386","3295859","0.0-386.0","1920x1080","","3132.2000000029802","96","img/314/5.5/2/bw/001.png","","","appealing"
"","","","","","animation","387","3299886","0.0-387.0","1920x1080","","4026.2000000029802","65","img/314/4/2/bw/001.png","","","appealing"
"","","","","","animation","388","3304492","0.0-388.0","1920x1080","","4604.600000008941","8.86","img/238/2.5/2/bw/001.png","","","appealing"
"","","","","","animation","389","3307566","0.0-389.0","1920x1080","","3072.2000000029802","39.55","img/314/4.5/2/bw/001.png","","","appealing"
"","","","","","html-button-response","390","3323674","0.0-390.0","1920x1080","","16106.300000011921","","<strong>Study Debriefing</strong><br><p class=""debrief""><strong>Background:</strong> The patterns you rated are called <em>fractals</em>. The term fractal describes a class of irregular curves or shapes for which any suitably chosen part is similar in shape to a given larger or smaller part when magnified or reduced to the same size. Fractal properties are found throughout the natural and manmade world. The series of animations you saw today displayed animated fractal patterns of a varying complexity.</p><p class=""debrief""><strong>Purpose of this study:</strong> We hope to better understand how the perception of static fractals differs from the perception of animated fractals, and how the speed of the animated patterns influences people&apos;s perception of them. Fractals allow us to study the perception of aesthetic properties (e.g. the perceived level of beauty in an image) without using recognizable content, which makes them an excellent tool for studying abstract aesthetic judgement.</p><p class=""debrief""><strong>Your part:</strong> Your participation has helped us to further understand how humans perceive these patterns across different levels of speed and complexity. This research with allow us to better understand how the visual system and brain process our ever-changing visual environments.<p class=""debrief""><strong>Feedback and Further information:</strong> If you have additional questions about this study, please feel free to ask the researcher, Nathan Gonzales-Hess at nhess @ uoregon.edu. If you have any questions concerning your rights as a research participant, please contact Research Compliance Services, 5237 University of Oregon, Eugene, OR 97403, 541-346-2510, or email researchCompliance @ uoregon.edu. You can also email the Human Subjects Coordinator for psychology and linguistics research at hscoord @ uoregon.edu. ","0","",""
"","","","","","html-button-response","391","3326981","0.0-391.0","1920x1080","","3302.4000000059605","","Thank you for participating in this study. <br>Please click below to finish the experiment and submit your responses.<br><br>","0","",""
"true","","","","","fullscreen","392","3327987","0.0-392.0","1920x1080","14:18 13/10/2022","","","","","",""
