"success","timeout","failed_images","failed_audio","failed_video","trial_type","trial_index","time_elapsed","internal_node_id","resolution","timeStamp","rt","response","stimulus","button_pressed","value","descriptor"
"true","false","[]","[]","[]","preload","0","5991","0.0-0.0","1920x1080","","","","","","",""
"true","false","[]","[]","[]","preload","1","12261","0.0-1.0","1920x1080","","","","","","",""
"true","false","[]","[]","[]","preload","2","18216","0.0-2.0","1920x1080","","","","","","",""
"true","","","","","fullscreen","3","139843","0.0-3.0","1920x1080","12:59 19/10/2022","","","","","",""
"","","","","","survey-html-form","4","150822","0.0-4.0","1920x1080","","10971.199999999255","{""age"":""18"",""gender"":""Female""}","","","",""
"","","","","","html-button-response","5","205054","0.0-5.0","1920x1080","","54230.79999999888","","<div class=""complex"">You are going to see a series of animations.<br><br></div><div class=""complex"">Move the slider to indicate how <strong style=""text-transform:capitalize"">COMPLEX</strong> you find each animation.<br><br></div><div class=""complex"">0 = Least Complex<br></div><div class=""complex"">1 = Most Complex<br><br></div><div class=""complex"">Remember to use the <strong><em>entire range</em></strong> of the slider to make your ratings.<br></div><div class=""complex"">Please <strong><em>take your time</em></strong> and carefully consider each rating you make.<br><br></div><div class=""complex"">The study has five sections and will take about 45 minutes to complete.<br><br></div>","0","",""
"","","","","","call-function","6","205055","0.0-6.0","1920x1080","","","","","","",""
"","","","","","animation","7","218646","0.0-7.0","1920x1080","","13590.300000000745","11","img/238/5.5/2/bw/001.png","","","complex"
"","","","","","animation","8","223830","0.0-8.0","1920x1080","","5182.5999999996275","59.52","img/117/2.5/1.5/bw/001.png","","","complex"
"","","","","","animation","9","227598","0.0-9.0","1920x1080","","3767.199999999255","40.74","img/314/3.5/1/bw/001.png","","","complex"
"","","","","","animation","10","237902","0.0-10.0","1920x1080","","10303","16.01","img/117/5.5/2/bw/001.png","","","complex"
"","","","","","animation","11","242526","0.0-11.0","1920x1080","","4623.5999999996275","25.26","img/314/5.5/0.66667/bw/001.png","","","complex"
"","","","","","animation","12","246317","0.0-12.0","1920x1080","","3790.7999999988824","45.37","img/238/4/0.5/bw/001.png","","","complex"
"","","","","","animation","13","250358","0.0-13.0","1920x1080","","4039.5999999996275","57.41","img/117/4/0.5/bw/001.png","","","complex"
"","","","","","animation","14","255358","0.0-14.0","1920x1080","","4999.5","69.31","img/117/3.5/2/bw/001.png","","","complex"
"","","","","","animation","15","259110","0.0-15.0","1920x1080","","3751.4000000003725","68.52","img/238/3.5/0.5/bw/001.png","","","complex"
"","","","","","animation","16","267766","0.0-16.0","1920x1080","","8655.299999998882","1","img/238/4.5/1/bw/001.png","","","complex"
"","","","","","animation","17","274605","0.0-17.0","1920x1080","","6838.5999999996275","9","img/314/4.5/1.5/bw/001.png","","","complex"
"","","","","","animation","18","279037","0.0-18.0","1920x1080","","4431.0999999996275","3.17","img/314/5.5/2/bw/001.png","","","complex"
"","","","","","animation","19","282030","0.0-19.0","1920x1080","","2991.5999999996275","35.19","img/238/3.5/1/bw/001.png","","","complex"
"","","","","","animation","20","285837","0.0-20.0","1920x1080","","3806.7999999988824","16.01","img/117/5.5/0.66667/bw/001.png","","","complex"
"","","","","","animation","21","288989","0.0-21.0","1920x1080","","3151.2999999988824","63.76","img/238/3.5/0.66667/bw/001.png","","","complex"
"","","","","","animation","22","295565","0.0-22.0","1920x1080","","6575.5","30","img/314/5.5/0.5/bw/001.png","","","complex"
"","","","","","animation","23","298557","0.0-23.0","1920x1080","","2990.5","48.28","img/117/4/2/bw/001.png","","","complex"
"","","","","","animation","24","301013","0.0-24.0","1920x1080","","2455.5999999996275","69.71","img/314/3.5/2/bw/001.png","","","complex"
"","","","","","animation","25","304877","0.0-25.0","1920x1080","","3863","77.65","img/314/4/0.66667/bw/001.png","","","complex"
"","","","","","animation","26","311541","0.0-26.0","1920x1080","","6662.800000000745","4.37","img/238/5.5/1/bw/001.png","","","complex"
"","","","","","animation","27","315197","0.0-27.0","1920x1080","","3655.7000000011176","42.99","img/314/4/1/bw/001.png","","","complex"
"","","","","","animation","28","319269","0.0-28.0","1920x1080","","4071","100","img/238/2.5/0.66667/bw/001.png","","","complex"
"","","","","","animation","29","324381","0.0-29.0","1920x1080","","5111.5999999996275","100","img/117/2.5/0.5/bw/001.png","","","complex"
"","","","","","animation","30","327637","0.0-30.0","1920x1080","","3254.2000000011176","30.16","img/314/4/2/bw/001.png","","","complex"
"","","","","","animation","31","331413","0.0-31.0","1920x1080","","3775.800000000745","47.88","img/314/4/1.5/bw/001.png","","","complex"
"","","","","","animation","32","336429","0.0-32.0","1920x1080","","5015.0999999996275","39","img/314/4.5/1/bw/001.png","","","complex"
"","","","","","animation","33","342053","0.0-33.0","1920x1080","","5622.700000001118","90.34","img/117/3.5/0.5/bw/001.png","","","complex"
"","","","","","animation","34","346453","0.0-34.0","1920x1080","","4399.699999999255","35.71","img/117/4.5/1/bw/001.png","","","complex"
"","","","","","animation","35","349373","0.0-35.0","1920x1080","","2919.300000000745","6","img/238/5.5/0.5/bw/001.png","","","complex"
"","","","","","animation","36","352093","0.0-36.0","1920x1080","","2719.10000000149","100","img/238/2.5/0.5/bw/001.png","","","complex"
"","","","","","animation","37","354981","0.0-37.0","1920x1080","","2887.2000000011176","86.51","img/117/3.5/1/bw/001.png","","","complex"
"","","","","","animation","38","358997","0.0-38.0","1920x1080","","4015.0999999996275","75","img/314/4.5/0.5/bw/001.png","","","complex"
"","","","","","animation","39","363845","0.0-39.0","1920x1080","","4846.300000000745","95","img/117/2.5/2/bw/001.png","","","complex"
"","","","","","animation","40","367469","0.0-40.0","1920x1080","","3623.4000000003725","99","img/238/2.5/2/bw/001.png","","","complex"
"","","","","","animation","41","370525","0.0-41.0","1920x1080","","3055.199999999255","5.16","img/238/4.5/2/bw/001.png","","","complex"
"","","","","","animation","42","373741","0.0-42.0","1920x1080","","3215.5999999996275","100","img/117/2.5/1/bw/001.png","","","complex"
"","","","","","animation","43","382189","0.0-43.0","1920x1080","","8447.099999999627","0","img/238/5.5/1.5/bw/001.png","","","complex"
"","","","","","animation","44","386331","0.0-44.0","1920x1080","","4143.800000000745","42","img/314/4/0.5/bw/001.png","","","complex"
"","","","","","animation","45","393042","0.0-45.0","1920x1080","","6709.700000001118","100","img/314/2.5/0.66667/bw/001.png","","","complex"
"","","","","","animation","46","396890","0.0-46.0","1920x1080","","3847.4000000003725","31.88","img/314/4.5/0.66667/bw/001.png","","","complex"
"","","","","","animation","47","400410","0.0-47.0","1920x1080","","3519","100","img/314/2.5/1/bw/001.png","","","complex"
"","","","","","animation","48","406418","0.0-48.0","1920x1080","","6006.800000000745","55.42","img/238/4/0.66667/bw/001.png","","","complex"
"","","","","","animation","49","409842","0.0-49.0","1920x1080","","3423.4000000003725","50.13","img/238/4/2/bw/001.png","","","complex"
"","","","","","animation","50","414698","0.0-50.0","1920x1080","","4854.4000000003725","44.97","img/117/4.5/2/bw/001.png","","","complex"
"","","","","","animation","51","418826","0.0-51.0","1920x1080","","4127.39999999851","14","img/314/5.5/1.5/bw/001.png","","","complex"
"","","","","","animation","52","422010","0.0-52.0","1920x1080","","3183.300000000745","33","img/117/5.5/0.5/bw/001.png","","","complex"
"","","","","","animation","53","424882","0.0-53.0","1920x1080","","2870.800000000745","48.28","img/238/4.5/0.5/bw/001.png","","","complex"
"","","","","","animation","54","428266","0.0-54.0","1920x1080","","3383","77","img/314/3.5/0.66667/bw/001.png","","","complex"
"","","","","","animation","55","431586","0.0-55.0","1920x1080","","3319.5","82","img/117/4/1/bw/001.png","","","complex"
"","","","","","animation","56","434538","0.0-56.0","1920x1080","","2951","100","img/117/2.5/0.66667/bw/001.png","","","complex"
"","","","","","animation","57","437315","0.0-57.0","1920x1080","","2776","70.11","img/117/4/1.5/bw/001.png","","","complex"
"","","","","","animation","58","440426","0.0-58.0","1920x1080","","3109.89999999851","82.80","img/314/3.5/0.5/bw/001.png","","","complex"
"","","","","","animation","59","444052","0.0-59.0","1920x1080","","3622.60000000149","72","img/117/4.5/1.5/bw/001.png","","","complex"
"","","","","","animation","60","447820","0.0-60.0","1920x1080","","3766.9000000003725","5.82","img/117/5.5/1.5/bw/001.png","","","complex"
"","","","","","animation","61","451972","0.0-61.0","1920x1080","","4151.10000000149","88.49","img/117/3.5/0.66667/bw/001.png","","","complex"
"","","","","","animation","62","456740","0.0-62.0","1920x1080","","4767.300000000745","94","img/314/2.5/1.5/bw/001.png","","","complex"
"","","","","","animation","63","459716","0.0-63.0","1920x1080","","2974.7999999988824","17","img/117/5.5/1/bw/001.png","","","complex"
"","","","","","animation","64","462500","0.0-64.0","1920x1080","","2783.199999999255","44.71","img/117/4/0.66667/bw/001.png","","","complex"
"","","","","","animation","65","466308","0.0-65.0","1920x1080","","3807.699999999255","95","img/238/2.5/1.5/bw/001.png","","","complex"
"","","","","","animation","66","473308","0.0-66.0","1920x1080","","6999.0999999996275","0.00","img/238/5.5/0.66667/bw/001.png","","","complex"
"","","","","","animation","67","477908","0.0-67.0","1920x1080","","4599","11.24","img/238/4.5/1.5/bw/001.png","","","complex"
"","","","","","animation","68","485740","0.0-68.0","1920x1080","","7830.700000001118","57.80","img/238/3.5/1.5/bw/001.png","","","complex"
"","","","","","animation","69","490068","0.0-69.0","1920x1080","","4326.89999999851","0.00","img/314/5.5/1/bw/001.png","","","complex"
"","","","","","animation","70","495660","0.0-70.0","1920x1080","","5591.300000000745","94","img/314/2.5/2/bw/001.png","","","complex"
"","","","","","animation","71","502970","0.0-71.0","1920x1080","","7311.0999999996275","39.95","img/238/4/1.5/bw/001.png","","","complex"
"","","","","","animation","72","507554","0.0-72.0","1920x1080","","4583.0999999996275","62.57","img/117/3.5/1.5/bw/001.png","","","complex"
"","","","","","animation","73","510394","0.0-73.0","1920x1080","","2839.199999999255","60.85","img/238/4/1/bw/001.png","","","complex"
"","","","","","animation","74","515834","0.0-74.0","1920x1080","","5438.5","100","img/238/2.5/1/bw/001.png","","","complex"
"","","","","","animation","75","519466","0.0-75.0","1920x1080","","3630.9000000003725","30.56","img/238/4.5/0.66667/bw/001.png","","","complex"
"","","","","","animation","76","522842","0.0-76.0","1920x1080","","3375.4000000003725","42.33","img/117/4.5/0.5/bw/001.png","","","complex"
"","","","","","animation","77","525618","0.0-77.0","1920x1080","","2774.0999999996275","100","img/314/2.5/0.5/bw/001.png","","","complex"
"","","","","","animation","78","531242","0.0-78.0","1920x1080","","5623.300000000745","59.13","img/314/3.5/1.5/bw/001.png","","","complex"
"","","","","","animation","79","536402","0.0-79.0","1920x1080","","5158.699999999255","15.48","img/314/4.5/2/bw/001.png","","","complex"
"","","","","","animation","80","544490","0.0-80.0","1920x1080","","8086.800000000745","45.24","img/117/4.5/0.66667/bw/001.png","","","complex"
"","","","","","animation","81","553274","0.0-81.0","1920x1080","","8782.700000001118","51","img/238/3.5/2/bw/001.png","","","complex"
"","","","","","html-button-response","82","572758","0.0-82.0","1920x1080","","19478.5","","<div class=""intro"">You are about to view a new series of animations.<br><br></div><div class=""intro"">You will evaluate them based on a different descriptor.<br><br></div><div class=""intro"">Move the slider to indicate how <strong style=""text-transform:capitalize"">RELAXING</strong> you find each animation.<br><br></div><div class=""intro"">0 = Least Relaxing<br></div><div class=""intro"">1 = Most Relaxing<br><br></div><div class=""intro"">Remember to use the <strong><em>entire range</em></strong> of the slider to make your ratings.<br></div><div class=""intro"">Please <strong><em>take your time</em></strong> and carefully consider each rating you make.<br><br></div>","0","",""
"","","","","","call-function","83","572759","0.0-83.0","1920x1080","","","","","","",""
"","","","","","animation","84","581421","0.0-84.0","1920x1080","","8661.900000000373","0","img/314/3.5/0.66667/bw/001.png","","","relaxing"
"","","","","","animation","85","588584","0.0-85.0","1920x1080","","7161.300000000745","39.02","img/314/4.5/1/bw/001.png","","","relaxing"
"","","","","","animation","86","593669","0.0-86.0","1920x1080","","5084.300000000745","15.21","img/117/3.5/0.66667/bw/001.png","","","relaxing"
"","","","","","animation","87","600605","0.0-87.0","1920x1080","","6934.9000000003725","71.83","img/117/5.5/1/bw/001.png","","","relaxing"
"","","","","","animation","88","604710","0.0-88.0","1920x1080","","4102.0999999996275","44.84","img/314/4.5/1.5/bw/001.png","","","relaxing"
"","","","","","animation","89","608910","0.0-89.0","1920x1080","","4198.9000000003725","0.40","img/314/2.5/0.66667/bw/001.png","","","relaxing"
"","","","","","animation","90","613589","0.0-90.0","1920x1080","","4678.700000001118","28.84","img/117/4.5/1/bw/001.png","","","relaxing"
"","","","","","animation","91","615822","0.0-91.0","1920x1080","","2230.5999999996275","27.78","img/117/4.5/0.66667/bw/001.png","","","relaxing"
"","","","","","animation","92","618462","0.0-92.0","1920x1080","","2639.4000000003725","18.78","img/238/4/1/bw/001.png","","","relaxing"
"","","","","","animation","93","622126","0.0-93.0","1920x1080","","3662.7000000011176","50","img/238/4.5/1.5/bw/001.png","","","relaxing"
"","","","","","animation","94","626936","0.0-94.0","1920x1080","","4814.5999999996275","5.82","img/238/4/0.5/bw/001.png","","","relaxing"
"","","","","","animation","95","630873","0.0-95.0","1920x1080","","3935.300000000745","37.43","img/117/3.5/2/bw/001.png","","","relaxing"
"","","","","","animation","96","635596","0.0-96.0","1920x1080","","4722.39999999851","0","img/117/2.5/1.5/bw/001.png","","","relaxing"
"","","","","","animation","97","641241","0.0-97.0","1920x1080","","5643.700000001118","90.21","img/314/5.5/1/bw/001.png","","","relaxing"
"","","","","","animation","98","644797","0.0-98.0","1920x1080","","3554.5999999996275","49","img/314/4.5/2/bw/001.png","","","relaxing"
"","","","","","animation","99","647648","0.0-99.0","1920x1080","","2850.60000000149","0","img/314/2.5/1/bw/001.png","","","relaxing"
"","","","","","animation","100","650784","0.0-100.0","1920x1080","","3135.2000000011176","43","img/117/4/2/bw/001.png","","","relaxing"
"","","","","","animation","101","653817","0.0-101.0","1920x1080","","3031.699999999255","19.18","img/314/4/1/bw/001.png","","","relaxing"
"","","","","","animation","102","659480","0.0-102.0","1920x1080","","5662.699999999255","-0.40","img/314/3.5/0.5/bw/001.png","","","relaxing"
"","","","","","animation","103","669473","0.0-103.0","1920x1080","","9991.200000001118","0","img/238/3.5/0.66667/bw/001.png","","","relaxing"
"","","","","","animation","104","673257","0.0-104.0","1920x1080","","3782.7999999988824","49.60","img/117/4.5/1.5/bw/001.png","","","relaxing"
"","","","","","animation","105","683219","0.0-105.0","1920x1080","","9958.5","0","img/238/2.5/0.66667/bw/001.png","","","relaxing"
"","","","","","animation","106","690435","0.0-106.0","1920x1080","","7212","58","img/238/4.5/1/bw/001.png","","","relaxing"
"","","","","","animation","107","694015","0.0-107.0","1920x1080","","3579.199999999255","0.53","img/238/2.5/1/bw/001.png","","","relaxing"
"","","","","","animation","108","697507","0.0-108.0","1920x1080","","3490.5","39.81","img/314/5.5/0.5/bw/001.png","","","relaxing"
"","","","","","animation","109","701749","0.0-109.0","1920x1080","","4240.5","39.68","img/314/4/1.5/bw/001.png","","","relaxing"
"","","","","","animation","110","707075","0.0-110.0","1920x1080","","5325.0999999996275","100","img/238/5.5/2/bw/001.png","","","relaxing"
"","","","","","animation","111","711381","0.0-111.0","1920x1080","","4304.799999998882","69.44","img/117/5.5/0.66667/bw/001.png","","","relaxing"
"","","","","","animation","112","720948","0.0-112.0","1920x1080","","9565.199999999255","69.58","img/117/4.5/2/bw/001.png","","","relaxing"
"","","","","","animation","113","724339","0.0-113.0","1920x1080","","3390.5999999996275","0.40","img/117/2.5/0.5/bw/001.png","","","relaxing"
"","","","","","animation","114","727749","0.0-114.0","1920x1080","","3408.800000000745","43.39","img/314/4.5/0.66667/bw/001.png","","","relaxing"
"","","","","","animation","115","731986","0.0-115.0","1920x1080","","4235.299999998882","0","img/238/2.5/2/bw/001.png","","","relaxing"
"","","","","","animation","116","735339","0.0-116.0","1920x1080","","3351.5999999996275","5.56","img/238/4.5/0.5/bw/001.png","","","relaxing"
"","","","","","animation","117","741523","0.0-117.0","1920x1080","","6182.200000001118","100","img/117/5.5/2/bw/001.png","","","relaxing"
"","","","","","animation","118","745864","0.0-118.0","1920x1080","","4342.699999999255","0.00","img/238/2.5/1.5/bw/001.png","","","relaxing"
"","","","","","animation","119","749441","0.0-119.0","1920x1080","","3575.5","18.52","img/238/4.5/0.66667/bw/001.png","","","relaxing"
"","","","","","animation","120","753413","0.0-120.0","1920x1080","","3970.89999999851","19.44","img/117/4/1/bw/001.png","","","relaxing"
"","","","","","animation","121","756378","0.0-121.0","1920x1080","","2964.5","26.06","img/238/3.5/2/bw/001.png","","","relaxing"
"","","","","","animation","122","758536","0.0-122.0","1920x1080","","2157","18.65","img/314/4.5/0.5/bw/001.png","","","relaxing"
"","","","","","animation","123","763097","0.0-123.0","1920x1080","","4560","17.20","img/314/4/0.66667/bw/001.png","","","relaxing"
"","","","","","animation","124","766136","0.0-124.0","1920x1080","","3038","12.83","img/314/3.5/1.5/bw/001.png","","","relaxing"
"","","","","","animation","125","768928","0.0-125.0","1920x1080","","2790.7000000011176","6.75","img/117/4.5/0.5/bw/001.png","","","relaxing"
"","","","","","animation","126","772056","0.0-126.0","1920x1080","","3127.300000000745","23.54","img/238/3.5/1.5/bw/001.png","","","relaxing"
"","","","","","animation","127","776195","0.0-127.0","1920x1080","","4137.300000000745","83.60","img/314/5.5/1.5/bw/001.png","","","relaxing"
"","","","","","animation","128","780395","0.0-128.0","1920x1080","","4199.199999999255","0","img/238/3.5/0.5/bw/001.png","","","relaxing"
"","","","","","animation","129","783345","0.0-129.0","1920x1080","","2949.0999999996275","0.53","img/117/2.5/2/bw/001.png","","","relaxing"
"","","","","","animation","130","787997","0.0-130.0","1920x1080","","4650.5999999996275","100","img/238/5.5/1.5/bw/001.png","","","relaxing"
"","","","","","animation","131","793768","0.0-131.0","1920x1080","","5770.699999999255","75","img/238/5.5/0.5/bw/001.png","","","relaxing"
"","","","","","animation","132","797432","0.0-132.0","1920x1080","","3662.7000000011176","0.00","img/117/3.5/0.5/bw/001.png","","","relaxing"
"","","","","","animation","133","802232","0.0-133.0","1920x1080","","4798.4000000003725","100","img/314/5.5/2/bw/001.png","","","relaxing"
"","","","","","animation","134","807383","0.0-134.0","1920x1080","","5151.0999999996275","85","img/238/5.5/0.66667/bw/001.png","","","relaxing"
"","","","","","animation","135","810319","0.0-135.0","1920x1080","","2934.800000000745","29.10","img/314/3.5/1/bw/001.png","","","relaxing"
"","","","","","animation","136","815087","0.0-136.0","1920x1080","","4767","0","img/314/2.5/1.5/bw/001.png","","","relaxing"
"","","","","","animation","137","819960","0.0-137.0","1920x1080","","4871.800000000745","14.55","img/314/4/0.5/bw/001.png","","","relaxing"
"","","","","","animation","138","823831","0.0-138.0","1920x1080","","3869.199999999255","10.85","img/238/3.5/1/bw/001.png","","","relaxing"
"","","","","","animation","139","828118","0.0-139.0","1920x1080","","4286.9000000003725","0.40","img/314/2.5/0.5/bw/001.png","","","relaxing"
"","","","","","animation","140","835615","0.0-140.0","1920x1080","","7495.200000001118","96","img/238/4.5/2/bw/001.png","","","relaxing"
"","","","","","animation","141","838903","0.0-141.0","1920x1080","","3286.800000000745","25.13","img/117/4/0.5/bw/001.png","","","relaxing"
"","","","","","animation","142","843183","0.0-142.0","1920x1080","","4278.60000000149","41.27","img/314/4/2/bw/001.png","","","relaxing"
"","","","","","animation","143","846710","0.0-143.0","1920x1080","","3526.5","13.76","img/117/3.5/1/bw/001.png","","","relaxing"
"","","","","","animation","144","851671","0.0-144.0","1920x1080","","4959.300000000745","4.89","img/117/4/0.66667/bw/001.png","","","relaxing"
"","","","","","animation","145","854962","0.0-145.0","1920x1080","","3290.199999999255","7.80","img/238/4/0.66667/bw/001.png","","","relaxing"
"","","","","","animation","146","858262","0.0-146.0","1920x1080","","3299.0999999996275","5.56","img/314/2.5/2/bw/001.png","","","relaxing"
"","","","","","animation","147","861935","0.0-147.0","1920x1080","","3671.2999999988824","0","img/117/2.5/1/bw/001.png","","","relaxing"
"","","","","","animation","148","865792","0.0-148.0","1920x1080","","3858.5","7.28","img/117/3.5/1.5/bw/001.png","","","relaxing"
"","","","","","animation","149","872428","0.0-149.0","1920x1080","","6635.0999999996275","27","img/238/4/2/bw/001.png","","","relaxing"
"","","","","","animation","150","875657","0.0-150.0","1920x1080","","3227.5999999996275","0","img/238/2.5/0.5/bw/001.png","","","relaxing"
"","","","","","animation","151","880676","0.0-151.0","1920x1080","","5018","43.12","img/117/4/1.5/bw/001.png","","","relaxing"
"","","","","","animation","152","884500","0.0-152.0","1920x1080","","3822.5","44.97","img/238/4/1.5/bw/001.png","","","relaxing"
"","","","","","animation","153","891180","0.0-153.0","1920x1080","","6678.800000000745","85","img/238/5.5/1/bw/001.png","","","relaxing"
"","","","","","animation","154","894628","0.0-154.0","1920x1080","","3446.10000000149","0.40","img/117/2.5/0.66667/bw/001.png","","","relaxing"
"","","","","","animation","155","900341","0.0-155.0","1920x1080","","5711.5","100","img/117/5.5/1.5/bw/001.png","","","relaxing"
"","","","","","animation","156","903092","0.0-156.0","1920x1080","","2749.39999999851","79.89","img/117/5.5/0.5/bw/001.png","","","relaxing"
"","","","","","animation","157","906858","0.0-157.0","1920x1080","","3764.800000000745","46.30","img/314/3.5/2/bw/001.png","","","relaxing"
"","","","","","animation","158","913758","0.0-158.0","1920x1080","","6899.199999999255","65.87","img/314/5.5/0.66667/bw/001.png","","","relaxing"
"","","","","","html-button-response","159","932964","0.0-159.0","1920x1080","","19198.599999999627","","<div class=""intro"">You are about to view a new series of animations.<br><br></div><div class=""intro"">You will evaluate them based on a different descriptor.<br><br></div><div class=""intro"">Move the slider to indicate how <strong style=""text-transform:capitalize"">NATURAL</strong> you find each animation.<br><br></div><div class=""intro"">0 = Least Natural<br></div><div class=""intro"">1 = Most Natural<br><br></div><div class=""intro"">Remember to use the <strong><em>entire range</em></strong> of the slider to make your ratings.<br></div><div class=""intro"">Please <strong><em>take your time</em></strong> and carefully consider each rating you make.<br><br></div>","0","",""
"","","","","","call-function","160","932965","0.0-160.0","1920x1080","","","","","","",""
"","","","","","animation","161","939555","0.0-161.0","1920x1080","","6589.5","13.76","img/117/3.5/0.66667/bw/001.png","","","natural"
"","","","","","animation","162","945832","0.0-162.0","1920x1080","","6275.9000000003725","0","img/314/2.5/0.5/bw/001.png","","","natural"
"","","","","","animation","163","952650","0.0-163.0","1920x1080","","6816.800000000745","65","img/314/5.5/1/bw/001.png","","","natural"
"","","","","","animation","164","956675","0.0-164.0","1920x1080","","4023.199999999255","28.17","img/314/4/1/bw/001.png","","","natural"
"","","","","","animation","165","959482","0.0-165.0","1920x1080","","2806","77.65","img/238/5.5/0.66667/bw/001.png","","","natural"
"","","","","","animation","166","963379","0.0-166.0","1920x1080","","3896.2000000011176","36.11","img/314/4/0.5/bw/001.png","","","natural"
"","","","","","animation","167","965997","0.0-167.0","1920x1080","","2616.2000000011176","13","img/238/3.5/2/bw/001.png","","","natural"
"","","","","","animation","168","969339","0.0-168.0","1920x1080","","3341.300000000745","19","img/238/4/0.5/bw/001.png","","","natural"
"","","","","","animation","169","972834","0.0-169.0","1920x1080","","3494.800000000745","24.47","img/117/4/1/bw/001.png","","","natural"
"","","","","","animation","170","975049","0.0-170.0","1920x1080","","2213","11","img/314/3.5/1/bw/001.png","","","natural"
"","","","","","animation","171","977464","0.0-171.0","1920x1080","","2413.39999999851","21.56","img/238/3.5/1.5/bw/001.png","","","natural"
"","","","","","animation","172","980031","0.0-172.0","1920x1080","","2566","15","img/314/4/1.5/bw/001.png","","","natural"
"","","","","","animation","173","983332","0.0-173.0","1920x1080","","3307","0","img/238/2.5/1.5/bw/001.png","","","natural"
"","","","","","animation","174","987859","0.0-174.0","1920x1080","","4526.5999999996275","18.25","img/238/3.5/1/bw/001.png","","","natural"
"","","","","","animation","175","990259","0.0-175.0","1920x1080","","2398.4000000003725","5.95","img/314/2.5/1.5/bw/001.png","","","natural"
"","","","","","animation","176","993291","0.0-176.0","1920x1080","","3030.699999999255","32.94","img/314/3.5/1.5/bw/001.png","","","natural"
"","","","","","animation","177","996684","0.0-177.0","1920x1080","","3391.4000000003725","46.16","img/314/4.5/2/bw/001.png","","","natural"
"","","","","","animation","178","1001364","0.0-178.0","1920x1080","","4678.799999998882","55.56","img/117/4.5/1/bw/001.png","","","natural"
"","","","","","animation","179","1004564","0.0-179.0","1920x1080","","3198.699999999255","6.22","img/314/2.5/2/bw/001.png","","","natural"
"","","","","","animation","180","1009043","0.0-180.0","1920x1080","","4478.0999999996275","83.47","img/117/5.5/1.5/bw/001.png","","","natural"
"","","","","","animation","181","1011607","0.0-181.0","1920x1080","","2562.2999999988824","70","img/238/4.5/1.5/bw/001.png","","","natural"
"","","","","","animation","182","1016374","0.0-182.0","1920x1080","","4765.699999999255","0.53","img/117/2.5/1/bw/001.png","","","natural"
"","","","","","animation","183","1019916","0.0-183.0","1920x1080","","3541.0999999996275","75","img/117/4.5/2/bw/001.png","","","natural"
"","","","","","animation","184","1022358","0.0-184.0","1920x1080","","2440.9000000003725","92.59","img/314/5.5/2/bw/001.png","","","natural"
"","","","","","animation","185","1026899","0.0-185.0","1920x1080","","4540.5999999996275","0.00","img/238/2.5/0.66667/bw/001.png","","","natural"
"","","","","","animation","186","1030484","0.0-186.0","1920x1080","","3583.0999999996275","90.61","img/238/5.5/2/bw/001.png","","","natural"
"","","","","","animation","187","1035116","0.0-187.0","1920x1080","","4630.4000000003725","0","img/117/2.5/0.5/bw/001.png","","","natural"
"","","","","","animation","188","1038059","0.0-188.0","1920x1080","","2942.4000000003725","89.68","img/238/5.5/1/bw/001.png","","","natural"
"","","","","","animation","189","1041364","0.0-189.0","1920x1080","","3303.0999999996275","0","img/238/2.5/2/bw/001.png","","","natural"
"","","","","","animation","190","1043882","0.0-190.0","1920x1080","","2518.9000000003725","0","img/314/2.5/0.66667/bw/001.png","","","natural"
"","","","","","animation","191","1046474","0.0-191.0","1920x1080","","2590.0999999996275","80.03","img/314/5.5/1.5/bw/001.png","","","natural"
"","","","","","animation","192","1049978","0.0-192.0","1920x1080","","3503.300000000745","46.16","img/117/4/1.5/bw/001.png","","","natural"
"","","","","","animation","193","1052842","0.0-193.0","1920x1080","","2862.7000000011176","40.48","img/314/4.5/0.66667/bw/001.png","","","natural"
"","","","","","animation","194","1056226","0.0-194.0","1920x1080","","3382.9000000003725","55","img/238/4.5/1/bw/001.png","","","natural"
"","","","","","animation","195","1059306","0.0-195.0","1920x1080","","3078.4000000003725","6","img/238/3.5/0.5/bw/001.png","","","natural"
"","","","","","animation","196","1070589","0.0-196.0","1920x1080","","11281.900000000373","50.53","img/314/5.5/0.5/bw/001.png","","","natural"
"","","","","","animation","197","1073389","0.0-197.0","1920x1080","","2798.9000000003725","34.26","img/117/3.5/1/bw/001.png","","","natural"
"","","","","","animation","198","1076922","0.0-198.0","1920x1080","","3532","25.13","img/314/4/0.66667/bw/001.png","","","natural"
"","","","","","animation","199","1080826","0.0-199.0","1920x1080","","3902.5","40.74","img/117/4.5/0.5/bw/001.png","","","natural"
"","","","","","animation","200","1084213","0.0-200.0","1920x1080","","3386","55.42","img/314/4.5/1/bw/001.png","","","natural"
"","","","","","animation","201","1087410","0.0-201.0","1920x1080","","3195","61.90","img/117/4.5/1.5/bw/001.png","","","natural"
"","","","","","animation","202","1091362","0.0-202.0","1920x1080","","3950.800000000745","0.00","img/117/2.5/0.66667/bw/001.png","","","natural"
"","","","","","animation","203","1093610","0.0-203.0","1920x1080","","2246.7999999988824","22.49","img/117/4/0.5/bw/001.png","","","natural"
"","","","","","animation","204","1099789","0.0-204.0","1920x1080","","6177.199999999255","54","img/238/4/2/bw/001.png","","","natural"
"","","","","","animation","205","1102791","0.0-205.0","1920x1080","","2998.0999999996275","21.83","img/314/3.5/0.66667/bw/001.png","","","natural"
"","","","","","animation","206","1107874","0.0-206.0","1920x1080","","5081.89999999851","7.67","img/314/3.5/0.5/bw/001.png","","","natural"
"","","","","","animation","207","1111608","0.0-207.0","1920x1080","","3731.2000000011176","0","img/238/2.5/1/bw/001.png","","","natural"
"","","","","","animation","208","1116500","0.0-208.0","1920x1080","","4891.60000000149","53.04","img/238/4.5/2/bw/001.png","","","natural"
"","","","","","animation","209","1120324","0.0-209.0","1920x1080","","3822.10000000149","4","img/117/2.5/2/bw/001.png","","","natural"
"","","","","","animation","210","1123828","0.0-210.0","1920x1080","","3503","0.79","img/238/3.5/0.66667/bw/001.png","","","natural"
"","","","","","animation","211","1126860","0.0-211.0","1920x1080","","3030.60000000149","29.37","img/314/3.5/2/bw/001.png","","","natural"
"","","","","","animation","212","1130692","0.0-212.0","1920x1080","","3830.7000000011176","55.82","img/117/5.5/0.66667/bw/001.png","","","natural"
"","","","","","animation","213","1134996","0.0-213.0","1920x1080","","4303.39999999851","7.01","img/117/3.5/0.5/bw/001.png","","","natural"
"","","","","","animation","214","1140961","0.0-214.0","1920x1080","","5963.0999999996275","43","img/314/4/2/bw/001.png","","","natural"
"","","","","","animation","215","1146091","0.0-215.0","1920x1080","","5127.199999999255","0.53","img/314/2.5/1/bw/001.png","","","natural"
"","","","","","animation","216","1149391","0.0-216.0","1920x1080","","3299","13.89","img/238/4/0.66667/bw/001.png","","","natural"
"","","","","","animation","217","1154958","0.0-217.0","1920x1080","","5565.699999999255","15","img/238/4.5/0.5/bw/001.png","","","natural"
"","","","","","animation","218","1157607","0.0-218.0","1920x1080","","2648.2000000011176","43.92","img/238/4.5/0.66667/bw/001.png","","","natural"
"","","","","","animation","219","1159948","0.0-219.0","1920x1080","","2339.7999999988824","27.91","img/117/4/0.66667/bw/001.png","","","natural"
"","","","","","animation","220","1162889","0.0-220.0","1920x1080","","2941.0999999996275","42.72","img/238/4/1.5/bw/001.png","","","natural"
"","","","","","animation","221","1166107","0.0-221.0","1920x1080","","3216.2999999988824","47.62","img/117/4/2/bw/001.png","","","natural"
"","","","","","animation","222","1168677","0.0-222.0","1920x1080","","2569.5999999996275","28","img/117/4.5/0.66667/bw/001.png","","","natural"
"","","","","","animation","223","1171443","0.0-223.0","1920x1080","","2763.5","83","img/238/5.5/1.5/bw/001.png","","","natural"
"","","","","","animation","224","1173627","0.0-224.0","1920x1080","","2183.0999999996275","29","img/117/3.5/1.5/bw/001.png","","","natural"
"","","","","","animation","225","1175707","0.0-225.0","1920x1080","","2078.5999999996275","76.72","img/117/5.5/1/bw/001.png","","","natural"
"","","","","","animation","226","1178331","0.0-226.0","1920x1080","","2623.199999999255","89","img/117/5.5/2/bw/001.png","","","natural"
"","","","","","animation","227","1183723","0.0-227.0","1920x1080","","5390.4000000003725","0","img/117/2.5/1.5/bw/001.png","","","natural"
"","","","","","animation","228","1189523","0.0-228.0","1920x1080","","5798.800000000745","11.11","img/314/4.5/0.5/bw/001.png","","","natural"
"","","","","","animation","229","1192473","0.0-229.0","1920x1080","","2948.0999999996275","17","img/117/5.5/0.5/bw/001.png","","","natural"
"","","","","","animation","230","1195556","0.0-230.0","1920x1080","","3082.199999999255","23","img/117/3.5/2/bw/001.png","","","natural"
"","","","","","animation","231","1201147","0.0-231.0","1920x1080","","5589.799999998882","77","img/238/5.5/0.5/bw/001.png","","","natural"
"","","","","","animation","232","1203907","0.0-232.0","1920x1080","","2758.39999999851","67.06","img/314/5.5/0.66667/bw/001.png","","","natural"
"","","","","","animation","233","1207690","0.0-233.0","1920x1080","","3782.5999999996275","52.65","img/238/4/1/bw/001.png","","","natural"
"","","","","","animation","234","1212427","0.0-234.0","1920x1080","","4734.699999999255","0","img/238/2.5/0.5/bw/001.png","","","natural"
"","","","","","animation","235","1216627","0.0-235.0","1920x1080","","4198.800000000745","76.06","img/314/4.5/1.5/bw/001.png","","","natural"
"","","","","","html-button-response","236","1236662","0.0-236.0","1920x1080","","20027.700000001118","","<div class=""intro"">You are about to view a new series of animations.<br><br></div><div class=""intro"">You will evaluate them based on a different descriptor.<br><br></div><div class=""intro"">Move the slider to indicate how <strong style=""text-transform:capitalize"">APPEALING</strong> you find each animation.<br><br></div><div class=""intro"">0 = Least Appealing<br></div><div class=""intro"">1 = Most Appealing<br><br></div><div class=""intro"">Remember to use the <strong><em>entire range</em></strong> of the slider to make your ratings.<br></div><div class=""intro"">Please <strong><em>take your time</em></strong> and carefully consider each rating you make.<br><br></div>","0","",""
"","","","","","call-function","237","1236663","0.0-237.0","1920x1080","","","","","","",""
"","","","","","animation","238","1239864","0.0-238.0","1920x1080","","3200.7000000011176","28.44","img/238/3.5/1/bw/001.png","","","appealing"
"","","","","","animation","239","1243720","0.0-239.0","1920x1080","","3855.0999999996275","37.70","img/238/3.5/1.5/bw/001.png","","","appealing"
"","","","","","animation","240","1246544","0.0-240.0","1920x1080","","2822.5999999996275","24.60","img/117/3.5/1/bw/001.png","","","appealing"
"","","","","","animation","241","1250111","0.0-241.0","1920x1080","","3565.300000000745","24","img/238/4/0.66667/bw/001.png","","","appealing"
"","","","","","animation","242","1253361","0.0-242.0","1920x1080","","3249","40.61","img/238/4.5/0.5/bw/001.png","","","appealing"
"","","","","","animation","243","1257945","0.0-243.0","1920x1080","","4582.5999999996275","100","img/238/5.5/1/bw/001.png","","","appealing"
"","","","","","animation","244","1262096","0.0-244.0","1920x1080","","4147.299999998882","0","img/314/2.5/1.5/bw/001.png","","","appealing"
"","","","","","animation","245","1265232","0.0-245.0","1920x1080","","3133.2000000011176","48.81","img/314/4.5/1/bw/001.png","","","appealing"
"","","","","","animation","246","1267552","0.0-246.0","1920x1080","","2318.9000000003725","32","img/314/4.5/0.5/bw/001.png","","","appealing"
"","","","","","animation","247","1270562","0.0-247.0","1920x1080","","3007.9000000003725","99","img/238/5.5/1.5/bw/001.png","","","appealing"
"","","","","","animation","248","1274048","0.0-248.0","1920x1080","","3484.7999999988824","30.56","img/314/4/1/bw/001.png","","","appealing"
"","","","","","animation","249","1276195","0.0-249.0","1920x1080","","2145.5","43.92","img/314/4.5/1.5/bw/001.png","","","appealing"
"","","","","","animation","250","1279416","0.0-250.0","1920x1080","","3220.5","13.10","img/238/3.5/0.66667/bw/001.png","","","appealing"
"","","","","","animation","251","1281928","0.0-251.0","1920x1080","","2510.5","22","img/314/3.5/1.5/bw/001.png","","","appealing"
"","","","","","animation","252","1286160","0.0-252.0","1920x1080","","4238.9000000003725","100","img/117/5.5/2/bw/001.png","","","appealing"
"","","","","","animation","253","1288928","0.0-253.0","1920x1080","","2766.699999999255","39.02","img/117/3.5/1.5/bw/001.png","","","appealing"
"","","","","","animation","254","1294014","0.0-254.0","1920x1080","","5084.89999999851","0","img/238/2.5/1/bw/001.png","","","appealing"
"","","","","","animation","255","1296575","0.0-255.0","1920x1080","","2558.7000000011176","94.05","img/117/5.5/1.5/bw/001.png","","","appealing"
"","","","","","animation","256","1301543","0.0-256.0","1920x1080","","4966.800000000745","0","img/314/2.5/0.5/bw/001.png","","","appealing"
"","","","","","animation","257","1305486","0.0-257.0","1920x1080","","3941.5","100","img/314/5.5/2/bw/001.png","","","appealing"
"","","","","","animation","258","1308320","0.0-258.0","1920x1080","","2827.5999999996275","81.88","img/314/5.5/0.5/bw/001.png","","","appealing"
"","","","","","animation","259","1311343","0.0-259.0","1920x1080","","3022.5","83","img/117/4.5/2/bw/001.png","","","appealing"
"","","","","","animation","260","1314439","0.0-260.0","1920x1080","","3094.300000000745","57","img/314/3.5/2/bw/001.png","","","appealing"
"","","","","","animation","261","1317817","0.0-261.0","1920x1080","","3376.800000000745","76.59","img/314/5.5/1/bw/001.png","","","appealing"
"","","","","","animation","262","1321969","0.0-262.0","1920x1080","","4150.299999998882","73.81","img/238/4.5/1.5/bw/001.png","","","appealing"
"","","","","","animation","263","1325586","0.0-263.0","1920x1080","","3615.5","74.47","img/314/4.5/2/bw/001.png","","","appealing"
"","","","","","animation","264","1328992","0.0-264.0","1920x1080","","3403.9000000003725","7.54","img/117/3.5/0.5/bw/001.png","","","appealing"
"","","","","","animation","265","1331588","0.0-265.0","1920x1080","","2595.0999999996275","0","img/314/2.5/1/bw/001.png","","","appealing"
"","","","","","animation","266","1334191","0.0-266.0","1920x1080","","2601.60000000149","8.73","img/314/4/0.66667/bw/001.png","","","appealing"
"","","","","","animation","267","1337069","0.0-267.0","1920x1080","","2876.5999999996275","2","img/117/3.5/0.66667/bw/001.png","","","appealing"
"","","","","","animation","268","1342769","0.0-268.0","1920x1080","","5698.300000000745","82.80","img/238/5.5/0.66667/bw/001.png","","","appealing"
"","","","","","animation","269","1348304","0.0-269.0","1920x1080","","5532","88.23","img/238/5.5/0.5/bw/001.png","","","appealing"
"","","","","","animation","270","1351639","0.0-270.0","1920x1080","","3333.89999999851","71.03","img/117/4.5/1.5/bw/001.png","","","appealing"
"","","","","","animation","271","1356288","0.0-271.0","1920x1080","","4647.4000000003725","0","img/238/2.5/0.5/bw/001.png","","","appealing"
"","","","","","animation","272","1362403","0.0-272.0","1920x1080","","6113.699999999255","19","img/117/4/1/bw/001.png","","","appealing"
"","","","","","animation","273","1365587","0.0-273.0","1920x1080","","3181.199999999255","17.06","img/238/3.5/2/bw/001.png","","","appealing"
"","","","","","animation","274","1369209","0.0-274.0","1920x1080","","3618","35.05","img/238/4.5/2/bw/001.png","","","appealing"
"","","","","","animation","275","1372024","0.0-275.0","1920x1080","","2814.5","2","img/117/2.5/2/bw/001.png","","","appealing"
"","","","","","animation","276","1376704","0.0-276.0","1920x1080","","4678.0999999996275","34","img/238/4.5/0.66667/bw/001.png","","","appealing"
"","","","","","animation","277","1379670","0.0-277.0","1920x1080","","2965.5","12","img/117/4/0.5/bw/001.png","","","appealing"
"","","","","","animation","278","1383621","0.0-278.0","1920x1080","","3948.5999999996275","8.33","img/314/3.5/0.66667/bw/001.png","","","appealing"
"","","","","","animation","279","1387872","0.0-279.0","1920x1080","","4250.0999999996275","62.43","img/117/5.5/0.5/bw/001.png","","","appealing"
"","","","","","animation","280","1390120","0.0-280.0","1920x1080","","2246.7000000011176","56.35","img/117/4.5/0.66667/bw/001.png","","","appealing"
"","","","","","animation","281","1393056","0.0-281.0","1920x1080","","2934.800000000745","1.32","img/117/2.5/1/bw/001.png","","","appealing"
"","","","","","animation","282","1397137","0.0-282.0","1920x1080","","4079.4000000003725","89.81","img/117/5.5/1/bw/001.png","","","appealing"
"","","","","","animation","283","1401776","0.0-283.0","1920x1080","","4638.299999998882","38.89","img/314/4.5/0.66667/bw/001.png","","","appealing"
"","","","","","animation","284","1407136","0.0-284.0","1920x1080","","5359","86.90","img/314/5.5/1.5/bw/001.png","","","appealing"
"","","","","","animation","285","1410753","0.0-285.0","1920x1080","","3615.5","21.16","img/117/4/0.66667/bw/001.png","","","appealing"
"","","","","","animation","286","1414286","0.0-286.0","1920x1080","","3531.800000000745","33.73","img/117/4.5/1/bw/001.png","","","appealing"
"","","","","","animation","287","1418202","0.0-287.0","1920x1080","","3915.10000000149","79.37","img/314/5.5/0.66667/bw/001.png","","","appealing"
"","","","","","animation","288","1425136","0.0-288.0","1920x1080","","6932.200000001118","100","img/238/5.5/2/bw/001.png","","","appealing"
"","","","","","animation","289","1430336","0.0-289.0","1920x1080","","5198.5","33.60","img/117/5.5/0.66667/bw/001.png","","","appealing"
"","","","","","animation","290","1433536","0.0-290.0","1920x1080","","3198.2999999988824","0.93","img/117/2.5/0.5/bw/001.png","","","appealing"
"","","","","","animation","291","1436320","0.0-291.0","1920x1080","","2782.199999999255","14.68","img/238/4/1/bw/001.png","","","appealing"
"","","","","","animation","292","1439952","0.0-292.0","1920x1080","","3631.5999999996275","0","img/117/2.5/0.66667/bw/001.png","","","appealing"
"","","","","","animation","293","1444053","0.0-293.0","1920x1080","","4099","4.23","img/314/3.5/1/bw/001.png","","","appealing"
"","","","","","animation","294","1447976","0.0-294.0","1920x1080","","3921","30.03","img/238/4/2/bw/001.png","","","appealing"
"","","","","","animation","295","1451570","0.0-295.0","1920x1080","","3591.699999999255","40.87","img/238/4.5/1/bw/001.png","","","appealing"
"","","","","","animation","296","1455753","0.0-296.0","1920x1080","","4181.9000000003725","17.72","img/314/3.5/0.5/bw/001.png","","","appealing"
"","","","","","animation","297","1459160","0.0-297.0","1920x1080","","3405.5","2.38","img/314/2.5/0.66667/bw/001.png","","","appealing"
"","","","","","animation","298","1462137","0.0-298.0","1920x1080","","2975.5","42.06","img/314/4/2/bw/001.png","","","appealing"
"","","","","","animation","299","1468791","0.0-299.0","1920x1080","","6653.699999999255","7.67","img/314/2.5/2/bw/001.png","","","appealing"
"","","","","","animation","300","1472238","0.0-300.0","1920x1080","","3446.2999999988824","0","img/238/2.5/0.66667/bw/001.png","","","appealing"
"","","","","","animation","301","1474602","0.0-301.0","1920x1080","","2361.7999999988824","67","img/238/4/1.5/bw/001.png","","","appealing"
"","","","","","animation","302","1477357","0.0-302.0","1920x1080","","2753.9000000003725","45.63","img/314/4/0.5/bw/001.png","","","appealing"
"","","","","","animation","303","1479742","0.0-303.0","1920x1080","","2381.2999999988824","39.02","img/238/4/0.5/bw/001.png","","","appealing"
"","","","","","animation","304","1481852","0.0-304.0","1920x1080","","2108.300000000745","34.52","img/117/4.5/0.5/bw/001.png","","","appealing"
"","","","","","animation","305","1485423","0.0-305.0","1920x1080","","3569.5999999996275","50.53","img/314/4/1.5/bw/001.png","","","appealing"
"","","","","","animation","306","1488311","0.0-306.0","1920x1080","","2886.9000000003725","6","img/238/2.5/2/bw/001.png","","","appealing"
"","","","","","animation","307","1492035","0.0-307.0","1920x1080","","3722.7999999988824","39.95","img/117/4/2/bw/001.png","","","appealing"
"","","","","","animation","308","1494774","0.0-308.0","1920x1080","","2737.699999999255","46.69","img/117/4/1.5/bw/001.png","","","appealing"
"","","","","","animation","309","1497575","0.0-309.0","1920x1080","","2798.699999999255","19.84","img/238/3.5/0.5/bw/001.png","","","appealing"
"","","","","","animation","310","1499935","0.0-310.0","1920x1080","","2358.7999999988824","28.97","img/117/3.5/2/bw/001.png","","","appealing"
"","","","","","animation","311","1502490","0.0-311.0","1920x1080","","2553.9000000003725","8.73","img/238/2.5/1.5/bw/001.png","","","appealing"
"","","","","","animation","312","1505038","0.0-312.0","1920x1080","","2546.4000000003725","2","img/117/2.5/1.5/bw/001.png","","","appealing"
"","","","","","html-button-response","313","1525031","0.0-313.0","1920x1080","","19982.5","","<div class=""intro"">You are about to view a new series of animations.<br><br></div><div class=""intro"">You will evaluate them based on a different descriptor.<br><br></div><div class=""intro"">Move the slider to indicate how <strong style=""text-transform:capitalize"">INTERESTING</strong> you find each animation.<br><br></div><div class=""intro"">0 = Least Interesting<br></div><div class=""intro"">1 = Most Interesting<br><br></div><div class=""intro"">Remember to use the <strong><em>entire range</em></strong> of the slider to make your ratings.<br></div><div class=""intro"">Please <strong><em>take your time</em></strong> and carefully consider each rating you make.<br><br></div>","0","",""
"","","","","","call-function","314","1525033","0.0-314.0","1920x1080","","","","","","",""
"","","","","","animation","315","1535199","0.0-315.0","1920x1080","","10165.300000000745","11","img/238/5.5/2/bw/001.png","","","interesting"
"","","","","","animation","316","1537855","0.0-316.0","1920x1080","","2654.0999999996275","67.72","img/117/2.5/0.5/bw/001.png","","","interesting"
"","","","","","animation","317","1541426","0.0-317.0","1920x1080","","3570","69.58","img/117/4.5/2/bw/001.png","","","interesting"
"","","","","","animation","318","1544126","0.0-318.0","1920x1080","","2699.10000000149","50.66","img/238/4/1/bw/001.png","","","interesting"
"","","","","","animation","319","1547398","0.0-319.0","1920x1080","","3271","94.18","img/117/2.5/0.66667/bw/001.png","","","interesting"
"","","","","","animation","320","1550835","0.0-320.0","1920x1080","","3434.7999999988824","61.38","img/314/5.5/1.5/bw/001.png","","","interesting"
"","","","","","animation","321","1553142","0.0-321.0","1920x1080","","2306.2000000011176","76.46","img/117/2.5/1.5/bw/001.png","","","interesting"
"","","","","","animation","322","1557126","0.0-322.0","1920x1080","","3982.5","92.59","img/117/3.5/0.5/bw/001.png","","","interesting"
"","","","","","animation","323","1560559","0.0-323.0","1920x1080","","3431.5","76.98","img/117/3.5/1.5/bw/001.png","","","interesting"
"","","","","","animation","324","1562743","0.0-324.0","1920x1080","","2182.0999999996275","33.33","img/117/5.5/2/bw/001.png","","","interesting"
"","","","","","animation","325","1565353","0.0-325.0","1920x1080","","2609","100","img/314/2.5/2/bw/001.png","","","interesting"
"","","","","","animation","326","1569043","0.0-326.0","1920x1080","","3687.7999999988824","88.36","img/117/4.5/1/bw/001.png","","","interesting"
"","","","","","animation","327","1572182","0.0-327.0","1920x1080","","3137.5","67.33","img/238/3.5/1.5/bw/001.png","","","interesting"
"","","","","","animation","328","1574529","0.0-328.0","1920x1080","","2345.5999999996275","54.10","img/238/4.5/1/bw/001.png","","","interesting"
"","","","","","animation","329","1576945","0.0-329.0","1920x1080","","2411.0999999996275","68.25","img/117/4/0.5/bw/001.png","","","interesting"
"","","","","","animation","330","1579026","0.0-330.0","1920x1080","","2079.10000000149","51.85","img/314/4.5/2/bw/001.png","","","interesting"
"","","","","","animation","331","1582526","0.0-331.0","1920x1080","","3499.5","28.04","img/314/5.5/1/bw/001.png","","","interesting"
"","","","","","animation","332","1587372","0.0-332.0","1920x1080","","4854.9000000003725","100","img/314/2.5/0.5/bw/001.png","","","interesting"
"","","","","","animation","333","1590616","0.0-333.0","1920x1080","","3242.4000000003725","97","img/238/2.5/1/bw/001.png","","","interesting"
"","","","","","animation","334","1594220","0.0-334.0","1920x1080","","3602.0999999996275","98","img/117/2.5/2/bw/001.png","","","interesting"
"","","","","","animation","335","1597471","0.0-335.0","1920x1080","","3248.800000000745","97","img/314/2.5/1.5/bw/001.png","","","interesting"
"","","","","","animation","336","1599682","0.0-336.0","1920x1080","","2209.199999999255","87.83","img/238/4/0.5/bw/001.png","","","interesting"
"","","","","","animation","337","1602583","0.0-337.0","1920x1080","","2899.699999999255","76.85","img/314/4.5/1.5/bw/001.png","","","interesting"
"","","","","","animation","338","1605404","0.0-338.0","1920x1080","","2818.300000000745","85.98","img/314/4/0.66667/bw/001.png","","","interesting"
"","","","","","animation","339","1608476","0.0-339.0","1920x1080","","3069.2000000011176","6.22","img/314/5.5/2/bw/001.png","","","interesting"
"","","","","","animation","340","1611100","0.0-340.0","1920x1080","","2622.2000000011176","78.44","img/314/3.5/0.5/bw/001.png","","","interesting"
"","","","","","animation","341","1614149","0.0-341.0","1920x1080","","3047.9000000003725","72.75","img/238/4/1.5/bw/001.png","","","interesting"
"","","","","","animation","342","1620482","0.0-342.0","1920x1080","","6331.4000000003725","24.47","img/117/4.5/1.5/bw/001.png","","","interesting"
"","","","","","animation","343","1624004","0.0-343.0","1920x1080","","3517","32.01","img/117/4/2/bw/001.png","","","interesting"
"","","","","","animation","344","1641868","0.0-344.0","1920x1080","","17862.400000000373","93","img/238/2.5/1.5/bw/001.png","","","interesting"
"","","","","","animation","345","1646498","0.0-345.0","1920x1080","","4630.300000000745","52","img/314/4/1/bw/001.png","","","interesting"
"","","","","","animation","346","1649198","0.0-346.0","1920x1080","","2698.300000000745","8","img/238/5.5/0.5/bw/001.png","","","interesting"
"","","","","","animation","347","1651486","0.0-347.0","1920x1080","","2287.199999999255","5.95","img/117/5.5/0.66667/bw/001.png","","","interesting"
"","","","","","animation","348","1654323","0.0-348.0","1920x1080","","2835.4000000003725","100","img/238/2.5/0.5/bw/001.png","","","interesting"
"","","","","","animation","349","1658171","0.0-349.0","1920x1080","","3846.4000000003725","78","img/117/4.5/0.5/bw/001.png","","","interesting"
"","","","","","animation","350","1660242","0.0-350.0","1920x1080","","2069.5","83.60","img/117/4/1/bw/001.png","","","interesting"
"","","","","","animation","351","1662787","0.0-351.0","1920x1080","","2543.7999999988824","97","img/117/2.5/1/bw/001.png","","","interesting"
"","","","","","animation","352","1664715","0.0-352.0","1920x1080","","1926.6000000014901","78.04","img/238/4.5/0.5/bw/001.png","","","interesting"
"","","","","","animation","353","1667276","0.0-353.0","1920x1080","","2559","73.54","img/314/4.5/1/bw/001.png","","","interesting"
"","","","","","animation","354","1670290","0.0-354.0","1920x1080","","3012.39999999851","75.40","img/314/4/1.5/bw/001.png","","","interesting"
"","","","","","animation","355","1673043","0.0-355.0","1920x1080","","2751.9000000003725","89.15","img/238/3.5/0.66667/bw/001.png","","","interesting"
"","","","","","animation","356","1675276","0.0-356.0","1920x1080","","2231.300000000745","61","img/238/4.5/1.5/bw/001.png","","","interesting"
"","","","","","animation","357","1677467","0.0-357.0","1920x1080","","2189.4000000003725","74.47","img/117/4.5/0.66667/bw/001.png","","","interesting"
"","","","","","animation","358","1680099","0.0-358.0","1920x1080","","2630.5","62.04","img/238/4/2/bw/001.png","","","interesting"
"","","","","","animation","359","1682769","0.0-359.0","1920x1080","","2669.4000000003725","27.25","img/238/4.5/0.66667/bw/001.png","","","interesting"
"","","","","","animation","360","1685493","0.0-360.0","1920x1080","","2722.5","1.72","img/238/5.5/1/bw/001.png","","","interesting"
"","","","","","animation","361","1688638","0.0-361.0","1920x1080","","3143.10000000149","0","img/238/5.5/0.66667/bw/001.png","","","interesting"
"","","","","","animation","362","1694249","0.0-362.0","1920x1080","","5608.5","24","img/314/4/2/bw/001.png","","","interesting"
"","","","","","animation","363","1696235","0.0-363.0","1920x1080","","1984.5","38.62","img/238/3.5/2/bw/001.png","","","interesting"
"","","","","","animation","364","1699467","0.0-364.0","1920x1080","","3231","10.05","img/314/5.5/0.66667/bw/001.png","","","interesting"
"","","","","","animation","365","1703502","0.0-365.0","1920x1080","","4035","40.08","img/314/3.5/1/bw/001.png","","","interesting"
"","","","","","animation","366","1705663","0.0-366.0","1920x1080","","2159","46.16","img/314/4/0.5/bw/001.png","","","interesting"
"","","","","","animation","367","1708099","0.0-367.0","1920x1080","","2434.39999999851","61.64","img/314/3.5/0.66667/bw/001.png","","","interesting"
"","","","","","animation","368","1711895","0.0-368.0","1920x1080","","3794.300000000745","17.33","img/117/5.5/1.5/bw/001.png","","","interesting"
"","","","","","animation","369","1714833","0.0-369.0","1920x1080","","2936.2000000011176","10.98","img/117/5.5/1/bw/001.png","","","interesting"
"","","","","","animation","370","1717250","0.0-370.0","1920x1080","","2415.5","66.01","img/117/3.5/0.66667/bw/001.png","","","interesting"
"","","","","","animation","371","1722413","0.0-371.0","1920x1080","","5158.4000000003725","13.23","img/238/4.5/2/bw/001.png","","","interesting"
"","","","","","animation","372","1725568","0.0-372.0","1920x1080","","3153.199999999255","42.33","img/314/4.5/0.66667/bw/001.png","","","interesting"
"","","","","","animation","373","1730824","0.0-373.0","1920x1080","","5254.5","28.97","img/314/5.5/0.5/bw/001.png","","","interesting"
"","","","","","animation","374","1734597","0.0-374.0","1920x1080","","3770.9000000003725","68.52","img/117/3.5/2/bw/001.png","","","interesting"
"","","","","","animation","375","1736980","0.0-375.0","1920x1080","","2381.4000000003725","75.79","img/117/4/1.5/bw/001.png","","","interesting"
"","","","","","animation","376","1740767","0.0-376.0","1920x1080","","3785.0999999996275","81.08","img/117/4/0.66667/bw/001.png","","","interesting"
"","","","","","animation","377","1742748","0.0-377.0","1920x1080","","1979.0999999996275","88.10","img/238/3.5/0.5/bw/001.png","","","interesting"
"","","","","","animation","378","1745275","0.0-378.0","1920x1080","","2525.199999999255","77.78","img/314/3.5/1.5/bw/001.png","","","interesting"
"","","","","","animation","379","1748099","0.0-379.0","1920x1080","","2822.9000000003725","22.49","img/117/5.5/0.5/bw/001.png","","","interesting"
"","","","","","animation","380","1751313","0.0-380.0","1920x1080","","3212.4000000003725","100","img/314/2.5/1/bw/001.png","","","interesting"
"","","","","","animation","381","1755332","0.0-381.0","1920x1080","","4016.9000000003725","93.25","img/238/2.5/2/bw/001.png","","","interesting"
"","","","","","animation","382","1759613","0.0-382.0","1920x1080","","4279","55.56","img/238/4/0.66667/bw/001.png","","","interesting"
"","","","","","animation","383","1762313","0.0-383.0","1920x1080","","2698.800000000745","66.67","img/117/3.5/1/bw/001.png","","","interesting"
"","","","","","animation","384","1765946","0.0-384.0","1920x1080","","3631.89999999851","100","img/314/2.5/0.66667/bw/001.png","","","interesting"
"","","","","","animation","385","1769579","0.0-385.0","1920x1080","","3631.0999999996275","100","img/238/2.5/0.66667/bw/001.png","","","interesting"
"","","","","","animation","386","1773195","0.0-386.0","1920x1080","","3614.5","0.00","img/238/5.5/1.5/bw/001.png","","","interesting"
"","","","","","animation","387","1775380","0.0-387.0","1920x1080","","2183","37.96","img/238/3.5/1/bw/001.png","","","interesting"
"","","","","","animation","388","1778578","0.0-388.0","1920x1080","","3195.7999999988824","35.98","img/314/4.5/0.5/bw/001.png","","","interesting"
"","","","","","animation","389","1780665","0.0-389.0","1920x1080","","2085","43.78","img/314/3.5/2/bw/001.png","","","interesting"
"","","","","","html-button-response","390","1835903","0.0-390.0","1920x1080","","55223","","<strong>Study Debriefing</strong><br><p class=""debrief""><strong>Background:</strong> The patterns you rated are called <em>fractals</em>. The term fractal describes a class of irregular curves or shapes for which any suitably chosen part is similar in shape to a given larger or smaller part when magnified or reduced to the same size. Fractal properties are found throughout the natural and manmade world. The series of animations you saw today displayed animated fractal patterns of a varying complexity.</p><p class=""debrief""><strong>Purpose of this study:</strong> We hope to better understand how the perception of static fractals differs from the perception of animated fractals, and how the speed of the animated patterns influences people&apos;s perception of them. Fractals allow us to study the perception of aesthetic properties (e.g. the perceived level of beauty in an image) without using recognizable content, which makes them an excellent tool for studying abstract aesthetic judgement.</p><p class=""debrief""><strong>Your part:</strong> Your participation has helped us to further understand how humans perceive these patterns across different levels of speed and complexity. This research with allow us to better understand how the visual system and brain process our ever-changing visual environments.<p class=""debrief""><strong>Feedback and Further information:</strong> If you have additional questions about this study, please feel free to ask the researcher, Nathan Gonzales-Hess at nhess @ uoregon.edu. If you have any questions concerning your rights as a research participant, please contact Research Compliance Services, 5237 University of Oregon, Eugene, OR 97403, 541-346-2510, or email researchCompliance @ uoregon.edu. You can also email the Human Subjects Coordinator for psychology and linguistics research at hscoord @ uoregon.edu. ","0","",""
"","","","","","html-button-response","391","1862181","0.0-391.0","1920x1080","","26272.599999999627","","Thank you for participating in this study. <br>Please click below to finish the experiment and submit your responses.<br><br>","0","",""
"true","","","","","fullscreen","392","1863189","0.0-392.0","1920x1080","13:29 19/10/2022","","","","","",""
